"trial_type","trial_index","time_elapsed","internal_node_id","subject_id","study_id","session_id","rt","url","response","question_order","view_history","success","timeout","failed_images","failed_audio","failed_video","stimulus","block","block_rep","trial_number","jar","bead","previous_bead","choice","correct","lowH_score","total_bonus"
"pavlovia","0","1485","0.0-0.0","65ebb614d2f7accb27486117","6662009ae78f21dd82fcd179","66620a0829f6b2e5fd822b60","","","","","","","","","","","","","","","","","","","","",""
"external-html","1","33710","0.0-1.0-0.0","65ebb614d2f7accb27486117","6662009ae78f21dd82fcd179","66620a0829f6b2e5fd822b60","32041","new_consent.html","","","","","","","","","","","","","","","","","","",""
"survey-multi-choice","2","44663","0.0-1.0-1.0","65ebb614d2f7accb27486117","6662009ae78f21dd82fcd179","66620a0829f6b2e5fd822b60","10951","","{""Q0"":""Female"",""Q1"":""White""}","[0,1]","","","","","","","","","","","","","","","","",""
"survey-text","3","50928","0.0-1.0-2.0","65ebb614d2f7accb27486117","6662009ae78f21dd82fcd179","66620a0829f6b2e5fd822b60","6255","","{""Q0"":""43""}","","","","","","","","","","","","","","","","","",""
"instructions","4","53210","0.0-2.0","65ebb614d2f7accb27486117","6662009ae78f21dd82fcd179","66620a0829f6b2e5fd822b60","2179","","","","[{""page_index"":0,""viewing_time"":2178}]","","","","","","","","","","","","","","","",""
"preload","5","55152","0.0-3.0-0.0","65ebb614d2f7accb27486117","6662009ae78f21dd82fcd179","66620a0829f6b2e5fd822b60","","","","","","true","false","[]","[]","[]","","","","","","","","","","",""
"instructions","6","232978","0.0-3.0-1.0","65ebb614d2f7accb27486117","6662009ae78f21dd82fcd179","66620a0829f6b2e5fd822b60","177832","","","","[{""page_index"":0,""viewing_time"":27225},{""page_index"":1,""viewing_time"":15234},{""page_index"":2,""viewing_time"":6951},{""page_index"":3,""viewing_time"":2714},{""page_index"":4,""viewing_time"":23535},{""page_index"":5,""viewing_time"":38104},{""page_index"":6,""viewing_time"":10632},{""page_index"":7,""viewing_time"":20101},{""page_index"":8,""viewing_time"":9686},{""page_index"":9,""viewing_time"":5014},{""page_index"":10,""viewing_time"":16220},{""page_index"":11,""viewing_time"":2416}]","","","","","","","","","","","","","","","",""
"html-button-response","7","237742","0.0-3.0-2.0-0.0-0.0","65ebb614d2f7accb27486117","6662009ae78f21dd82fcd179","66620a0829f6b2e5fd822b60","4763","","1","","","","","","","","<div align=center>Your goal is to predict…?<br><br></div>","","","","","","","","","",""
"html-button-response","8","250678","0.0-3.0-2.0-1.0-0.0","65ebb614d2f7accb27486117","6662009ae78f21dd82fcd179","66620a0829f6b2e5fd822b60","7827","","2","","","","","","","","<div align=center>In the jar with mostly white beads, there are ___% white beads and ___% black beads?<br><br></div>","","","","","","","","","",""
"html-button-response","9","261281","0.0-3.0-2.0-2.0-0.0","65ebb614d2f7accb27486117","6662009ae78f21dd82fcd179","66620a0829f6b2e5fd822b60","6761","","0","","","","","","","","<div align=center>When there is a 1% probability that the jars will switch, the next bead will most likely be drawn from the…<br><br></div>","","","","","","","","","",""
"html-button-response","10","270694","0.0-3.0-2.0-3.0-0.0","65ebb614d2f7accb27486117","6662009ae78f21dd82fcd179","66620a0829f6b2e5fd822b60","5259","","1","","","","","","","","<div align=center>When there is a 99% probability that the jars will switch, the next bead will most likely be drawn from the…<br><br></div>","","","","","","","","","",""
"instructions","11","290809","0.0-3.0-3.0","65ebb614d2f7accb27486117","6662009ae78f21dd82fcd179","66620a0829f6b2e5fd822b60","16477","","","","[{""page_index"":0,""viewing_time"":16477}]","","","","","","","","","","","","","","","",""
"html-keyboard-response","12","297731","0.0-3.0-4.0-0.0","65ebb614d2f7accb27486117","6662009ae78f21dd82fcd179","66620a0829f6b2e5fd822b60","6920",""," ","","","","","","","","<div align=center>In this practice block, there will be a <b>1% chance</b> that the jar on the next trial will be different from the jar on the current trial.<br><br></div>","","","","","","","","","",""
"image-keyboard-response","13","303972","0.0-3.0-4.0-1.0-0.0","65ebb614d2f7accb27486117","6662009ae78f21dd82fcd179","66620a0829f6b2e5fd822b60","6228","","j","","","","","","","","./tasks/HMM-beads/Images/NoChoice.png","practice","0","0","0","0","9","1","false","",""
"image-keyboard-response","14","304285","0.0-3.0-4.0-1.0-1.0","65ebb614d2f7accb27486117","6662009ae78f21dd82fcd179","66620a0829f6b2e5fd822b60","null","","null","","","","","","","","./tasks/HMM-beads/Images/WhiteBeadChoice.png","","","","","","","","","",""
"image-keyboard-response","15","304798","0.0-3.0-4.0-1.0-2.0","65ebb614d2f7accb27486117","6662009ae78f21dd82fcd179","66620a0829f6b2e5fd822b60","null","","null","","","","","","","","./tasks/HMM-beads/Images/WhiteBeadChoiceWrong.png","","","","","","","","","",""
"image-keyboard-response","16","308798","0.0-3.0-4.0-1.0-0.1","65ebb614d2f7accb27486117","6662009ae78f21dd82fcd179","66620a0829f6b2e5fd822b60","3986","","f","","","","","","","","./tasks/HMM-beads/Images/NewTrialBC.png","practice","0","1","0","0","0","0","true","",""
"image-keyboard-response","17","309111","0.0-3.0-4.0-1.0-1.1","65ebb614d2f7accb27486117","6662009ae78f21dd82fcd179","66620a0829f6b2e5fd822b60","null","","null","","","","","","","","./tasks/HMM-beads/Images/BlackBeadChoice.png","","","","","","","","","",""
"image-keyboard-response","18","309625","0.0-3.0-4.0-1.0-2.1","65ebb614d2f7accb27486117","6662009ae78f21dd82fcd179","66620a0829f6b2e5fd822b60","null","","null","","","","","","","","./tasks/HMM-beads/Images/BlackBeadChoiceCorrect.png","","","","","","","","","",""
"image-keyboard-response","19","313419","0.0-3.0-4.0-1.0-0.2","65ebb614d2f7accb27486117","6662009ae78f21dd82fcd179","66620a0829f6b2e5fd822b60","3792","","f","","","","","","","","./tasks/HMM-beads/Images/NewTrialBC.png","practice","0","2","0","1","0","0","false","",""
"image-keyboard-response","20","313723","0.0-3.0-4.0-1.0-1.2","65ebb614d2f7accb27486117","6662009ae78f21dd82fcd179","66620a0829f6b2e5fd822b60","null","","null","","","","","","","","./tasks/HMM-beads/Images/BlackBeadChoice.png","","","","","","","","","",""
"image-keyboard-response","21","314238","0.0-3.0-4.0-1.0-2.2","65ebb614d2f7accb27486117","6662009ae78f21dd82fcd179","66620a0829f6b2e5fd822b60","null","","null","","","","","","","","./tasks/HMM-beads/Images/BlackBeadChoiceWrong.png","","","","","","","","","",""
"image-keyboard-response","22","317714","0.0-3.0-4.0-1.0-0.3","65ebb614d2f7accb27486117","6662009ae78f21dd82fcd179","66620a0829f6b2e5fd822b60","3464","","f","","","","","","","","./tasks/HMM-beads/Images/NewTrialWC.png","practice","0","3","0","0","1","0","true","",""
"image-keyboard-response","23","318018","0.0-3.0-4.0-1.0-1.3","65ebb614d2f7accb27486117","6662009ae78f21dd82fcd179","66620a0829f6b2e5fd822b60","null","","null","","","","","","","","./tasks/HMM-beads/Images/BlackBeadChoice.png","","","","","","","","","",""
"image-keyboard-response","24","318521","0.0-3.0-4.0-1.0-2.3","65ebb614d2f7accb27486117","6662009ae78f21dd82fcd179","66620a0829f6b2e5fd822b60","null","","null","","","","","","","","./tasks/HMM-beads/Images/BlackBeadChoiceCorrect.png","","","","","","","","","",""
"image-keyboard-response","25","321108","0.0-3.0-4.0-1.0-0.4","65ebb614d2f7accb27486117","6662009ae78f21dd82fcd179","66620a0829f6b2e5fd822b60","2585","","f","","","","","","","","./tasks/HMM-beads/Images/NewTrialBC.png","practice","0","4","0","0","0","0","true","",""
"image-keyboard-response","26","321412","0.0-3.0-4.0-1.0-1.4","65ebb614d2f7accb27486117","6662009ae78f21dd82fcd179","66620a0829f6b2e5fd822b60","null","","null","","","","","","","","./tasks/HMM-beads/Images/BlackBeadChoice.png","","","","","","","","","",""
"image-keyboard-response","27","321915","0.0-3.0-4.0-1.0-2.4","65ebb614d2f7accb27486117","6662009ae78f21dd82fcd179","66620a0829f6b2e5fd822b60","null","","null","","","","","","","","./tasks/HMM-beads/Images/BlackBeadChoiceCorrect.png","","","","","","","","","",""
"image-keyboard-response","28","324472","0.0-3.0-4.0-1.0-0.5","65ebb614d2f7accb27486117","6662009ae78f21dd82fcd179","66620a0829f6b2e5fd822b60","2555","","f","","","","","","","","./tasks/HMM-beads/Images/NewTrialBC.png","practice","0","5","0","1","0","0","false","",""
"image-keyboard-response","29","324776","0.0-3.0-4.0-1.0-1.5","65ebb614d2f7accb27486117","6662009ae78f21dd82fcd179","66620a0829f6b2e5fd822b60","null","","null","","","","","","","","./tasks/HMM-beads/Images/BlackBeadChoice.png","","","","","","","","","",""
"image-keyboard-response","30","325279","0.0-3.0-4.0-1.0-2.5","65ebb614d2f7accb27486117","6662009ae78f21dd82fcd179","66620a0829f6b2e5fd822b60","null","","null","","","","","","","","./tasks/HMM-beads/Images/BlackBeadChoiceWrong.png","","","","","","","","","",""
"image-keyboard-response","31","326727","0.0-3.0-4.0-1.0-0.6","65ebb614d2f7accb27486117","6662009ae78f21dd82fcd179","66620a0829f6b2e5fd822b60","1446","","f","","","","","","","","./tasks/HMM-beads/Images/NewTrialWC.png","practice","0","6","0","0","1","0","true","",""
"image-keyboard-response","32","327031","0.0-3.0-4.0-1.0-1.6","65ebb614d2f7accb27486117","6662009ae78f21dd82fcd179","66620a0829f6b2e5fd822b60","null","","null","","","","","","","","./tasks/HMM-beads/Images/BlackBeadChoice.png","","","","","","","","","",""
"image-keyboard-response","33","327534","0.0-3.0-4.0-1.0-2.6","65ebb614d2f7accb27486117","6662009ae78f21dd82fcd179","66620a0829f6b2e5fd822b60","null","","null","","","","","","","","./tasks/HMM-beads/Images/BlackBeadChoiceCorrect.png","","","","","","","","","",""
"image-keyboard-response","34","329825","0.0-3.0-4.0-1.0-0.7","65ebb614d2f7accb27486117","6662009ae78f21dd82fcd179","66620a0829f6b2e5fd822b60","2289","","f","","","","","","","","./tasks/HMM-beads/Images/NewTrialBC.png","practice","0","7","0","0","0","0","true","",""
"image-keyboard-response","35","330129","0.0-3.0-4.0-1.0-1.7","65ebb614d2f7accb27486117","6662009ae78f21dd82fcd179","66620a0829f6b2e5fd822b60","null","","null","","","","","","","","./tasks/HMM-beads/Images/BlackBeadChoice.png","","","","","","","","","",""
"image-keyboard-response","36","330633","0.0-3.0-4.0-1.0-2.7","65ebb614d2f7accb27486117","6662009ae78f21dd82fcd179","66620a0829f6b2e5fd822b60","null","","null","","","","","","","","./tasks/HMM-beads/Images/BlackBeadChoiceCorrect.png","","","","","","","","","",""
"image-keyboard-response","37","331825","0.0-3.0-4.0-1.0-0.8","65ebb614d2f7accb27486117","6662009ae78f21dd82fcd179","66620a0829f6b2e5fd822b60","1189","","f","","","","","","","","./tasks/HMM-beads/Images/NewTrialBC.png","practice","0","8","0","0","0","0","true","",""
"image-keyboard-response","38","332128","0.0-3.0-4.0-1.0-1.8","65ebb614d2f7accb27486117","6662009ae78f21dd82fcd179","66620a0829f6b2e5fd822b60","null","","null","","","","","","","","./tasks/HMM-beads/Images/BlackBeadChoice.png","","","","","","","","","",""
"image-keyboard-response","39","332632","0.0-3.0-4.0-1.0-2.8","65ebb614d2f7accb27486117","6662009ae78f21dd82fcd179","66620a0829f6b2e5fd822b60","null","","null","","","","","","","","./tasks/HMM-beads/Images/BlackBeadChoiceCorrect.png","","","","","","","","","",""
"image-keyboard-response","40","333522","0.0-3.0-4.0-1.0-0.9","65ebb614d2f7accb27486117","6662009ae78f21dd82fcd179","66620a0829f6b2e5fd822b60","888","","f","","","","","","","","./tasks/HMM-beads/Images/NewTrialBC.png","practice","0","9","0","1","0","0","false","",""
"image-keyboard-response","41","333826","0.0-3.0-4.0-1.0-1.9","65ebb614d2f7accb27486117","6662009ae78f21dd82fcd179","66620a0829f6b2e5fd822b60","null","","null","","","","","","","","./tasks/HMM-beads/Images/BlackBeadChoice.png","","","","","","","","","",""
"image-keyboard-response","42","334329","0.0-3.0-4.0-1.0-2.9","65ebb614d2f7accb27486117","6662009ae78f21dd82fcd179","66620a0829f6b2e5fd822b60","null","","null","","","","","","","","./tasks/HMM-beads/Images/BlackBeadChoiceWrong.png","","","","","","","","","",""
"image-keyboard-response","43","334899","0.0-3.0-4.0-1.0-0.10","65ebb614d2f7accb27486117","6662009ae78f21dd82fcd179","66620a0829f6b2e5fd822b60","567","","f","","","","","","","","./tasks/HMM-beads/Images/NewTrialWC.png","practice","0","10","0","0","1","0","true","",""
"image-keyboard-response","44","335203","0.0-3.0-4.0-1.0-1.10","65ebb614d2f7accb27486117","6662009ae78f21dd82fcd179","66620a0829f6b2e5fd822b60","null","","null","","","","","","","","./tasks/HMM-beads/Images/BlackBeadChoice.png","","","","","","","","","",""
"image-keyboard-response","45","335706","0.0-3.0-4.0-1.0-2.10","65ebb614d2f7accb27486117","6662009ae78f21dd82fcd179","66620a0829f6b2e5fd822b60","null","","null","","","","","","","","./tasks/HMM-beads/Images/BlackBeadChoiceCorrect.png","","","","","","","","","",""
"image-keyboard-response","46","336167","0.0-3.0-4.0-1.0-0.11","65ebb614d2f7accb27486117","6662009ae78f21dd82fcd179","66620a0829f6b2e5fd822b60","458","","f","","","","","","","","./tasks/HMM-beads/Images/NewTrialBC.png","practice","0","11","0","1","0","0","false","",""
"image-keyboard-response","47","336470","0.0-3.0-4.0-1.0-1.11","65ebb614d2f7accb27486117","6662009ae78f21dd82fcd179","66620a0829f6b2e5fd822b60","null","","null","","","","","","","","./tasks/HMM-beads/Images/BlackBeadChoice.png","","","","","","","","","",""
"image-keyboard-response","48","336973","0.0-3.0-4.0-1.0-2.11","65ebb614d2f7accb27486117","6662009ae78f21dd82fcd179","66620a0829f6b2e5fd822b60","null","","null","","","","","","","","./tasks/HMM-beads/Images/BlackBeadChoiceWrong.png","","","","","","","","","",""
"image-keyboard-response","49","341019","0.0-3.0-4.0-1.0-0.12","65ebb614d2f7accb27486117","6662009ae78f21dd82fcd179","66620a0829f6b2e5fd822b60","4044","","j","","","","","","","","./tasks/HMM-beads/Images/NewTrialWC.png","practice","0","12","0","0","1","1","false","",""
"image-keyboard-response","50","341322","0.0-3.0-4.0-1.0-1.12","65ebb614d2f7accb27486117","6662009ae78f21dd82fcd179","66620a0829f6b2e5fd822b60","null","","null","","","","","","","","./tasks/HMM-beads/Images/WhiteBeadChoice.png","","","","","","","","","",""
"image-keyboard-response","51","341825","0.0-3.0-4.0-1.0-2.12","65ebb614d2f7accb27486117","6662009ae78f21dd82fcd179","66620a0829f6b2e5fd822b60","null","","null","","","","","","","","./tasks/HMM-beads/Images/WhiteBeadChoiceWrong.png","","","","","","","","","",""
"image-keyboard-response","52","342766","0.0-3.0-4.0-1.0-0.13","65ebb614d2f7accb27486117","6662009ae78f21dd82fcd179","66620a0829f6b2e5fd822b60","939","","f","","","","","","","","./tasks/HMM-beads/Images/NewTrialBC.png","practice","0","13","0","0","0","0","true","",""
"image-keyboard-response","53","343069","0.0-3.0-4.0-1.0-1.13","65ebb614d2f7accb27486117","6662009ae78f21dd82fcd179","66620a0829f6b2e5fd822b60","null","","null","","","","","","","","./tasks/HMM-beads/Images/BlackBeadChoice.png","","","","","","","","","",""
"image-keyboard-response","54","343573","0.0-3.0-4.0-1.0-2.13","65ebb614d2f7accb27486117","6662009ae78f21dd82fcd179","66620a0829f6b2e5fd822b60","null","","null","","","","","","","","./tasks/HMM-beads/Images/BlackBeadChoiceCorrect.png","","","","","","","","","",""
"image-keyboard-response","55","344390","0.0-3.0-4.0-1.0-0.14","65ebb614d2f7accb27486117","6662009ae78f21dd82fcd179","66620a0829f6b2e5fd822b60","814","","f","","","","","","","","./tasks/HMM-beads/Images/NewTrialBC.png","practice","0","14","0","0","0","0","true","",""
"image-keyboard-response","56","344694","0.0-3.0-4.0-1.0-1.14","65ebb614d2f7accb27486117","6662009ae78f21dd82fcd179","66620a0829f6b2e5fd822b60","null","","null","","","","","","","","./tasks/HMM-beads/Images/BlackBeadChoice.png","","","","","","","","","",""
"image-keyboard-response","57","345197","0.0-3.0-4.0-1.0-2.14","65ebb614d2f7accb27486117","6662009ae78f21dd82fcd179","66620a0829f6b2e5fd822b60","null","","null","","","","","","","","./tasks/HMM-beads/Images/BlackBeadChoiceCorrect.png","","","","","","","","","",""
"image-keyboard-response","58","348439","0.0-3.0-4.0-1.0-0.15","65ebb614d2f7accb27486117","6662009ae78f21dd82fcd179","66620a0829f6b2e5fd822b60","3240","","f","","","","","","","","./tasks/HMM-beads/Images/NewTrialBC.png","practice","0","15","0","0","0","0","true","",""
"image-keyboard-response","59","348743","0.0-3.0-4.0-1.0-1.15","65ebb614d2f7accb27486117","6662009ae78f21dd82fcd179","66620a0829f6b2e5fd822b60","null","","null","","","","","","","","./tasks/HMM-beads/Images/BlackBeadChoice.png","","","","","","","","","",""
"image-keyboard-response","60","349247","0.0-3.0-4.0-1.0-2.15","65ebb614d2f7accb27486117","6662009ae78f21dd82fcd179","66620a0829f6b2e5fd822b60","null","","null","","","","","","","","./tasks/HMM-beads/Images/BlackBeadChoiceCorrect.png","","","","","","","","","",""
"image-keyboard-response","61","349971","0.0-3.0-4.0-1.0-0.16","65ebb614d2f7accb27486117","6662009ae78f21dd82fcd179","66620a0829f6b2e5fd822b60","721","","f","","","","","","","","./tasks/HMM-beads/Images/NewTrialBC.png","practice","0","16","0","0","0","0","true","",""
"image-keyboard-response","62","350273","0.0-3.0-4.0-1.0-1.16","65ebb614d2f7accb27486117","6662009ae78f21dd82fcd179","66620a0829f6b2e5fd822b60","null","","null","","","","","","","","./tasks/HMM-beads/Images/BlackBeadChoice.png","","","","","","","","","",""
"image-keyboard-response","63","350777","0.0-3.0-4.0-1.0-2.16","65ebb614d2f7accb27486117","6662009ae78f21dd82fcd179","66620a0829f6b2e5fd822b60","null","","null","","","","","","","","./tasks/HMM-beads/Images/BlackBeadChoiceCorrect.png","","","","","","","","","",""
"image-keyboard-response","64","351959","0.0-3.0-4.0-1.0-0.17","65ebb614d2f7accb27486117","6662009ae78f21dd82fcd179","66620a0829f6b2e5fd822b60","1179","","f","","","","","","","","./tasks/HMM-beads/Images/NewTrialBC.png","practice","0","17","0","0","0","0","true","",""
"image-keyboard-response","65","352261","0.0-3.0-4.0-1.0-1.17","65ebb614d2f7accb27486117","6662009ae78f21dd82fcd179","66620a0829f6b2e5fd822b60","null","","null","","","","","","","","./tasks/HMM-beads/Images/BlackBeadChoice.png","","","","","","","","","",""
"image-keyboard-response","66","352765","0.0-3.0-4.0-1.0-2.17","65ebb614d2f7accb27486117","6662009ae78f21dd82fcd179","66620a0829f6b2e5fd822b60","null","","null","","","","","","","","./tasks/HMM-beads/Images/BlackBeadChoiceCorrect.png","","","","","","","","","",""
"image-keyboard-response","67","353604","0.0-3.0-4.0-1.0-0.18","65ebb614d2f7accb27486117","6662009ae78f21dd82fcd179","66620a0829f6b2e5fd822b60","838","","f","","","","","","","","./tasks/HMM-beads/Images/NewTrialBC.png","practice","0","18","0","1","0","0","false","",""
"image-keyboard-response","68","353908","0.0-3.0-4.0-1.0-1.18","65ebb614d2f7accb27486117","6662009ae78f21dd82fcd179","66620a0829f6b2e5fd822b60","null","","null","","","","","","","","./tasks/HMM-beads/Images/BlackBeadChoice.png","","","","","","","","","",""
"image-keyboard-response","69","354411","0.0-3.0-4.0-1.0-2.18","65ebb614d2f7accb27486117","6662009ae78f21dd82fcd179","66620a0829f6b2e5fd822b60","null","","null","","","","","","","","./tasks/HMM-beads/Images/BlackBeadChoiceWrong.png","","","","","","","","","",""
"image-keyboard-response","70","355489","0.0-3.0-4.0-1.0-0.19","65ebb614d2f7accb27486117","6662009ae78f21dd82fcd179","66620a0829f6b2e5fd822b60","1076","","f","","","","","","","","./tasks/HMM-beads/Images/NewTrialWC.png","practice","0","19","0","0","1","0","true","",""
"image-keyboard-response","71","355793","0.0-3.0-4.0-1.0-1.19","65ebb614d2f7accb27486117","6662009ae78f21dd82fcd179","66620a0829f6b2e5fd822b60","null","","null","","","","","","","","./tasks/HMM-beads/Images/BlackBeadChoice.png","","","","","","","","","",""
"image-keyboard-response","72","356296","0.0-3.0-4.0-1.0-2.19","65ebb614d2f7accb27486117","6662009ae78f21dd82fcd179","66620a0829f6b2e5fd822b60","null","","null","","","","","","","","./tasks/HMM-beads/Images/BlackBeadChoiceCorrect.png","","","","","","","","","",""
"image-keyboard-response","73","357141","0.0-3.0-4.0-1.0-0.20","65ebb614d2f7accb27486117","6662009ae78f21dd82fcd179","66620a0829f6b2e5fd822b60","842","","f","","","","","","","","./tasks/HMM-beads/Images/NewTrialBC.png","practice","0","20","0","0","0","0","true","",""
"image-keyboard-response","74","357444","0.0-3.0-4.0-1.0-1.20","65ebb614d2f7accb27486117","6662009ae78f21dd82fcd179","66620a0829f6b2e5fd822b60","null","","null","","","","","","","","./tasks/HMM-beads/Images/BlackBeadChoice.png","","","","","","","","","",""
"image-keyboard-response","75","357947","0.0-3.0-4.0-1.0-2.20","65ebb614d2f7accb27486117","6662009ae78f21dd82fcd179","66620a0829f6b2e5fd822b60","null","","null","","","","","","","","./tasks/HMM-beads/Images/BlackBeadChoiceCorrect.png","","","","","","","","","",""
"image-keyboard-response","76","358798","0.0-3.0-4.0-1.0-0.21","65ebb614d2f7accb27486117","6662009ae78f21dd82fcd179","66620a0829f6b2e5fd822b60","849","","f","","","","","","","","./tasks/HMM-beads/Images/NewTrialBC.png","practice","0","21","0","1","0","0","false","",""
"image-keyboard-response","77","359101","0.0-3.0-4.0-1.0-1.21","65ebb614d2f7accb27486117","6662009ae78f21dd82fcd179","66620a0829f6b2e5fd822b60","null","","null","","","","","","","","./tasks/HMM-beads/Images/BlackBeadChoice.png","","","","","","","","","",""
"image-keyboard-response","78","359604","0.0-3.0-4.0-1.0-2.21","65ebb614d2f7accb27486117","6662009ae78f21dd82fcd179","66620a0829f6b2e5fd822b60","null","","null","","","","","","","","./tasks/HMM-beads/Images/BlackBeadChoiceWrong.png","","","","","","","","","",""
"image-keyboard-response","79","360654","0.0-3.0-4.0-1.0-0.22","65ebb614d2f7accb27486117","6662009ae78f21dd82fcd179","66620a0829f6b2e5fd822b60","1047","","f","","","","","","","","./tasks/HMM-beads/Images/NewTrialWC.png","practice","0","22","1","1","1","0","false","",""
"image-keyboard-response","80","360957","0.0-3.0-4.0-1.0-1.22","65ebb614d2f7accb27486117","6662009ae78f21dd82fcd179","66620a0829f6b2e5fd822b60","null","","null","","","","","","","","./tasks/HMM-beads/Images/BlackBeadChoice.png","","","","","","","","","",""
"image-keyboard-response","81","361460","0.0-3.0-4.0-1.0-2.22","65ebb614d2f7accb27486117","6662009ae78f21dd82fcd179","66620a0829f6b2e5fd822b60","null","","null","","","","","","","","./tasks/HMM-beads/Images/BlackBeadChoiceWrong.png","","","","","","","","","",""
"image-keyboard-response","82","361858","0.0-3.0-4.0-1.0-0.23","65ebb614d2f7accb27486117","6662009ae78f21dd82fcd179","66620a0829f6b2e5fd822b60","396","","j","","","","","","","","./tasks/HMM-beads/Images/NewTrialWC.png","practice","0","23","1","0","1","1","false","",""
"image-keyboard-response","83","362161","0.0-3.0-4.0-1.0-1.23","65ebb614d2f7accb27486117","6662009ae78f21dd82fcd179","66620a0829f6b2e5fd822b60","null","","null","","","","","","","","./tasks/HMM-beads/Images/WhiteBeadChoice.png","","","","","","","","","",""
"image-keyboard-response","84","362665","0.0-3.0-4.0-1.0-2.23","65ebb614d2f7accb27486117","6662009ae78f21dd82fcd179","66620a0829f6b2e5fd822b60","null","","null","","","","","","","","./tasks/HMM-beads/Images/WhiteBeadChoiceWrong.png","","","","","","","","","",""
"image-keyboard-response","85","363185","0.0-3.0-4.0-1.0-0.24","65ebb614d2f7accb27486117","6662009ae78f21dd82fcd179","66620a0829f6b2e5fd822b60","517","","f","","","","","","","","./tasks/HMM-beads/Images/NewTrialBC.png","practice","0","24","1","1","0","0","false","",""
"image-keyboard-response","86","363488","0.0-3.0-4.0-1.0-1.24","65ebb614d2f7accb27486117","6662009ae78f21dd82fcd179","66620a0829f6b2e5fd822b60","null","","null","","","","","","","","./tasks/HMM-beads/Images/BlackBeadChoice.png","","","","","","","","","",""
"image-keyboard-response","87","363990","0.0-3.0-4.0-1.0-2.24","65ebb614d2f7accb27486117","6662009ae78f21dd82fcd179","66620a0829f6b2e5fd822b60","null","","null","","","","","","","","./tasks/HMM-beads/Images/BlackBeadChoiceWrong.png","","","","","","","","","",""
"image-keyboard-response","88","367712","0.0-3.0-4.0-1.0-0.25","65ebb614d2f7accb27486117","6662009ae78f21dd82fcd179","66620a0829f6b2e5fd822b60","3720","","f","","","","","","","","./tasks/HMM-beads/Images/NewTrialWC.png","practice","0","25","1","1","1","0","false","",""
"image-keyboard-response","89","368016","0.0-3.0-4.0-1.0-1.25","65ebb614d2f7accb27486117","6662009ae78f21dd82fcd179","66620a0829f6b2e5fd822b60","null","","null","","","","","","","","./tasks/HMM-beads/Images/BlackBeadChoice.png","","","","","","","","","",""
"image-keyboard-response","90","368520","0.0-3.0-4.0-1.0-2.25","65ebb614d2f7accb27486117","6662009ae78f21dd82fcd179","66620a0829f6b2e5fd822b60","null","","null","","","","","","","","./tasks/HMM-beads/Images/BlackBeadChoiceWrong.png","","","","","","","","","",""
"image-keyboard-response","91","368740","0.0-3.0-4.0-1.0-0.26","65ebb614d2f7accb27486117","6662009ae78f21dd82fcd179","66620a0829f6b2e5fd822b60","218","","j","","","","","","","","./tasks/HMM-beads/Images/NewTrialWC.png","practice","0","26","1","1","1","1","true","",""
"image-keyboard-response","92","369043","0.0-3.0-4.0-1.0-1.26","65ebb614d2f7accb27486117","6662009ae78f21dd82fcd179","66620a0829f6b2e5fd822b60","null","","null","","","","","","","","./tasks/HMM-beads/Images/WhiteBeadChoice.png","","","","","","","","","",""
"image-keyboard-response","93","369557","0.0-3.0-4.0-1.0-2.26","65ebb614d2f7accb27486117","6662009ae78f21dd82fcd179","66620a0829f6b2e5fd822b60","null","","null","","","","","","","","./tasks/HMM-beads/Images/WhiteBeadChoiceCorrect.png","","","","","","","","","",""
"image-keyboard-response","94","370292","0.0-3.0-4.0-1.0-0.27","65ebb614d2f7accb27486117","6662009ae78f21dd82fcd179","66620a0829f6b2e5fd822b60","733","","j","","","","","","","","./tasks/HMM-beads/Images/NewTrialWC.png","practice","0","27","1","1","1","1","true","",""
"image-keyboard-response","95","370595","0.0-3.0-4.0-1.0-1.27","65ebb614d2f7accb27486117","6662009ae78f21dd82fcd179","66620a0829f6b2e5fd822b60","null","","null","","","","","","","","./tasks/HMM-beads/Images/WhiteBeadChoice.png","","","","","","","","","",""
"image-keyboard-response","96","371099","0.0-3.0-4.0-1.0-2.27","65ebb614d2f7accb27486117","6662009ae78f21dd82fcd179","66620a0829f6b2e5fd822b60","null","","null","","","","","","","","./tasks/HMM-beads/Images/WhiteBeadChoiceCorrect.png","","","","","","","","","",""
"image-keyboard-response","97","372142","0.0-3.0-4.0-1.0-0.28","65ebb614d2f7accb27486117","6662009ae78f21dd82fcd179","66620a0829f6b2e5fd822b60","1041","","j","","","","","","","","./tasks/HMM-beads/Images/NewTrialWC.png","practice","0","28","1","0","1","1","false","",""
"image-keyboard-response","98","372445","0.0-3.0-4.0-1.0-1.28","65ebb614d2f7accb27486117","6662009ae78f21dd82fcd179","66620a0829f6b2e5fd822b60","null","","null","","","","","","","","./tasks/HMM-beads/Images/WhiteBeadChoice.png","","","","","","","","","",""
"image-keyboard-response","99","372948","0.0-3.0-4.0-1.0-2.28","65ebb614d2f7accb27486117","6662009ae78f21dd82fcd179","66620a0829f6b2e5fd822b60","null","","null","","","","","","","","./tasks/HMM-beads/Images/WhiteBeadChoiceWrong.png","","","","","","","","","",""
"image-keyboard-response","100","374325","0.0-3.0-4.0-1.0-0.29","65ebb614d2f7accb27486117","6662009ae78f21dd82fcd179","66620a0829f6b2e5fd822b60","1375","","j","","","","","","","","./tasks/HMM-beads/Images/NewTrialBC.png","practice","0","29","1","1","0","1","true","",""
"image-keyboard-response","101","374628","0.0-3.0-4.0-1.0-1.29","65ebb614d2f7accb27486117","6662009ae78f21dd82fcd179","66620a0829f6b2e5fd822b60","null","","null","","","","","","","","./tasks/HMM-beads/Images/WhiteBeadChoice.png","","","","","","","","","",""
"image-keyboard-response","102","375132","0.0-3.0-4.0-1.0-2.29","65ebb614d2f7accb27486117","6662009ae78f21dd82fcd179","66620a0829f6b2e5fd822b60","null","","null","","","","","","","","./tasks/HMM-beads/Images/WhiteBeadChoiceCorrect.png","","","","","","","","","",""
"image-keyboard-response","103","375816","0.0-3.0-4.0-1.0-0.30","65ebb614d2f7accb27486117","6662009ae78f21dd82fcd179","66620a0829f6b2e5fd822b60","682","","j","","","","","","","","./tasks/HMM-beads/Images/NewTrialWC.png","practice","0","30","1","0","1","1","false","",""
"image-keyboard-response","104","376120","0.0-3.0-4.0-1.0-1.30","65ebb614d2f7accb27486117","6662009ae78f21dd82fcd179","66620a0829f6b2e5fd822b60","null","","null","","","","","","","","./tasks/HMM-beads/Images/WhiteBeadChoice.png","","","","","","","","","",""
"image-keyboard-response","105","376623","0.0-3.0-4.0-1.0-2.30","65ebb614d2f7accb27486117","6662009ae78f21dd82fcd179","66620a0829f6b2e5fd822b60","null","","null","","","","","","","","./tasks/HMM-beads/Images/WhiteBeadChoiceWrong.png","","","","","","","","","",""
"image-keyboard-response","106","378381","0.0-3.0-4.0-1.0-0.31","65ebb614d2f7accb27486117","6662009ae78f21dd82fcd179","66620a0829f6b2e5fd822b60","1755","","j","","","","","","","","./tasks/HMM-beads/Images/NewTrialBC.png","practice","0","31","1","1","0","1","true","",""
"image-keyboard-response","107","378683","0.0-3.0-4.0-1.0-1.31","65ebb614d2f7accb27486117","6662009ae78f21dd82fcd179","66620a0829f6b2e5fd822b60","null","","null","","","","","","","","./tasks/HMM-beads/Images/WhiteBeadChoice.png","","","","","","","","","",""
"image-keyboard-response","108","379187","0.0-3.0-4.0-1.0-2.31","65ebb614d2f7accb27486117","6662009ae78f21dd82fcd179","66620a0829f6b2e5fd822b60","null","","null","","","","","","","","./tasks/HMM-beads/Images/WhiteBeadChoiceCorrect.png","","","","","","","","","",""
"image-keyboard-response","109","379714","0.0-3.0-4.0-1.0-0.32","65ebb614d2f7accb27486117","6662009ae78f21dd82fcd179","66620a0829f6b2e5fd822b60","526","","j","","","","","","","","./tasks/HMM-beads/Images/NewTrialWC.png","practice","0","32","1","1","1","1","true","",""
"image-keyboard-response","110","380017","0.0-3.0-4.0-1.0-1.32","65ebb614d2f7accb27486117","6662009ae78f21dd82fcd179","66620a0829f6b2e5fd822b60","null","","null","","","","","","","","./tasks/HMM-beads/Images/WhiteBeadChoice.png","","","","","","","","","",""
"image-keyboard-response","111","380521","0.0-3.0-4.0-1.0-2.32","65ebb614d2f7accb27486117","6662009ae78f21dd82fcd179","66620a0829f6b2e5fd822b60","null","","null","","","","","","","","./tasks/HMM-beads/Images/WhiteBeadChoiceCorrect.png","","","","","","","","","",""
"image-keyboard-response","112","381198","0.0-3.0-4.0-1.0-0.33","65ebb614d2f7accb27486117","6662009ae78f21dd82fcd179","66620a0829f6b2e5fd822b60","676","","j","","","","","","","","./tasks/HMM-beads/Images/NewTrialWC.png","practice","0","33","1","1","1","1","true","",""
"image-keyboard-response","113","381501","0.0-3.0-4.0-1.0-1.33","65ebb614d2f7accb27486117","6662009ae78f21dd82fcd179","66620a0829f6b2e5fd822b60","null","","null","","","","","","","","./tasks/HMM-beads/Images/WhiteBeadChoice.png","","","","","","","","","",""
"image-keyboard-response","114","382004","0.0-3.0-4.0-1.0-2.33","65ebb614d2f7accb27486117","6662009ae78f21dd82fcd179","66620a0829f6b2e5fd822b60","null","","null","","","","","","","","./tasks/HMM-beads/Images/WhiteBeadChoiceCorrect.png","","","","","","","","","",""
"image-keyboard-response","115","382892","0.0-3.0-4.0-1.0-0.34","65ebb614d2f7accb27486117","6662009ae78f21dd82fcd179","66620a0829f6b2e5fd822b60","886","","j","","","","","","","","./tasks/HMM-beads/Images/NewTrialWC.png","practice","0","34","1","1","1","1","true","",""
"image-keyboard-response","116","383195","0.0-3.0-4.0-1.0-1.34","65ebb614d2f7accb27486117","6662009ae78f21dd82fcd179","66620a0829f6b2e5fd822b60","null","","null","","","","","","","","./tasks/HMM-beads/Images/WhiteBeadChoice.png","","","","","","","","","",""
"image-keyboard-response","117","383698","0.0-3.0-4.0-1.0-2.34","65ebb614d2f7accb27486117","6662009ae78f21dd82fcd179","66620a0829f6b2e5fd822b60","null","","null","","","","","","","","./tasks/HMM-beads/Images/WhiteBeadChoiceCorrect.png","","","","","","","","","",""
"image-keyboard-response","118","384464","0.0-3.0-4.0-1.0-0.35","65ebb614d2f7accb27486117","6662009ae78f21dd82fcd179","66620a0829f6b2e5fd822b60","764","","j","","","","","","","","./tasks/HMM-beads/Images/NewTrialWC.png","practice","0","35","1","1","1","1","true","",""
"image-keyboard-response","119","384768","0.0-3.0-4.0-1.0-1.35","65ebb614d2f7accb27486117","6662009ae78f21dd82fcd179","66620a0829f6b2e5fd822b60","null","","null","","","","","","","","./tasks/HMM-beads/Images/WhiteBeadChoice.png","","","","","","","","","",""
"image-keyboard-response","120","385272","0.0-3.0-4.0-1.0-2.35","65ebb614d2f7accb27486117","6662009ae78f21dd82fcd179","66620a0829f6b2e5fd822b60","null","","null","","","","","","","","./tasks/HMM-beads/Images/WhiteBeadChoiceCorrect.png","","","","","","","","","",""
"image-keyboard-response","121","386236","0.0-3.0-4.0-1.0-0.36","65ebb614d2f7accb27486117","6662009ae78f21dd82fcd179","66620a0829f6b2e5fd822b60","961","","j","","","","","","","","./tasks/HMM-beads/Images/NewTrialWC.png","practice","0","36","1","0","1","1","false","",""
"image-keyboard-response","122","386539","0.0-3.0-4.0-1.0-1.36","65ebb614d2f7accb27486117","6662009ae78f21dd82fcd179","66620a0829f6b2e5fd822b60","null","","null","","","","","","","","./tasks/HMM-beads/Images/WhiteBeadChoice.png","","","","","","","","","",""
"image-keyboard-response","123","387043","0.0-3.0-4.0-1.0-2.36","65ebb614d2f7accb27486117","6662009ae78f21dd82fcd179","66620a0829f6b2e5fd822b60","null","","null","","","","","","","","./tasks/HMM-beads/Images/WhiteBeadChoiceWrong.png","","","","","","","","","",""
"image-keyboard-response","124","388251","0.0-3.0-4.0-1.0-0.37","65ebb614d2f7accb27486117","6662009ae78f21dd82fcd179","66620a0829f6b2e5fd822b60","1206","","j","","","","","","","","./tasks/HMM-beads/Images/NewTrialBC.png","practice","0","37","1","1","0","1","true","",""
"image-keyboard-response","125","388554","0.0-3.0-4.0-1.0-1.37","65ebb614d2f7accb27486117","6662009ae78f21dd82fcd179","66620a0829f6b2e5fd822b60","null","","null","","","","","","","","./tasks/HMM-beads/Images/WhiteBeadChoice.png","","","","","","","","","",""
"image-keyboard-response","126","389057","0.0-3.0-4.0-1.0-2.37","65ebb614d2f7accb27486117","6662009ae78f21dd82fcd179","66620a0829f6b2e5fd822b60","null","","null","","","","","","","","./tasks/HMM-beads/Images/WhiteBeadChoiceCorrect.png","","","","","","","","","",""
"image-keyboard-response","127","389631","0.0-3.0-4.0-1.0-0.38","65ebb614d2f7accb27486117","6662009ae78f21dd82fcd179","66620a0829f6b2e5fd822b60","571","","j","","","","","","","","./tasks/HMM-beads/Images/NewTrialWC.png","practice","0","38","1","1","1","1","true","",""
"image-keyboard-response","128","389934","0.0-3.0-4.0-1.0-1.38","65ebb614d2f7accb27486117","6662009ae78f21dd82fcd179","66620a0829f6b2e5fd822b60","null","","null","","","","","","","","./tasks/HMM-beads/Images/WhiteBeadChoice.png","","","","","","","","","",""
"image-keyboard-response","129","390437","0.0-3.0-4.0-1.0-2.38","65ebb614d2f7accb27486117","6662009ae78f21dd82fcd179","66620a0829f6b2e5fd822b60","null","","null","","","","","","","","./tasks/HMM-beads/Images/WhiteBeadChoiceCorrect.png","","","","","","","","","",""
"image-keyboard-response","130","391100","0.0-3.0-4.0-1.0-0.39","65ebb614d2f7accb27486117","6662009ae78f21dd82fcd179","66620a0829f6b2e5fd822b60","660","","j","","","","","","","","./tasks/HMM-beads/Images/NewTrialWC.png","practice","0","39","1","1","1","1","true","",""
"image-keyboard-response","131","391403","0.0-3.0-4.0-1.0-1.39","65ebb614d2f7accb27486117","6662009ae78f21dd82fcd179","66620a0829f6b2e5fd822b60","null","","null","","","","","","","","./tasks/HMM-beads/Images/WhiteBeadChoice.png","","","","","","","","","",""
"image-keyboard-response","132","391906","0.0-3.0-4.0-1.0-2.39","65ebb614d2f7accb27486117","6662009ae78f21dd82fcd179","66620a0829f6b2e5fd822b60","null","","null","","","","","","","","./tasks/HMM-beads/Images/WhiteBeadChoiceCorrect.png","","","","","","","","","",""
"html-keyboard-response","133","399801","0.0-3.0-4.0-2.0","65ebb614d2f7accb27486117","6662009ae78f21dd82fcd179","66620a0829f6b2e5fd822b60","7893",""," ","","","","","","","","","","","","","","","","","",""
"instructions","134","415110","0.0-3.0-5.0","65ebb614d2f7accb27486117","6662009ae78f21dd82fcd179","66620a0829f6b2e5fd822b60","15307","","","","[{""page_index"":0,""viewing_time"":12642},{""page_index"":1,""viewing_time"":2665}]","","","","","","","","","","","","","","","",""
"html-keyboard-response","135","420516","0.0-3.0-6.0-0.0","65ebb614d2f7accb27486117","6662009ae78f21dd82fcd179","66620a0829f6b2e5fd822b60","5406",""," ","","","","","","","","<div align=center>In this block, there will be a <b>1% chance</b> that the jar on the next trial will be different from the jar on the current trial.<br><br></div>","","","","","","","","","",""
"image-keyboard-response","136","424299","0.0-3.0-6.0-1.0-0.0","65ebb614d2f7accb27486117","6662009ae78f21dd82fcd179","66620a0829f6b2e5fd822b60","3782","","f","","","","","","","","./tasks/HMM-beads/Images/NoChoice.png","lowH","1","0","1","0","9","0","true","",""
"image-keyboard-response","137","424602","0.0-3.0-6.0-1.0-1.0","65ebb614d2f7accb27486117","6662009ae78f21dd82fcd179","66620a0829f6b2e5fd822b60","null","","null","","","","","","","","./tasks/HMM-beads/Images/BlackBeadChoice.png","","","","","","","","","",""
"image-keyboard-response","138","425105","0.0-3.0-6.0-1.0-2.0","65ebb614d2f7accb27486117","6662009ae78f21dd82fcd179","66620a0829f6b2e5fd822b60","null","","null","","","","","","","","./tasks/HMM-beads/Images/BlackBeadChoiceCorrect.png","","","","","","","","","",""
"image-keyboard-response","139","426535","0.0-3.0-6.0-1.0-0.1","65ebb614d2f7accb27486117","6662009ae78f21dd82fcd179","66620a0829f6b2e5fd822b60","1428","","f","","","","","","","","./tasks/HMM-beads/Images/NewTrialBC.png","lowH","1","1","1","1","0","0","false","",""
"image-keyboard-response","140","426838","0.0-3.0-6.0-1.0-1.1","65ebb614d2f7accb27486117","6662009ae78f21dd82fcd179","66620a0829f6b2e5fd822b60","null","","null","","","","","","","","./tasks/HMM-beads/Images/BlackBeadChoice.png","","","","","","","","","",""
"image-keyboard-response","141","427340","0.0-3.0-6.0-1.0-2.1","65ebb614d2f7accb27486117","6662009ae78f21dd82fcd179","66620a0829f6b2e5fd822b60","null","","null","","","","","","","","./tasks/HMM-beads/Images/BlackBeadChoiceWrong.png","","","","","","","","","",""
"image-keyboard-response","142","428217","0.0-3.0-6.0-1.0-0.2","65ebb614d2f7accb27486117","6662009ae78f21dd82fcd179","66620a0829f6b2e5fd822b60","874","","f","","","","","","","","./tasks/HMM-beads/Images/NewTrialWC.png","lowH","1","2","1","1","1","0","false","",""
"image-keyboard-response","143","428520","0.0-3.0-6.0-1.0-1.2","65ebb614d2f7accb27486117","6662009ae78f21dd82fcd179","66620a0829f6b2e5fd822b60","null","","null","","","","","","","","./tasks/HMM-beads/Images/BlackBeadChoice.png","","","","","","","","","",""
"image-keyboard-response","144","429023","0.0-3.0-6.0-1.0-2.2","65ebb614d2f7accb27486117","6662009ae78f21dd82fcd179","66620a0829f6b2e5fd822b60","null","","null","","","","","","","","./tasks/HMM-beads/Images/BlackBeadChoiceWrong.png","","","","","","","","","",""
"image-keyboard-response","145","430216","0.0-3.0-6.0-1.0-0.3","65ebb614d2f7accb27486117","6662009ae78f21dd82fcd179","66620a0829f6b2e5fd822b60","1192","","j","","","","","","","","./tasks/HMM-beads/Images/NewTrialWC.png","lowH","1","3","1","1","1","1","true","",""
"image-keyboard-response","146","430519","0.0-3.0-6.0-1.0-1.3","65ebb614d2f7accb27486117","6662009ae78f21dd82fcd179","66620a0829f6b2e5fd822b60","null","","null","","","","","","","","./tasks/HMM-beads/Images/WhiteBeadChoice.png","","","","","","","","","",""
"image-keyboard-response","147","431025","0.0-3.0-6.0-1.0-2.3","65ebb614d2f7accb27486117","6662009ae78f21dd82fcd179","66620a0829f6b2e5fd822b60","null","","null","","","","","","","","./tasks/HMM-beads/Images/WhiteBeadChoiceCorrect.png","","","","","","","","","",""
"image-keyboard-response","148","431772","0.0-3.0-6.0-1.0-0.4","65ebb614d2f7accb27486117","6662009ae78f21dd82fcd179","66620a0829f6b2e5fd822b60","745","","j","","","","","","","","./tasks/HMM-beads/Images/NewTrialWC.png","lowH","1","4","1","1","1","1","true","",""
"image-keyboard-response","149","432076","0.0-3.0-6.0-1.0-1.4","65ebb614d2f7accb27486117","6662009ae78f21dd82fcd179","66620a0829f6b2e5fd822b60","null","","null","","","","","","","","./tasks/HMM-beads/Images/WhiteBeadChoice.png","","","","","","","","","",""
"image-keyboard-response","150","432579","0.0-3.0-6.0-1.0-2.4","65ebb614d2f7accb27486117","6662009ae78f21dd82fcd179","66620a0829f6b2e5fd822b60","null","","null","","","","","","","","./tasks/HMM-beads/Images/WhiteBeadChoiceCorrect.png","","","","","","","","","",""
"image-keyboard-response","151","433272","0.0-3.0-6.0-1.0-0.5","65ebb614d2f7accb27486117","6662009ae78f21dd82fcd179","66620a0829f6b2e5fd822b60","691","","j","","","","","","","","./tasks/HMM-beads/Images/NewTrialWC.png","lowH","1","5","1","1","1","1","true","",""
"image-keyboard-response","152","433576","0.0-3.0-6.0-1.0-1.5","65ebb614d2f7accb27486117","6662009ae78f21dd82fcd179","66620a0829f6b2e5fd822b60","null","","null","","","","","","","","./tasks/HMM-beads/Images/WhiteBeadChoice.png","","","","","","","","","",""
"image-keyboard-response","153","434078","0.0-3.0-6.0-1.0-2.5","65ebb614d2f7accb27486117","6662009ae78f21dd82fcd179","66620a0829f6b2e5fd822b60","null","","null","","","","","","","","./tasks/HMM-beads/Images/WhiteBeadChoiceCorrect.png","","","","","","","","","",""
"image-keyboard-response","154","435003","0.0-3.0-6.0-1.0-0.6","65ebb614d2f7accb27486117","6662009ae78f21dd82fcd179","66620a0829f6b2e5fd822b60","923","","j","","","","","","","","./tasks/HMM-beads/Images/NewTrialWC.png","lowH","1","6","1","0","1","1","false","",""
"image-keyboard-response","155","435307","0.0-3.0-6.0-1.0-1.6","65ebb614d2f7accb27486117","6662009ae78f21dd82fcd179","66620a0829f6b2e5fd822b60","null","","null","","","","","","","","./tasks/HMM-beads/Images/WhiteBeadChoice.png","","","","","","","","","",""
"image-keyboard-response","156","435810","0.0-3.0-6.0-1.0-2.6","65ebb614d2f7accb27486117","6662009ae78f21dd82fcd179","66620a0829f6b2e5fd822b60","null","","null","","","","","","","","./tasks/HMM-beads/Images/WhiteBeadChoiceWrong.png","","","","","","","","","",""
"image-keyboard-response","157","436711","0.0-3.0-6.0-1.0-0.7","65ebb614d2f7accb27486117","6662009ae78f21dd82fcd179","66620a0829f6b2e5fd822b60","899","","j","","","","","","","","./tasks/HMM-beads/Images/NewTrialBC.png","lowH","1","7","1","1","0","1","true","",""
"image-keyboard-response","158","437016","0.0-3.0-6.0-1.0-1.7","65ebb614d2f7accb27486117","6662009ae78f21dd82fcd179","66620a0829f6b2e5fd822b60","null","","null","","","","","","","","./tasks/HMM-beads/Images/WhiteBeadChoice.png","","","","","","","","","",""
"image-keyboard-response","159","437519","0.0-3.0-6.0-1.0-2.7","65ebb614d2f7accb27486117","6662009ae78f21dd82fcd179","66620a0829f6b2e5fd822b60","null","","null","","","","","","","","./tasks/HMM-beads/Images/WhiteBeadChoiceCorrect.png","","","","","","","","","",""
"image-keyboard-response","160","438203","0.0-3.0-6.0-1.0-0.8","65ebb614d2f7accb27486117","6662009ae78f21dd82fcd179","66620a0829f6b2e5fd822b60","681","","j","","","","","","","","./tasks/HMM-beads/Images/NewTrialWC.png","lowH","1","8","1","1","1","1","true","",""
"image-keyboard-response","161","438506","0.0-3.0-6.0-1.0-1.8","65ebb614d2f7accb27486117","6662009ae78f21dd82fcd179","66620a0829f6b2e5fd822b60","null","","null","","","","","","","","./tasks/HMM-beads/Images/WhiteBeadChoice.png","","","","","","","","","",""
"image-keyboard-response","162","439009","0.0-3.0-6.0-1.0-2.8","65ebb614d2f7accb27486117","6662009ae78f21dd82fcd179","66620a0829f6b2e5fd822b60","null","","null","","","","","","","","./tasks/HMM-beads/Images/WhiteBeadChoiceCorrect.png","","","","","","","","","",""
"image-keyboard-response","163","439753","0.0-3.0-6.0-1.0-0.9","65ebb614d2f7accb27486117","6662009ae78f21dd82fcd179","66620a0829f6b2e5fd822b60","743","","j","","","","","","","","./tasks/HMM-beads/Images/NewTrialWC.png","lowH","1","9","1","1","1","1","true","",""
"image-keyboard-response","164","440057","0.0-3.0-6.0-1.0-1.9","65ebb614d2f7accb27486117","6662009ae78f21dd82fcd179","66620a0829f6b2e5fd822b60","null","","null","","","","","","","","./tasks/HMM-beads/Images/WhiteBeadChoice.png","","","","","","","","","",""
"image-keyboard-response","165","440560","0.0-3.0-6.0-1.0-2.9","65ebb614d2f7accb27486117","6662009ae78f21dd82fcd179","66620a0829f6b2e5fd822b60","null","","null","","","","","","","","./tasks/HMM-beads/Images/WhiteBeadChoiceCorrect.png","","","","","","","","","",""
"image-keyboard-response","166","441505","0.0-3.0-6.0-1.0-0.10","65ebb614d2f7accb27486117","6662009ae78f21dd82fcd179","66620a0829f6b2e5fd822b60","944","","j","","","","","","","","./tasks/HMM-beads/Images/NewTrialWC.png","lowH","1","10","1","1","1","1","true","",""
"image-keyboard-response","167","441808","0.0-3.0-6.0-1.0-1.10","65ebb614d2f7accb27486117","6662009ae78f21dd82fcd179","66620a0829f6b2e5fd822b60","null","","null","","","","","","","","./tasks/HMM-beads/Images/WhiteBeadChoice.png","","","","","","","","","",""
"image-keyboard-response","168","442312","0.0-3.0-6.0-1.0-2.10","65ebb614d2f7accb27486117","6662009ae78f21dd82fcd179","66620a0829f6b2e5fd822b60","null","","null","","","","","","","","./tasks/HMM-beads/Images/WhiteBeadChoiceCorrect.png","","","","","","","","","",""
"image-keyboard-response","169","443101","0.0-3.0-6.0-1.0-0.11","65ebb614d2f7accb27486117","6662009ae78f21dd82fcd179","66620a0829f6b2e5fd822b60","787","","j","","","","","","","","./tasks/HMM-beads/Images/NewTrialWC.png","lowH","1","11","1","1","1","1","true","",""
"image-keyboard-response","170","443404","0.0-3.0-6.0-1.0-1.11","65ebb614d2f7accb27486117","6662009ae78f21dd82fcd179","66620a0829f6b2e5fd822b60","null","","null","","","","","","","","./tasks/HMM-beads/Images/WhiteBeadChoice.png","","","","","","","","","",""
"image-keyboard-response","171","443907","0.0-3.0-6.0-1.0-2.11","65ebb614d2f7accb27486117","6662009ae78f21dd82fcd179","66620a0829f6b2e5fd822b60","null","","null","","","","","","","","./tasks/HMM-beads/Images/WhiteBeadChoiceCorrect.png","","","","","","","","","",""
"image-keyboard-response","172","444649","0.0-3.0-6.0-1.0-0.12","65ebb614d2f7accb27486117","6662009ae78f21dd82fcd179","66620a0829f6b2e5fd822b60","740","","j","","","","","","","","./tasks/HMM-beads/Images/NewTrialWC.png","lowH","1","12","1","1","1","1","true","",""
"image-keyboard-response","173","444952","0.0-3.0-6.0-1.0-1.12","65ebb614d2f7accb27486117","6662009ae78f21dd82fcd179","66620a0829f6b2e5fd822b60","null","","null","","","","","","","","./tasks/HMM-beads/Images/WhiteBeadChoice.png","","","","","","","","","",""
"image-keyboard-response","174","445455","0.0-3.0-6.0-1.0-2.12","65ebb614d2f7accb27486117","6662009ae78f21dd82fcd179","66620a0829f6b2e5fd822b60","null","","null","","","","","","","","./tasks/HMM-beads/Images/WhiteBeadChoiceCorrect.png","","","","","","","","","",""
"image-keyboard-response","175","446082","0.0-3.0-6.0-1.0-0.13","65ebb614d2f7accb27486117","6662009ae78f21dd82fcd179","66620a0829f6b2e5fd822b60","625","","j","","","","","","","","./tasks/HMM-beads/Images/NewTrialWC.png","lowH","1","13","1","0","1","1","false","",""
"image-keyboard-response","176","446385","0.0-3.0-6.0-1.0-1.13","65ebb614d2f7accb27486117","6662009ae78f21dd82fcd179","66620a0829f6b2e5fd822b60","null","","null","","","","","","","","./tasks/HMM-beads/Images/WhiteBeadChoice.png","","","","","","","","","",""
"image-keyboard-response","177","446889","0.0-3.0-6.0-1.0-2.13","65ebb614d2f7accb27486117","6662009ae78f21dd82fcd179","66620a0829f6b2e5fd822b60","null","","null","","","","","","","","./tasks/HMM-beads/Images/WhiteBeadChoiceWrong.png","","","","","","","","","",""
"image-keyboard-response","178","448743","0.0-3.0-6.0-1.0-0.14","65ebb614d2f7accb27486117","6662009ae78f21dd82fcd179","66620a0829f6b2e5fd822b60","1851","","j","","","","","","","","./tasks/HMM-beads/Images/NewTrialBC.png","lowH","1","14","1","0","0","1","false","",""
"image-keyboard-response","179","449046","0.0-3.0-6.0-1.0-1.14","65ebb614d2f7accb27486117","6662009ae78f21dd82fcd179","66620a0829f6b2e5fd822b60","null","","null","","","","","","","","./tasks/HMM-beads/Images/WhiteBeadChoice.png","","","","","","","","","",""
"image-keyboard-response","180","449550","0.0-3.0-6.0-1.0-2.14","65ebb614d2f7accb27486117","6662009ae78f21dd82fcd179","66620a0829f6b2e5fd822b60","null","","null","","","","","","","","./tasks/HMM-beads/Images/WhiteBeadChoiceWrong.png","","","","","","","","","",""
"image-keyboard-response","181","449825","0.0-3.0-6.0-1.0-0.15","65ebb614d2f7accb27486117","6662009ae78f21dd82fcd179","66620a0829f6b2e5fd822b60","273","","f","","","","","","","","./tasks/HMM-beads/Images/NewTrialBC.png","lowH","1","15","1","1","0","0","false","",""
"image-keyboard-response","182","450129","0.0-3.0-6.0-1.0-1.15","65ebb614d2f7accb27486117","6662009ae78f21dd82fcd179","66620a0829f6b2e5fd822b60","null","","null","","","","","","","","./tasks/HMM-beads/Images/BlackBeadChoice.png","","","","","","","","","",""
"image-keyboard-response","183","450632","0.0-3.0-6.0-1.0-2.15","65ebb614d2f7accb27486117","6662009ae78f21dd82fcd179","66620a0829f6b2e5fd822b60","null","","null","","","","","","","","./tasks/HMM-beads/Images/BlackBeadChoiceWrong.png","","","","","","","","","",""
"image-keyboard-response","184","451635","0.0-3.0-6.0-1.0-0.16","65ebb614d2f7accb27486117","6662009ae78f21dd82fcd179","66620a0829f6b2e5fd822b60","1000","","j","","","","","","","","./tasks/HMM-beads/Images/NewTrialWC.png","lowH","1","16","1","1","1","1","true","",""
"image-keyboard-response","185","451939","0.0-3.0-6.0-1.0-1.16","65ebb614d2f7accb27486117","6662009ae78f21dd82fcd179","66620a0829f6b2e5fd822b60","null","","null","","","","","","","","./tasks/HMM-beads/Images/WhiteBeadChoice.png","","","","","","","","","",""
"image-keyboard-response","186","452442","0.0-3.0-6.0-1.0-2.16","65ebb614d2f7accb27486117","6662009ae78f21dd82fcd179","66620a0829f6b2e5fd822b60","null","","null","","","","","","","","./tasks/HMM-beads/Images/WhiteBeadChoiceCorrect.png","","","","","","","","","",""
"image-keyboard-response","187","453008","0.0-3.0-6.0-1.0-0.17","65ebb614d2f7accb27486117","6662009ae78f21dd82fcd179","66620a0829f6b2e5fd822b60","564","","j","","","","","","","","./tasks/HMM-beads/Images/NewTrialWC.png","lowH","1","17","1","1","1","1","true","",""
"image-keyboard-response","188","453311","0.0-3.0-6.0-1.0-1.17","65ebb614d2f7accb27486117","6662009ae78f21dd82fcd179","66620a0829f6b2e5fd822b60","null","","null","","","","","","","","./tasks/HMM-beads/Images/WhiteBeadChoice.png","","","","","","","","","",""
"image-keyboard-response","189","453815","0.0-3.0-6.0-1.0-2.17","65ebb614d2f7accb27486117","6662009ae78f21dd82fcd179","66620a0829f6b2e5fd822b60","null","","null","","","","","","","","./tasks/HMM-beads/Images/WhiteBeadChoiceCorrect.png","","","","","","","","","",""
"image-keyboard-response","190","454327","0.0-3.0-6.0-1.0-0.18","65ebb614d2f7accb27486117","6662009ae78f21dd82fcd179","66620a0829f6b2e5fd822b60","510","","j","","","","","","","","./tasks/HMM-beads/Images/NewTrialWC.png","lowH","1","18","1","1","1","1","true","",""
"image-keyboard-response","191","454630","0.0-3.0-6.0-1.0-1.18","65ebb614d2f7accb27486117","6662009ae78f21dd82fcd179","66620a0829f6b2e5fd822b60","null","","null","","","","","","","","./tasks/HMM-beads/Images/WhiteBeadChoice.png","","","","","","","","","",""
"image-keyboard-response","192","455133","0.0-3.0-6.0-1.0-2.18","65ebb614d2f7accb27486117","6662009ae78f21dd82fcd179","66620a0829f6b2e5fd822b60","null","","null","","","","","","","","./tasks/HMM-beads/Images/WhiteBeadChoiceCorrect.png","","","","","","","","","",""
"image-keyboard-response","193","455770","0.0-3.0-6.0-1.0-0.19","65ebb614d2f7accb27486117","6662009ae78f21dd82fcd179","66620a0829f6b2e5fd822b60","635","","j","","","","","","","","./tasks/HMM-beads/Images/NewTrialWC.png","lowH","1","19","1","1","1","1","true","",""
"image-keyboard-response","194","456073","0.0-3.0-6.0-1.0-1.19","65ebb614d2f7accb27486117","6662009ae78f21dd82fcd179","66620a0829f6b2e5fd822b60","null","","null","","","","","","","","./tasks/HMM-beads/Images/WhiteBeadChoice.png","","","","","","","","","",""
"image-keyboard-response","195","456577","0.0-3.0-6.0-1.0-2.19","65ebb614d2f7accb27486117","6662009ae78f21dd82fcd179","66620a0829f6b2e5fd822b60","null","","null","","","","","","","","./tasks/HMM-beads/Images/WhiteBeadChoiceCorrect.png","","","","","","","","","",""
"image-keyboard-response","196","457171","0.0-3.0-6.0-1.0-0.20","65ebb614d2f7accb27486117","6662009ae78f21dd82fcd179","66620a0829f6b2e5fd822b60","593","","j","","","","","","","","./tasks/HMM-beads/Images/NewTrialWC.png","lowH","1","20","1","1","1","1","true","",""
"image-keyboard-response","197","457473","0.0-3.0-6.0-1.0-1.20","65ebb614d2f7accb27486117","6662009ae78f21dd82fcd179","66620a0829f6b2e5fd822b60","null","","null","","","","","","","","./tasks/HMM-beads/Images/WhiteBeadChoice.png","","","","","","","","","",""
"image-keyboard-response","198","457976","0.0-3.0-6.0-1.0-2.20","65ebb614d2f7accb27486117","6662009ae78f21dd82fcd179","66620a0829f6b2e5fd822b60","null","","null","","","","","","","","./tasks/HMM-beads/Images/WhiteBeadChoiceCorrect.png","","","","","","","","","",""
"image-keyboard-response","199","458643","0.0-3.0-6.0-1.0-0.21","65ebb614d2f7accb27486117","6662009ae78f21dd82fcd179","66620a0829f6b2e5fd822b60","665","","j","","","","","","","","./tasks/HMM-beads/Images/NewTrialWC.png","lowH","1","21","1","1","1","1","true","",""
"image-keyboard-response","200","458947","0.0-3.0-6.0-1.0-1.21","65ebb614d2f7accb27486117","6662009ae78f21dd82fcd179","66620a0829f6b2e5fd822b60","null","","null","","","","","","","","./tasks/HMM-beads/Images/WhiteBeadChoice.png","","","","","","","","","",""
"image-keyboard-response","201","459450","0.0-3.0-6.0-1.0-2.21","65ebb614d2f7accb27486117","6662009ae78f21dd82fcd179","66620a0829f6b2e5fd822b60","null","","null","","","","","","","","./tasks/HMM-beads/Images/WhiteBeadChoiceCorrect.png","","","","","","","","","",""
"image-keyboard-response","202","460000","0.0-3.0-6.0-1.0-0.22","65ebb614d2f7accb27486117","6662009ae78f21dd82fcd179","66620a0829f6b2e5fd822b60","549","","j","","","","","","","","./tasks/HMM-beads/Images/NewTrialWC.png","lowH","1","22","1","1","1","1","true","",""
"image-keyboard-response","203","460303","0.0-3.0-6.0-1.0-1.22","65ebb614d2f7accb27486117","6662009ae78f21dd82fcd179","66620a0829f6b2e5fd822b60","null","","null","","","","","","","","./tasks/HMM-beads/Images/WhiteBeadChoice.png","","","","","","","","","",""
"image-keyboard-response","204","460806","0.0-3.0-6.0-1.0-2.22","65ebb614d2f7accb27486117","6662009ae78f21dd82fcd179","66620a0829f6b2e5fd822b60","null","","null","","","","","","","","./tasks/HMM-beads/Images/WhiteBeadChoiceCorrect.png","","","","","","","","","",""
"image-keyboard-response","205","461268","0.0-3.0-6.0-1.0-0.23","65ebb614d2f7accb27486117","6662009ae78f21dd82fcd179","66620a0829f6b2e5fd822b60","460","","j","","","","","","","","./tasks/HMM-beads/Images/NewTrialWC.png","lowH","1","23","1","1","1","1","true","",""
"image-keyboard-response","206","461570","0.0-3.0-6.0-1.0-1.23","65ebb614d2f7accb27486117","6662009ae78f21dd82fcd179","66620a0829f6b2e5fd822b60","null","","null","","","","","","","","./tasks/HMM-beads/Images/WhiteBeadChoice.png","","","","","","","","","",""
"image-keyboard-response","207","462073","0.0-3.0-6.0-1.0-2.23","65ebb614d2f7accb27486117","6662009ae78f21dd82fcd179","66620a0829f6b2e5fd822b60","null","","null","","","","","","","","./tasks/HMM-beads/Images/WhiteBeadChoiceCorrect.png","","","","","","","","","",""
"image-keyboard-response","208","462806","0.0-3.0-6.0-1.0-0.24","65ebb614d2f7accb27486117","6662009ae78f21dd82fcd179","66620a0829f6b2e5fd822b60","730","","j","","","","","","","","./tasks/HMM-beads/Images/NewTrialWC.png","lowH","1","24","1","0","1","1","false","",""
"image-keyboard-response","209","463109","0.0-3.0-6.0-1.0-1.24","65ebb614d2f7accb27486117","6662009ae78f21dd82fcd179","66620a0829f6b2e5fd822b60","null","","null","","","","","","","","./tasks/HMM-beads/Images/WhiteBeadChoice.png","","","","","","","","","",""
"image-keyboard-response","210","463612","0.0-3.0-6.0-1.0-2.24","65ebb614d2f7accb27486117","6662009ae78f21dd82fcd179","66620a0829f6b2e5fd822b60","null","","null","","","","","","","","./tasks/HMM-beads/Images/WhiteBeadChoiceWrong.png","","","","","","","","","",""
"image-keyboard-response","211","465140","0.0-3.0-6.0-1.0-0.25","65ebb614d2f7accb27486117","6662009ae78f21dd82fcd179","66620a0829f6b2e5fd822b60","1525","","j","","","","","","","","./tasks/HMM-beads/Images/NewTrialBC.png","lowH","1","25","1","1","0","1","true","",""
"image-keyboard-response","212","465444","0.0-3.0-6.0-1.0-1.25","65ebb614d2f7accb27486117","6662009ae78f21dd82fcd179","66620a0829f6b2e5fd822b60","null","","null","","","","","","","","./tasks/HMM-beads/Images/WhiteBeadChoice.png","","","","","","","","","",""
"image-keyboard-response","213","465948","0.0-3.0-6.0-1.0-2.25","65ebb614d2f7accb27486117","6662009ae78f21dd82fcd179","66620a0829f6b2e5fd822b60","null","","null","","","","","","","","./tasks/HMM-beads/Images/WhiteBeadChoiceCorrect.png","","","","","","","","","",""
"image-keyboard-response","214","466462","0.0-3.0-6.0-1.0-0.26","65ebb614d2f7accb27486117","6662009ae78f21dd82fcd179","66620a0829f6b2e5fd822b60","513","","j","","","","","","","","./tasks/HMM-beads/Images/NewTrialWC.png","lowH","1","26","1","0","1","1","false","",""
"image-keyboard-response","215","466765","0.0-3.0-6.0-1.0-1.26","65ebb614d2f7accb27486117","6662009ae78f21dd82fcd179","66620a0829f6b2e5fd822b60","null","","null","","","","","","","","./tasks/HMM-beads/Images/WhiteBeadChoice.png","","","","","","","","","",""
"image-keyboard-response","216","467268","0.0-3.0-6.0-1.0-2.26","65ebb614d2f7accb27486117","6662009ae78f21dd82fcd179","66620a0829f6b2e5fd822b60","null","","null","","","","","","","","./tasks/HMM-beads/Images/WhiteBeadChoiceWrong.png","","","","","","","","","",""
"image-keyboard-response","217","468313","0.0-3.0-6.0-1.0-0.27","65ebb614d2f7accb27486117","6662009ae78f21dd82fcd179","66620a0829f6b2e5fd822b60","1043","","j","","","","","","","","./tasks/HMM-beads/Images/NewTrialBC.png","lowH","1","27","1","1","0","1","true","",""
"image-keyboard-response","218","468616","0.0-3.0-6.0-1.0-1.27","65ebb614d2f7accb27486117","6662009ae78f21dd82fcd179","66620a0829f6b2e5fd822b60","null","","null","","","","","","","","./tasks/HMM-beads/Images/WhiteBeadChoice.png","","","","","","","","","",""
"image-keyboard-response","219","469120","0.0-3.0-6.0-1.0-2.27","65ebb614d2f7accb27486117","6662009ae78f21dd82fcd179","66620a0829f6b2e5fd822b60","null","","null","","","","","","","","./tasks/HMM-beads/Images/WhiteBeadChoiceCorrect.png","","","","","","","","","",""
"image-keyboard-response","220","469525","0.0-3.0-6.0-1.0-0.28","65ebb614d2f7accb27486117","6662009ae78f21dd82fcd179","66620a0829f6b2e5fd822b60","403","","j","","","","","","","","./tasks/HMM-beads/Images/NewTrialWC.png","lowH","1","28","1","1","1","1","true","",""
"image-keyboard-response","221","469828","0.0-3.0-6.0-1.0-1.28","65ebb614d2f7accb27486117","6662009ae78f21dd82fcd179","66620a0829f6b2e5fd822b60","null","","null","","","","","","","","./tasks/HMM-beads/Images/WhiteBeadChoice.png","","","","","","","","","",""
"image-keyboard-response","222","470332","0.0-3.0-6.0-1.0-2.28","65ebb614d2f7accb27486117","6662009ae78f21dd82fcd179","66620a0829f6b2e5fd822b60","null","","null","","","","","","","","./tasks/HMM-beads/Images/WhiteBeadChoiceCorrect.png","","","","","","","","","",""
"image-keyboard-response","223","470866","0.0-3.0-6.0-1.0-0.29","65ebb614d2f7accb27486117","6662009ae78f21dd82fcd179","66620a0829f6b2e5fd822b60","532","","j","","","","","","","","./tasks/HMM-beads/Images/NewTrialWC.png","lowH","1","29","1","1","1","1","true","",""
"image-keyboard-response","224","471169","0.0-3.0-6.0-1.0-1.29","65ebb614d2f7accb27486117","6662009ae78f21dd82fcd179","66620a0829f6b2e5fd822b60","null","","null","","","","","","","","./tasks/HMM-beads/Images/WhiteBeadChoice.png","","","","","","","","","",""
"image-keyboard-response","225","471672","0.0-3.0-6.0-1.0-2.29","65ebb614d2f7accb27486117","6662009ae78f21dd82fcd179","66620a0829f6b2e5fd822b60","null","","null","","","","","","","","./tasks/HMM-beads/Images/WhiteBeadChoiceCorrect.png","","","","","","","","","",""
"image-keyboard-response","226","472123","0.0-3.0-6.0-1.0-0.30","65ebb614d2f7accb27486117","6662009ae78f21dd82fcd179","66620a0829f6b2e5fd822b60","448","","j","","","","","","","","./tasks/HMM-beads/Images/NewTrialWC.png","lowH","1","30","1","1","1","1","true","",""
"image-keyboard-response","227","472426","0.0-3.0-6.0-1.0-1.30","65ebb614d2f7accb27486117","6662009ae78f21dd82fcd179","66620a0829f6b2e5fd822b60","null","","null","","","","","","","","./tasks/HMM-beads/Images/WhiteBeadChoice.png","","","","","","","","","",""
"image-keyboard-response","228","472929","0.0-3.0-6.0-1.0-2.30","65ebb614d2f7accb27486117","6662009ae78f21dd82fcd179","66620a0829f6b2e5fd822b60","null","","null","","","","","","","","./tasks/HMM-beads/Images/WhiteBeadChoiceCorrect.png","","","","","","","","","",""
"image-keyboard-response","229","473407","0.0-3.0-6.0-1.0-0.31","65ebb614d2f7accb27486117","6662009ae78f21dd82fcd179","66620a0829f6b2e5fd822b60","477","","j","","","","","","","","./tasks/HMM-beads/Images/NewTrialWC.png","lowH","1","31","1","1","1","1","true","",""
"image-keyboard-response","230","473710","0.0-3.0-6.0-1.0-1.31","65ebb614d2f7accb27486117","6662009ae78f21dd82fcd179","66620a0829f6b2e5fd822b60","null","","null","","","","","","","","./tasks/HMM-beads/Images/WhiteBeadChoice.png","","","","","","","","","",""
"image-keyboard-response","231","474213","0.0-3.0-6.0-1.0-2.31","65ebb614d2f7accb27486117","6662009ae78f21dd82fcd179","66620a0829f6b2e5fd822b60","null","","null","","","","","","","","./tasks/HMM-beads/Images/WhiteBeadChoiceCorrect.png","","","","","","","","","",""
"image-keyboard-response","232","474681","0.0-3.0-6.0-1.0-0.32","65ebb614d2f7accb27486117","6662009ae78f21dd82fcd179","66620a0829f6b2e5fd822b60","467","","j","","","","","","","","./tasks/HMM-beads/Images/NewTrialWC.png","lowH","1","32","1","1","1","1","true","",""
"image-keyboard-response","233","474985","0.0-3.0-6.0-1.0-1.32","65ebb614d2f7accb27486117","6662009ae78f21dd82fcd179","66620a0829f6b2e5fd822b60","null","","null","","","","","","","","./tasks/HMM-beads/Images/WhiteBeadChoice.png","","","","","","","","","",""
"image-keyboard-response","234","475487","0.0-3.0-6.0-1.0-2.32","65ebb614d2f7accb27486117","6662009ae78f21dd82fcd179","66620a0829f6b2e5fd822b60","null","","null","","","","","","","","./tasks/HMM-beads/Images/WhiteBeadChoiceCorrect.png","","","","","","","","","",""
"image-keyboard-response","235","476030","0.0-3.0-6.0-1.0-0.33","65ebb614d2f7accb27486117","6662009ae78f21dd82fcd179","66620a0829f6b2e5fd822b60","541","","j","","","","","","","","./tasks/HMM-beads/Images/NewTrialWC.png","lowH","1","33","1","1","1","1","true","",""
"image-keyboard-response","236","476333","0.0-3.0-6.0-1.0-1.33","65ebb614d2f7accb27486117","6662009ae78f21dd82fcd179","66620a0829f6b2e5fd822b60","null","","null","","","","","","","","./tasks/HMM-beads/Images/WhiteBeadChoice.png","","","","","","","","","",""
"image-keyboard-response","237","476836","0.0-3.0-6.0-1.0-2.33","65ebb614d2f7accb27486117","6662009ae78f21dd82fcd179","66620a0829f6b2e5fd822b60","null","","null","","","","","","","","./tasks/HMM-beads/Images/WhiteBeadChoiceCorrect.png","","","","","","","","","",""
"image-keyboard-response","238","477353","0.0-3.0-6.0-1.0-0.34","65ebb614d2f7accb27486117","6662009ae78f21dd82fcd179","66620a0829f6b2e5fd822b60","515","","j","","","","","","","","./tasks/HMM-beads/Images/NewTrialWC.png","lowH","1","34","1","1","1","1","true","",""
"image-keyboard-response","239","477655","0.0-3.0-6.0-1.0-1.34","65ebb614d2f7accb27486117","6662009ae78f21dd82fcd179","66620a0829f6b2e5fd822b60","null","","null","","","","","","","","./tasks/HMM-beads/Images/WhiteBeadChoice.png","","","","","","","","","",""
"image-keyboard-response","240","478158","0.0-3.0-6.0-1.0-2.34","65ebb614d2f7accb27486117","6662009ae78f21dd82fcd179","66620a0829f6b2e5fd822b60","null","","null","","","","","","","","./tasks/HMM-beads/Images/WhiteBeadChoiceCorrect.png","","","","","","","","","",""
"image-keyboard-response","241","478571","0.0-3.0-6.0-1.0-0.35","65ebb614d2f7accb27486117","6662009ae78f21dd82fcd179","66620a0829f6b2e5fd822b60","410","","j","","","","","","","","./tasks/HMM-beads/Images/NewTrialWC.png","lowH","1","35","1","1","1","1","true","",""
"image-keyboard-response","242","478873","0.0-3.0-6.0-1.0-1.35","65ebb614d2f7accb27486117","6662009ae78f21dd82fcd179","66620a0829f6b2e5fd822b60","null","","null","","","","","","","","./tasks/HMM-beads/Images/WhiteBeadChoice.png","","","","","","","","","",""
"image-keyboard-response","243","479376","0.0-3.0-6.0-1.0-2.35","65ebb614d2f7accb27486117","6662009ae78f21dd82fcd179","66620a0829f6b2e5fd822b60","null","","null","","","","","","","","./tasks/HMM-beads/Images/WhiteBeadChoiceCorrect.png","","","","","","","","","",""
"image-keyboard-response","244","479831","0.0-3.0-6.0-1.0-0.36","65ebb614d2f7accb27486117","6662009ae78f21dd82fcd179","66620a0829f6b2e5fd822b60","453","","j","","","","","","","","./tasks/HMM-beads/Images/NewTrialWC.png","lowH","1","36","1","1","1","1","true","",""
"image-keyboard-response","245","480135","0.0-3.0-6.0-1.0-1.36","65ebb614d2f7accb27486117","6662009ae78f21dd82fcd179","66620a0829f6b2e5fd822b60","null","","null","","","","","","","","./tasks/HMM-beads/Images/WhiteBeadChoice.png","","","","","","","","","",""
"image-keyboard-response","246","480637","0.0-3.0-6.0-1.0-2.36","65ebb614d2f7accb27486117","6662009ae78f21dd82fcd179","66620a0829f6b2e5fd822b60","null","","null","","","","","","","","./tasks/HMM-beads/Images/WhiteBeadChoiceCorrect.png","","","","","","","","","",""
"image-keyboard-response","247","481030","0.0-3.0-6.0-1.0-0.37","65ebb614d2f7accb27486117","6662009ae78f21dd82fcd179","66620a0829f6b2e5fd822b60","391","","j","","","","","","","","./tasks/HMM-beads/Images/NewTrialWC.png","lowH","1","37","1","1","1","1","true","",""
"image-keyboard-response","248","481334","0.0-3.0-6.0-1.0-1.37","65ebb614d2f7accb27486117","6662009ae78f21dd82fcd179","66620a0829f6b2e5fd822b60","null","","null","","","","","","","","./tasks/HMM-beads/Images/WhiteBeadChoice.png","","","","","","","","","",""
"image-keyboard-response","249","481836","0.0-3.0-6.0-1.0-2.37","65ebb614d2f7accb27486117","6662009ae78f21dd82fcd179","66620a0829f6b2e5fd822b60","null","","null","","","","","","","","./tasks/HMM-beads/Images/WhiteBeadChoiceCorrect.png","","","","","","","","","",""
"image-keyboard-response","250","482214","0.0-3.0-6.0-1.0-0.38","65ebb614d2f7accb27486117","6662009ae78f21dd82fcd179","66620a0829f6b2e5fd822b60","375","","j","","","","","","","","./tasks/HMM-beads/Images/NewTrialWC.png","lowH","1","38","1","1","1","1","true","",""
"image-keyboard-response","251","482517","0.0-3.0-6.0-1.0-1.38","65ebb614d2f7accb27486117","6662009ae78f21dd82fcd179","66620a0829f6b2e5fd822b60","null","","null","","","","","","","","./tasks/HMM-beads/Images/WhiteBeadChoice.png","","","","","","","","","",""
"image-keyboard-response","252","483022","0.0-3.0-6.0-1.0-2.38","65ebb614d2f7accb27486117","6662009ae78f21dd82fcd179","66620a0829f6b2e5fd822b60","null","","null","","","","","","","","./tasks/HMM-beads/Images/WhiteBeadChoiceCorrect.png","","","","","","","","","",""
"image-keyboard-response","253","483745","0.0-3.0-6.0-1.0-0.39","65ebb614d2f7accb27486117","6662009ae78f21dd82fcd179","66620a0829f6b2e5fd822b60","721","","j","","","","","","","","./tasks/HMM-beads/Images/NewTrialWC.png","lowH","1","39","1","1","1","1","true","",""
"image-keyboard-response","254","484048","0.0-3.0-6.0-1.0-1.39","65ebb614d2f7accb27486117","6662009ae78f21dd82fcd179","66620a0829f6b2e5fd822b60","null","","null","","","","","","","","./tasks/HMM-beads/Images/WhiteBeadChoice.png","","","","","","","","","",""
"image-keyboard-response","255","484551","0.0-3.0-6.0-1.0-2.39","65ebb614d2f7accb27486117","6662009ae78f21dd82fcd179","66620a0829f6b2e5fd822b60","null","","null","","","","","","","","./tasks/HMM-beads/Images/WhiteBeadChoiceCorrect.png","","","","","","","","","",""
"image-keyboard-response","256","485103","0.0-3.0-6.0-1.0-0.40","65ebb614d2f7accb27486117","6662009ae78f21dd82fcd179","66620a0829f6b2e5fd822b60","550","","j","","","","","","","","./tasks/HMM-beads/Images/NewTrialWC.png","lowH","1","40","1","1","1","1","true","",""
"image-keyboard-response","257","485407","0.0-3.0-6.0-1.0-1.40","65ebb614d2f7accb27486117","6662009ae78f21dd82fcd179","66620a0829f6b2e5fd822b60","null","","null","","","","","","","","./tasks/HMM-beads/Images/WhiteBeadChoice.png","","","","","","","","","",""
"image-keyboard-response","258","485911","0.0-3.0-6.0-1.0-2.40","65ebb614d2f7accb27486117","6662009ae78f21dd82fcd179","66620a0829f6b2e5fd822b60","null","","null","","","","","","","","./tasks/HMM-beads/Images/WhiteBeadChoiceCorrect.png","","","","","","","","","",""
"image-keyboard-response","259","486315","0.0-3.0-6.0-1.0-0.41","65ebb614d2f7accb27486117","6662009ae78f21dd82fcd179","66620a0829f6b2e5fd822b60","401","","j","","","","","","","","./tasks/HMM-beads/Images/NewTrialWC.png","lowH","1","41","1","1","1","1","true","",""
"image-keyboard-response","260","486618","0.0-3.0-6.0-1.0-1.41","65ebb614d2f7accb27486117","6662009ae78f21dd82fcd179","66620a0829f6b2e5fd822b60","null","","null","","","","","","","","./tasks/HMM-beads/Images/WhiteBeadChoice.png","","","","","","","","","",""
"image-keyboard-response","261","487121","0.0-3.0-6.0-1.0-2.41","65ebb614d2f7accb27486117","6662009ae78f21dd82fcd179","66620a0829f6b2e5fd822b60","null","","null","","","","","","","","./tasks/HMM-beads/Images/WhiteBeadChoiceCorrect.png","","","","","","","","","",""
"image-keyboard-response","262","487552","0.0-3.0-6.0-1.0-0.42","65ebb614d2f7accb27486117","6662009ae78f21dd82fcd179","66620a0829f6b2e5fd822b60","429","","j","","","","","","","","./tasks/HMM-beads/Images/NewTrialWC.png","lowH","1","42","1","1","1","1","true","",""
"image-keyboard-response","263","487855","0.0-3.0-6.0-1.0-1.42","65ebb614d2f7accb27486117","6662009ae78f21dd82fcd179","66620a0829f6b2e5fd822b60","null","","null","","","","","","","","./tasks/HMM-beads/Images/WhiteBeadChoice.png","","","","","","","","","",""
"image-keyboard-response","264","488358","0.0-3.0-6.0-1.0-2.42","65ebb614d2f7accb27486117","6662009ae78f21dd82fcd179","66620a0829f6b2e5fd822b60","null","","null","","","","","","","","./tasks/HMM-beads/Images/WhiteBeadChoiceCorrect.png","","","","","","","","","",""
"image-keyboard-response","265","488815","0.0-3.0-6.0-1.0-0.43","65ebb614d2f7accb27486117","6662009ae78f21dd82fcd179","66620a0829f6b2e5fd822b60","456","","j","","","","","","","","./tasks/HMM-beads/Images/NewTrialWC.png","lowH","1","43","1","1","1","1","true","",""
"image-keyboard-response","266","489118","0.0-3.0-6.0-1.0-1.43","65ebb614d2f7accb27486117","6662009ae78f21dd82fcd179","66620a0829f6b2e5fd822b60","null","","null","","","","","","","","./tasks/HMM-beads/Images/WhiteBeadChoice.png","","","","","","","","","",""
"image-keyboard-response","267","489622","0.0-3.0-6.0-1.0-2.43","65ebb614d2f7accb27486117","6662009ae78f21dd82fcd179","66620a0829f6b2e5fd822b60","null","","null","","","","","","","","./tasks/HMM-beads/Images/WhiteBeadChoiceCorrect.png","","","","","","","","","",""
"image-keyboard-response","268","490088","0.0-3.0-6.0-1.0-0.44","65ebb614d2f7accb27486117","6662009ae78f21dd82fcd179","66620a0829f6b2e5fd822b60","464","","j","","","","","","","","./tasks/HMM-beads/Images/NewTrialWC.png","lowH","1","44","1","1","1","1","true","",""
"image-keyboard-response","269","490392","0.0-3.0-6.0-1.0-1.44","65ebb614d2f7accb27486117","6662009ae78f21dd82fcd179","66620a0829f6b2e5fd822b60","null","","null","","","","","","","","./tasks/HMM-beads/Images/WhiteBeadChoice.png","","","","","","","","","",""
"image-keyboard-response","270","490895","0.0-3.0-6.0-1.0-2.44","65ebb614d2f7accb27486117","6662009ae78f21dd82fcd179","66620a0829f6b2e5fd822b60","null","","null","","","","","","","","./tasks/HMM-beads/Images/WhiteBeadChoiceCorrect.png","","","","","","","","","",""
"image-keyboard-response","271","491369","0.0-3.0-6.0-1.0-0.45","65ebb614d2f7accb27486117","6662009ae78f21dd82fcd179","66620a0829f6b2e5fd822b60","472","","j","","","","","","","","./tasks/HMM-beads/Images/NewTrialWC.png","lowH","1","45","1","1","1","1","true","",""
"image-keyboard-response","272","491672","0.0-3.0-6.0-1.0-1.45","65ebb614d2f7accb27486117","6662009ae78f21dd82fcd179","66620a0829f6b2e5fd822b60","null","","null","","","","","","","","./tasks/HMM-beads/Images/WhiteBeadChoice.png","","","","","","","","","",""
"image-keyboard-response","273","492175","0.0-3.0-6.0-1.0-2.45","65ebb614d2f7accb27486117","6662009ae78f21dd82fcd179","66620a0829f6b2e5fd822b60","null","","null","","","","","","","","./tasks/HMM-beads/Images/WhiteBeadChoiceCorrect.png","","","","","","","","","",""
"image-keyboard-response","274","492628","0.0-3.0-6.0-1.0-0.46","65ebb614d2f7accb27486117","6662009ae78f21dd82fcd179","66620a0829f6b2e5fd822b60","452","","j","","","","","","","","./tasks/HMM-beads/Images/NewTrialWC.png","lowH","1","46","1","1","1","1","true","",""
"image-keyboard-response","275","492931","0.0-3.0-6.0-1.0-1.46","65ebb614d2f7accb27486117","6662009ae78f21dd82fcd179","66620a0829f6b2e5fd822b60","null","","null","","","","","","","","./tasks/HMM-beads/Images/WhiteBeadChoice.png","","","","","","","","","",""
"image-keyboard-response","276","493434","0.0-3.0-6.0-1.0-2.46","65ebb614d2f7accb27486117","6662009ae78f21dd82fcd179","66620a0829f6b2e5fd822b60","null","","null","","","","","","","","./tasks/HMM-beads/Images/WhiteBeadChoiceCorrect.png","","","","","","","","","",""
"image-keyboard-response","277","493919","0.0-3.0-6.0-1.0-0.47","65ebb614d2f7accb27486117","6662009ae78f21dd82fcd179","66620a0829f6b2e5fd822b60","483","","j","","","","","","","","./tasks/HMM-beads/Images/NewTrialWC.png","lowH","1","47","1","0","1","1","false","",""
"image-keyboard-response","278","494222","0.0-3.0-6.0-1.0-1.47","65ebb614d2f7accb27486117","6662009ae78f21dd82fcd179","66620a0829f6b2e5fd822b60","null","","null","","","","","","","","./tasks/HMM-beads/Images/WhiteBeadChoice.png","","","","","","","","","",""
"image-keyboard-response","279","494725","0.0-3.0-6.0-1.0-2.47","65ebb614d2f7accb27486117","6662009ae78f21dd82fcd179","66620a0829f6b2e5fd822b60","null","","null","","","","","","","","./tasks/HMM-beads/Images/WhiteBeadChoiceWrong.png","","","","","","","","","",""
"image-keyboard-response","280","495418","0.0-3.0-6.0-1.0-0.48","65ebb614d2f7accb27486117","6662009ae78f21dd82fcd179","66620a0829f6b2e5fd822b60","691","","j","","","","","","","","./tasks/HMM-beads/Images/NewTrialBC.png","lowH","1","48","1","0","0","1","false","",""
"image-keyboard-response","281","495721","0.0-3.0-6.0-1.0-1.48","65ebb614d2f7accb27486117","6662009ae78f21dd82fcd179","66620a0829f6b2e5fd822b60","null","","null","","","","","","","","./tasks/HMM-beads/Images/WhiteBeadChoice.png","","","","","","","","","",""
"image-keyboard-response","282","496224","0.0-3.0-6.0-1.0-2.48","65ebb614d2f7accb27486117","6662009ae78f21dd82fcd179","66620a0829f6b2e5fd822b60","null","","null","","","","","","","","./tasks/HMM-beads/Images/WhiteBeadChoiceWrong.png","","","","","","","","","",""
"image-keyboard-response","283","497880","0.0-3.0-6.0-1.0-0.49","65ebb614d2f7accb27486117","6662009ae78f21dd82fcd179","66620a0829f6b2e5fd822b60","1655","","f","","","","","","","","./tasks/HMM-beads/Images/NewTrialBC.png","lowH","1","49","1","0","0","0","true","",""
"image-keyboard-response","284","498183","0.0-3.0-6.0-1.0-1.49","65ebb614d2f7accb27486117","6662009ae78f21dd82fcd179","66620a0829f6b2e5fd822b60","null","","null","","","","","","","","./tasks/HMM-beads/Images/BlackBeadChoice.png","","","","","","","","","",""
"image-keyboard-response","285","498687","0.0-3.0-6.0-1.0-2.49","65ebb614d2f7accb27486117","6662009ae78f21dd82fcd179","66620a0829f6b2e5fd822b60","null","","null","","","","","","","","./tasks/HMM-beads/Images/BlackBeadChoiceCorrect.png","","","","","","","","","",""
"image-keyboard-response","286","499154","0.0-3.0-6.0-1.0-0.50","65ebb614d2f7accb27486117","6662009ae78f21dd82fcd179","66620a0829f6b2e5fd822b60","464","","f","","","","","","","","./tasks/HMM-beads/Images/NewTrialBC.png","lowH","1","50","1","1","0","0","false","",""
"image-keyboard-response","287","499458","0.0-3.0-6.0-1.0-1.50","65ebb614d2f7accb27486117","6662009ae78f21dd82fcd179","66620a0829f6b2e5fd822b60","null","","null","","","","","","","","./tasks/HMM-beads/Images/BlackBeadChoice.png","","","","","","","","","",""
"image-keyboard-response","288","499962","0.0-3.0-6.0-1.0-2.50","65ebb614d2f7accb27486117","6662009ae78f21dd82fcd179","66620a0829f6b2e5fd822b60","null","","null","","","","","","","","./tasks/HMM-beads/Images/BlackBeadChoiceWrong.png","","","","","","","","","",""
"image-keyboard-response","289","501311","0.0-3.0-6.0-1.0-0.51","65ebb614d2f7accb27486117","6662009ae78f21dd82fcd179","66620a0829f6b2e5fd822b60","1347","","f","","","","","","","","./tasks/HMM-beads/Images/NewTrialWC.png","lowH","1","51","1","1","1","0","false","",""
"image-keyboard-response","290","501615","0.0-3.0-6.0-1.0-1.51","65ebb614d2f7accb27486117","6662009ae78f21dd82fcd179","66620a0829f6b2e5fd822b60","null","","null","","","","","","","","./tasks/HMM-beads/Images/BlackBeadChoice.png","","","","","","","","","",""
"image-keyboard-response","291","502117","0.0-3.0-6.0-1.0-2.51","65ebb614d2f7accb27486117","6662009ae78f21dd82fcd179","66620a0829f6b2e5fd822b60","null","","null","","","","","","","","./tasks/HMM-beads/Images/BlackBeadChoiceWrong.png","","","","","","","","","",""
"image-keyboard-response","292","502961","0.0-3.0-6.0-1.0-0.52","65ebb614d2f7accb27486117","6662009ae78f21dd82fcd179","66620a0829f6b2e5fd822b60","843","","j","","","","","","","","./tasks/HMM-beads/Images/NewTrialWC.png","lowH","1","52","1","1","1","1","true","",""
"image-keyboard-response","293","503265","0.0-3.0-6.0-1.0-1.52","65ebb614d2f7accb27486117","6662009ae78f21dd82fcd179","66620a0829f6b2e5fd822b60","null","","null","","","","","","","","./tasks/HMM-beads/Images/WhiteBeadChoice.png","","","","","","","","","",""
"image-keyboard-response","294","503768","0.0-3.0-6.0-1.0-2.52","65ebb614d2f7accb27486117","6662009ae78f21dd82fcd179","66620a0829f6b2e5fd822b60","null","","null","","","","","","","","./tasks/HMM-beads/Images/WhiteBeadChoiceCorrect.png","","","","","","","","","",""
"image-keyboard-response","295","504116","0.0-3.0-6.0-1.0-0.53","65ebb614d2f7accb27486117","6662009ae78f21dd82fcd179","66620a0829f6b2e5fd822b60","346","","j","","","","","","","","./tasks/HMM-beads/Images/NewTrialWC.png","lowH","1","53","1","1","1","1","true","",""
"image-keyboard-response","296","504419","0.0-3.0-6.0-1.0-1.53","65ebb614d2f7accb27486117","6662009ae78f21dd82fcd179","66620a0829f6b2e5fd822b60","null","","null","","","","","","","","./tasks/HMM-beads/Images/WhiteBeadChoice.png","","","","","","","","","",""
"image-keyboard-response","297","504922","0.0-3.0-6.0-1.0-2.53","65ebb614d2f7accb27486117","6662009ae78f21dd82fcd179","66620a0829f6b2e5fd822b60","null","","null","","","","","","","","./tasks/HMM-beads/Images/WhiteBeadChoiceCorrect.png","","","","","","","","","",""
"image-keyboard-response","298","505412","0.0-3.0-6.0-1.0-0.54","65ebb614d2f7accb27486117","6662009ae78f21dd82fcd179","66620a0829f6b2e5fd822b60","488","","j","","","","","","","","./tasks/HMM-beads/Images/NewTrialWC.png","lowH","1","54","1","1","1","1","true","",""
"image-keyboard-response","299","505715","0.0-3.0-6.0-1.0-1.54","65ebb614d2f7accb27486117","6662009ae78f21dd82fcd179","66620a0829f6b2e5fd822b60","null","","null","","","","","","","","./tasks/HMM-beads/Images/WhiteBeadChoice.png","","","","","","","","","",""
"image-keyboard-response","300","506219","0.0-3.0-6.0-1.0-2.54","65ebb614d2f7accb27486117","6662009ae78f21dd82fcd179","66620a0829f6b2e5fd822b60","null","","null","","","","","","","","./tasks/HMM-beads/Images/WhiteBeadChoiceCorrect.png","","","","","","","","","",""
"image-keyboard-response","301","506820","0.0-3.0-6.0-1.0-0.55","65ebb614d2f7accb27486117","6662009ae78f21dd82fcd179","66620a0829f6b2e5fd822b60","600","","j","","","","","","","","./tasks/HMM-beads/Images/NewTrialWC.png","lowH","1","55","1","1","1","1","true","",""
"image-keyboard-response","302","507123","0.0-3.0-6.0-1.0-1.55","65ebb614d2f7accb27486117","6662009ae78f21dd82fcd179","66620a0829f6b2e5fd822b60","null","","null","","","","","","","","./tasks/HMM-beads/Images/WhiteBeadChoice.png","","","","","","","","","",""
"image-keyboard-response","303","507626","0.0-3.0-6.0-1.0-2.55","65ebb614d2f7accb27486117","6662009ae78f21dd82fcd179","66620a0829f6b2e5fd822b60","null","","null","","","","","","","","./tasks/HMM-beads/Images/WhiteBeadChoiceCorrect.png","","","","","","","","","",""
"image-keyboard-response","304","508024","0.0-3.0-6.0-1.0-0.56","65ebb614d2f7accb27486117","6662009ae78f21dd82fcd179","66620a0829f6b2e5fd822b60","395","","j","","","","","","","","./tasks/HMM-beads/Images/NewTrialWC.png","lowH","1","56","1","1","1","1","true","",""
"image-keyboard-response","305","508327","0.0-3.0-6.0-1.0-1.56","65ebb614d2f7accb27486117","6662009ae78f21dd82fcd179","66620a0829f6b2e5fd822b60","null","","null","","","","","","","","./tasks/HMM-beads/Images/WhiteBeadChoice.png","","","","","","","","","",""
"image-keyboard-response","306","508830","0.0-3.0-6.0-1.0-2.56","65ebb614d2f7accb27486117","6662009ae78f21dd82fcd179","66620a0829f6b2e5fd822b60","null","","null","","","","","","","","./tasks/HMM-beads/Images/WhiteBeadChoiceCorrect.png","","","","","","","","","",""
"image-keyboard-response","307","509499","0.0-3.0-6.0-1.0-0.57","65ebb614d2f7accb27486117","6662009ae78f21dd82fcd179","66620a0829f6b2e5fd822b60","667","","j","","","","","","","","./tasks/HMM-beads/Images/NewTrialWC.png","lowH","1","57","1","1","1","1","true","",""
"image-keyboard-response","308","509802","0.0-3.0-6.0-1.0-1.57","65ebb614d2f7accb27486117","6662009ae78f21dd82fcd179","66620a0829f6b2e5fd822b60","null","","null","","","","","","","","./tasks/HMM-beads/Images/WhiteBeadChoice.png","","","","","","","","","",""
"image-keyboard-response","309","510305","0.0-3.0-6.0-1.0-2.57","65ebb614d2f7accb27486117","6662009ae78f21dd82fcd179","66620a0829f6b2e5fd822b60","null","","null","","","","","","","","./tasks/HMM-beads/Images/WhiteBeadChoiceCorrect.png","","","","","","","","","",""
"image-keyboard-response","310","510850","0.0-3.0-6.0-1.0-0.58","65ebb614d2f7accb27486117","6662009ae78f21dd82fcd179","66620a0829f6b2e5fd822b60","542","","j","","","","","","","","./tasks/HMM-beads/Images/NewTrialWC.png","lowH","1","58","1","1","1","1","true","",""
"image-keyboard-response","311","511154","0.0-3.0-6.0-1.0-1.58","65ebb614d2f7accb27486117","6662009ae78f21dd82fcd179","66620a0829f6b2e5fd822b60","null","","null","","","","","","","","./tasks/HMM-beads/Images/WhiteBeadChoice.png","","","","","","","","","",""
"image-keyboard-response","312","511657","0.0-3.0-6.0-1.0-2.58","65ebb614d2f7accb27486117","6662009ae78f21dd82fcd179","66620a0829f6b2e5fd822b60","null","","null","","","","","","","","./tasks/HMM-beads/Images/WhiteBeadChoiceCorrect.png","","","","","","","","","",""
"image-keyboard-response","313","512192","0.0-3.0-6.0-1.0-0.59","65ebb614d2f7accb27486117","6662009ae78f21dd82fcd179","66620a0829f6b2e5fd822b60","533","","j","","","","","","","","./tasks/HMM-beads/Images/NewTrialWC.png","lowH","1","59","1","0","1","1","false","",""
"image-keyboard-response","314","512496","0.0-3.0-6.0-1.0-1.59","65ebb614d2f7accb27486117","6662009ae78f21dd82fcd179","66620a0829f6b2e5fd822b60","null","","null","","","","","","","","./tasks/HMM-beads/Images/WhiteBeadChoice.png","","","","","","","","","",""
"image-keyboard-response","315","512999","0.0-3.0-6.0-1.0-2.59","65ebb614d2f7accb27486117","6662009ae78f21dd82fcd179","66620a0829f6b2e5fd822b60","null","","null","","","","","","","","./tasks/HMM-beads/Images/WhiteBeadChoiceWrong.png","","","","","","","","","",""
"image-keyboard-response","316","513689","0.0-3.0-6.0-1.0-0.60","65ebb614d2f7accb27486117","6662009ae78f21dd82fcd179","66620a0829f6b2e5fd822b60","688","","j","","","","","","","","./tasks/HMM-beads/Images/NewTrialBC.png","lowH","1","60","1","1","0","1","true","",""
"image-keyboard-response","317","513992","0.0-3.0-6.0-1.0-1.60","65ebb614d2f7accb27486117","6662009ae78f21dd82fcd179","66620a0829f6b2e5fd822b60","null","","null","","","","","","","","./tasks/HMM-beads/Images/WhiteBeadChoice.png","","","","","","","","","",""
"image-keyboard-response","318","514497","0.0-3.0-6.0-1.0-2.60","65ebb614d2f7accb27486117","6662009ae78f21dd82fcd179","66620a0829f6b2e5fd822b60","null","","null","","","","","","","","./tasks/HMM-beads/Images/WhiteBeadChoiceCorrect.png","","","","","","","","","",""
"image-keyboard-response","319","514914","0.0-3.0-6.0-1.0-0.61","65ebb614d2f7accb27486117","6662009ae78f21dd82fcd179","66620a0829f6b2e5fd822b60","414","","j","","","","","","","","./tasks/HMM-beads/Images/NewTrialWC.png","lowH","1","61","1","1","1","1","true","",""
"image-keyboard-response","320","515218","0.0-3.0-6.0-1.0-1.61","65ebb614d2f7accb27486117","6662009ae78f21dd82fcd179","66620a0829f6b2e5fd822b60","null","","null","","","","","","","","./tasks/HMM-beads/Images/WhiteBeadChoice.png","","","","","","","","","",""
"image-keyboard-response","321","515721","0.0-3.0-6.0-1.0-2.61","65ebb614d2f7accb27486117","6662009ae78f21dd82fcd179","66620a0829f6b2e5fd822b60","null","","null","","","","","","","","./tasks/HMM-beads/Images/WhiteBeadChoiceCorrect.png","","","","","","","","","",""
"image-keyboard-response","322","516117","0.0-3.0-6.0-1.0-0.62","65ebb614d2f7accb27486117","6662009ae78f21dd82fcd179","66620a0829f6b2e5fd822b60","393","","j","","","","","","","","./tasks/HMM-beads/Images/NewTrialWC.png","lowH","1","62","1","0","1","1","false","",""
"image-keyboard-response","323","516420","0.0-3.0-6.0-1.0-1.62","65ebb614d2f7accb27486117","6662009ae78f21dd82fcd179","66620a0829f6b2e5fd822b60","null","","null","","","","","","","","./tasks/HMM-beads/Images/WhiteBeadChoice.png","","","","","","","","","",""
"image-keyboard-response","324","516923","0.0-3.0-6.0-1.0-2.62","65ebb614d2f7accb27486117","6662009ae78f21dd82fcd179","66620a0829f6b2e5fd822b60","null","","null","","","","","","","","./tasks/HMM-beads/Images/WhiteBeadChoiceWrong.png","","","","","","","","","",""
"image-keyboard-response","325","517413","0.0-3.0-6.0-1.0-0.63","65ebb614d2f7accb27486117","6662009ae78f21dd82fcd179","66620a0829f6b2e5fd822b60","486","","j","","","","","","","","./tasks/HMM-beads/Images/NewTrialBC.png","lowH","1","63","1","1","0","1","true","",""
"image-keyboard-response","326","517716","0.0-3.0-6.0-1.0-1.63","65ebb614d2f7accb27486117","6662009ae78f21dd82fcd179","66620a0829f6b2e5fd822b60","null","","null","","","","","","","","./tasks/HMM-beads/Images/WhiteBeadChoice.png","","","","","","","","","",""
"image-keyboard-response","327","518220","0.0-3.0-6.0-1.0-2.63","65ebb614d2f7accb27486117","6662009ae78f21dd82fcd179","66620a0829f6b2e5fd822b60","null","","null","","","","","","","","./tasks/HMM-beads/Images/WhiteBeadChoiceCorrect.png","","","","","","","","","",""
"image-keyboard-response","328","518575","0.0-3.0-6.0-1.0-0.64","65ebb614d2f7accb27486117","6662009ae78f21dd82fcd179","66620a0829f6b2e5fd822b60","353","","j","","","","","","","","./tasks/HMM-beads/Images/NewTrialWC.png","lowH","1","64","1","1","1","1","true","",""
"image-keyboard-response","329","518878","0.0-3.0-6.0-1.0-1.64","65ebb614d2f7accb27486117","6662009ae78f21dd82fcd179","66620a0829f6b2e5fd822b60","null","","null","","","","","","","","./tasks/HMM-beads/Images/WhiteBeadChoice.png","","","","","","","","","",""
"image-keyboard-response","330","519381","0.0-3.0-6.0-1.0-2.64","65ebb614d2f7accb27486117","6662009ae78f21dd82fcd179","66620a0829f6b2e5fd822b60","null","","null","","","","","","","","./tasks/HMM-beads/Images/WhiteBeadChoiceCorrect.png","","","","","","","","","",""
"image-keyboard-response","331","519819","0.0-3.0-6.0-1.0-0.65","65ebb614d2f7accb27486117","6662009ae78f21dd82fcd179","66620a0829f6b2e5fd822b60","435","","j","","","","","","","","./tasks/HMM-beads/Images/NewTrialWC.png","lowH","1","65","1","1","1","1","true","",""
"image-keyboard-response","332","520122","0.0-3.0-6.0-1.0-1.65","65ebb614d2f7accb27486117","6662009ae78f21dd82fcd179","66620a0829f6b2e5fd822b60","null","","null","","","","","","","","./tasks/HMM-beads/Images/WhiteBeadChoice.png","","","","","","","","","",""
"image-keyboard-response","333","520625","0.0-3.0-6.0-1.0-2.65","65ebb614d2f7accb27486117","6662009ae78f21dd82fcd179","66620a0829f6b2e5fd822b60","null","","null","","","","","","","","./tasks/HMM-beads/Images/WhiteBeadChoiceCorrect.png","","","","","","","","","",""
"image-keyboard-response","334","521093","0.0-3.0-6.0-1.0-0.66","65ebb614d2f7accb27486117","6662009ae78f21dd82fcd179","66620a0829f6b2e5fd822b60","465","","j","","","","","","","","./tasks/HMM-beads/Images/NewTrialWC.png","lowH","1","66","1","1","1","1","true","",""
"image-keyboard-response","335","521396","0.0-3.0-6.0-1.0-1.66","65ebb614d2f7accb27486117","6662009ae78f21dd82fcd179","66620a0829f6b2e5fd822b60","null","","null","","","","","","","","./tasks/HMM-beads/Images/WhiteBeadChoice.png","","","","","","","","","",""
"image-keyboard-response","336","521899","0.0-3.0-6.0-1.0-2.66","65ebb614d2f7accb27486117","6662009ae78f21dd82fcd179","66620a0829f6b2e5fd822b60","null","","null","","","","","","","","./tasks/HMM-beads/Images/WhiteBeadChoiceCorrect.png","","","","","","","","","",""
"image-keyboard-response","337","522335","0.0-3.0-6.0-1.0-0.67","65ebb614d2f7accb27486117","6662009ae78f21dd82fcd179","66620a0829f6b2e5fd822b60","433","","j","","","","","","","","./tasks/HMM-beads/Images/NewTrialWC.png","lowH","1","67","1","0","1","1","false","",""
"image-keyboard-response","338","522637","0.0-3.0-6.0-1.0-1.67","65ebb614d2f7accb27486117","6662009ae78f21dd82fcd179","66620a0829f6b2e5fd822b60","null","","null","","","","","","","","./tasks/HMM-beads/Images/WhiteBeadChoice.png","","","","","","","","","",""
"image-keyboard-response","339","523140","0.0-3.0-6.0-1.0-2.67","65ebb614d2f7accb27486117","6662009ae78f21dd82fcd179","66620a0829f6b2e5fd822b60","null","","null","","","","","","","","./tasks/HMM-beads/Images/WhiteBeadChoiceWrong.png","","","","","","","","","",""
"image-keyboard-response","340","523530","0.0-3.0-6.0-1.0-0.68","65ebb614d2f7accb27486117","6662009ae78f21dd82fcd179","66620a0829f6b2e5fd822b60","387","","j","","","","","","","","./tasks/HMM-beads/Images/NewTrialBC.png","lowH","1","68","1","1","0","1","true","",""
"image-keyboard-response","341","523833","0.0-3.0-6.0-1.0-1.68","65ebb614d2f7accb27486117","6662009ae78f21dd82fcd179","66620a0829f6b2e5fd822b60","null","","null","","","","","","","","./tasks/HMM-beads/Images/WhiteBeadChoice.png","","","","","","","","","",""
"image-keyboard-response","342","524336","0.0-3.0-6.0-1.0-2.68","65ebb614d2f7accb27486117","6662009ae78f21dd82fcd179","66620a0829f6b2e5fd822b60","null","","null","","","","","","","","./tasks/HMM-beads/Images/WhiteBeadChoiceCorrect.png","","","","","","","","","",""
"image-keyboard-response","343","524857","0.0-3.0-6.0-1.0-0.69","65ebb614d2f7accb27486117","6662009ae78f21dd82fcd179","66620a0829f6b2e5fd822b60","518","","j","","","","","","","","./tasks/HMM-beads/Images/NewTrialWC.png","lowH","1","69","0","1","1","1","true","",""
"image-keyboard-response","344","525160","0.0-3.0-6.0-1.0-1.69","65ebb614d2f7accb27486117","6662009ae78f21dd82fcd179","66620a0829f6b2e5fd822b60","null","","null","","","","","","","","./tasks/HMM-beads/Images/WhiteBeadChoice.png","","","","","","","","","",""
"image-keyboard-response","345","525663","0.0-3.0-6.0-1.0-2.69","65ebb614d2f7accb27486117","6662009ae78f21dd82fcd179","66620a0829f6b2e5fd822b60","null","","null","","","","","","","","./tasks/HMM-beads/Images/WhiteBeadChoiceCorrect.png","","","","","","","","","",""
"image-keyboard-response","346","526177","0.0-3.0-6.0-1.0-0.70","65ebb614d2f7accb27486117","6662009ae78f21dd82fcd179","66620a0829f6b2e5fd822b60","513","","j","","","","","","","","./tasks/HMM-beads/Images/NewTrialWC.png","lowH","1","70","0","1","1","1","true","",""
"image-keyboard-response","347","526480","0.0-3.0-6.0-1.0-1.70","65ebb614d2f7accb27486117","6662009ae78f21dd82fcd179","66620a0829f6b2e5fd822b60","null","","null","","","","","","","","./tasks/HMM-beads/Images/WhiteBeadChoice.png","","","","","","","","","",""
"image-keyboard-response","348","526982","0.0-3.0-6.0-1.0-2.70","65ebb614d2f7accb27486117","6662009ae78f21dd82fcd179","66620a0829f6b2e5fd822b60","null","","null","","","","","","","","./tasks/HMM-beads/Images/WhiteBeadChoiceCorrect.png","","","","","","","","","",""
"image-keyboard-response","349","527488","0.0-3.0-6.0-1.0-0.71","65ebb614d2f7accb27486117","6662009ae78f21dd82fcd179","66620a0829f6b2e5fd822b60","504","","j","","","","","","","","./tasks/HMM-beads/Images/NewTrialWC.png","lowH","1","71","0","0","1","1","false","",""
"image-keyboard-response","350","527791","0.0-3.0-6.0-1.0-1.71","65ebb614d2f7accb27486117","6662009ae78f21dd82fcd179","66620a0829f6b2e5fd822b60","null","","null","","","","","","","","./tasks/HMM-beads/Images/WhiteBeadChoice.png","","","","","","","","","",""
"image-keyboard-response","351","528294","0.0-3.0-6.0-1.0-2.71","65ebb614d2f7accb27486117","6662009ae78f21dd82fcd179","66620a0829f6b2e5fd822b60","null","","null","","","","","","","","./tasks/HMM-beads/Images/WhiteBeadChoiceWrong.png","","","","","","","","","",""
"image-keyboard-response","352","528747","0.0-3.0-6.0-1.0-0.72","65ebb614d2f7accb27486117","6662009ae78f21dd82fcd179","66620a0829f6b2e5fd822b60","451","","j","","","","","","","","./tasks/HMM-beads/Images/NewTrialBC.png","lowH","1","72","0","0","0","1","false","",""
"image-keyboard-response","353","529050","0.0-3.0-6.0-1.0-1.72","65ebb614d2f7accb27486117","6662009ae78f21dd82fcd179","66620a0829f6b2e5fd822b60","null","","null","","","","","","","","./tasks/HMM-beads/Images/WhiteBeadChoice.png","","","","","","","","","",""
"image-keyboard-response","354","529553","0.0-3.0-6.0-1.0-2.72","65ebb614d2f7accb27486117","6662009ae78f21dd82fcd179","66620a0829f6b2e5fd822b60","null","","null","","","","","","","","./tasks/HMM-beads/Images/WhiteBeadChoiceWrong.png","","","","","","","","","",""
"image-keyboard-response","355","529979","0.0-3.0-6.0-1.0-0.73","65ebb614d2f7accb27486117","6662009ae78f21dd82fcd179","66620a0829f6b2e5fd822b60","423","","j","","","","","","","","./tasks/HMM-beads/Images/NewTrialBC.png","lowH","1","73","0","1","0","1","true","",""
"image-keyboard-response","356","530283","0.0-3.0-6.0-1.0-1.73","65ebb614d2f7accb27486117","6662009ae78f21dd82fcd179","66620a0829f6b2e5fd822b60","null","","null","","","","","","","","./tasks/HMM-beads/Images/WhiteBeadChoice.png","","","","","","","","","",""
"image-keyboard-response","357","530787","0.0-3.0-6.0-1.0-2.73","65ebb614d2f7accb27486117","6662009ae78f21dd82fcd179","66620a0829f6b2e5fd822b60","null","","null","","","","","","","","./tasks/HMM-beads/Images/WhiteBeadChoiceCorrect.png","","","","","","","","","",""
"image-keyboard-response","358","531361","0.0-3.0-6.0-1.0-0.74","65ebb614d2f7accb27486117","6662009ae78f21dd82fcd179","66620a0829f6b2e5fd822b60","572","","j","","","","","","","","./tasks/HMM-beads/Images/NewTrialWC.png","lowH","1","74","0","0","1","1","false","",""
"image-keyboard-response","359","531664","0.0-3.0-6.0-1.0-1.74","65ebb614d2f7accb27486117","6662009ae78f21dd82fcd179","66620a0829f6b2e5fd822b60","null","","null","","","","","","","","./tasks/HMM-beads/Images/WhiteBeadChoice.png","","","","","","","","","",""
"image-keyboard-response","360","532167","0.0-3.0-6.0-1.0-2.74","65ebb614d2f7accb27486117","6662009ae78f21dd82fcd179","66620a0829f6b2e5fd822b60","null","","null","","","","","","","","./tasks/HMM-beads/Images/WhiteBeadChoiceWrong.png","","","","","","","","","",""
"image-keyboard-response","361","533526","0.0-3.0-6.0-1.0-0.75","65ebb614d2f7accb27486117","6662009ae78f21dd82fcd179","66620a0829f6b2e5fd822b60","1357","","j","","","","","","","","./tasks/HMM-beads/Images/NewTrialBC.png","lowH","1","75","0","1","0","1","true","",""
"image-keyboard-response","362","533829","0.0-3.0-6.0-1.0-1.75","65ebb614d2f7accb27486117","6662009ae78f21dd82fcd179","66620a0829f6b2e5fd822b60","null","","null","","","","","","","","./tasks/HMM-beads/Images/WhiteBeadChoice.png","","","","","","","","","",""
"image-keyboard-response","363","534332","0.0-3.0-6.0-1.0-2.75","65ebb614d2f7accb27486117","6662009ae78f21dd82fcd179","66620a0829f6b2e5fd822b60","null","","null","","","","","","","","./tasks/HMM-beads/Images/WhiteBeadChoiceCorrect.png","","","","","","","","","",""
"image-keyboard-response","364","535011","0.0-3.0-6.0-1.0-0.76","65ebb614d2f7accb27486117","6662009ae78f21dd82fcd179","66620a0829f6b2e5fd822b60","676","","j","","","","","","","","./tasks/HMM-beads/Images/NewTrialWC.png","lowH","1","76","0","1","1","1","true","",""
"image-keyboard-response","365","535314","0.0-3.0-6.0-1.0-1.76","65ebb614d2f7accb27486117","6662009ae78f21dd82fcd179","66620a0829f6b2e5fd822b60","null","","null","","","","","","","","./tasks/HMM-beads/Images/WhiteBeadChoice.png","","","","","","","","","",""
"image-keyboard-response","366","535817","0.0-3.0-6.0-1.0-2.76","65ebb614d2f7accb27486117","6662009ae78f21dd82fcd179","66620a0829f6b2e5fd822b60","null","","null","","","","","","","","./tasks/HMM-beads/Images/WhiteBeadChoiceCorrect.png","","","","","","","","","",""
"image-keyboard-response","367","536297","0.0-3.0-6.0-1.0-0.77","65ebb614d2f7accb27486117","6662009ae78f21dd82fcd179","66620a0829f6b2e5fd822b60","477","","j","","","","","","","","./tasks/HMM-beads/Images/NewTrialWC.png","lowH","1","77","0","0","1","1","false","",""
"image-keyboard-response","368","536599","0.0-3.0-6.0-1.0-1.77","65ebb614d2f7accb27486117","6662009ae78f21dd82fcd179","66620a0829f6b2e5fd822b60","null","","null","","","","","","","","./tasks/HMM-beads/Images/WhiteBeadChoice.png","","","","","","","","","",""
"image-keyboard-response","369","537103","0.0-3.0-6.0-1.0-2.77","65ebb614d2f7accb27486117","6662009ae78f21dd82fcd179","66620a0829f6b2e5fd822b60","null","","null","","","","","","","","./tasks/HMM-beads/Images/WhiteBeadChoiceWrong.png","","","","","","","","","",""
"image-keyboard-response","370","538545","0.0-3.0-6.0-1.0-0.78","65ebb614d2f7accb27486117","6662009ae78f21dd82fcd179","66620a0829f6b2e5fd822b60","1441","","j","","","","","","","","./tasks/HMM-beads/Images/NewTrialBC.png","lowH","1","78","0","0","0","1","false","",""
"image-keyboard-response","371","538848","0.0-3.0-6.0-1.0-1.78","65ebb614d2f7accb27486117","6662009ae78f21dd82fcd179","66620a0829f6b2e5fd822b60","null","","null","","","","","","","","./tasks/HMM-beads/Images/WhiteBeadChoice.png","","","","","","","","","",""
"image-keyboard-response","372","539351","0.0-3.0-6.0-1.0-2.78","65ebb614d2f7accb27486117","6662009ae78f21dd82fcd179","66620a0829f6b2e5fd822b60","null","","null","","","","","","","","./tasks/HMM-beads/Images/WhiteBeadChoiceWrong.png","","","","","","","","","",""
"image-keyboard-response","373","539734","0.0-3.0-6.0-1.0-0.79","65ebb614d2f7accb27486117","6662009ae78f21dd82fcd179","66620a0829f6b2e5fd822b60","380","","f","","","","","","","","./tasks/HMM-beads/Images/NewTrialBC.png","lowH","1","79","0","0","0","0","true","",""
"image-keyboard-response","374","540037","0.0-3.0-6.0-1.0-1.79","65ebb614d2f7accb27486117","6662009ae78f21dd82fcd179","66620a0829f6b2e5fd822b60","null","","null","","","","","","","","./tasks/HMM-beads/Images/BlackBeadChoice.png","","","","","","","","","",""
