"trial_type","trial_index","time_elapsed","internal_node_id","subject_id","study_id","session_id","rt","url","response","question_order","view_history","success","timeout","failed_images","failed_audio","failed_video","stimulus","block","block_rep","trial_number","jar","bead","previous_bead","choice","correct","lowH_score","total_bonus"
"pavlovia","0","1314","0.0-0.0","66413412d9d93d6b67936792","6662009ae78f21dd82fcd179","66620a12ca26ef67a4b08def","","","","","","","","","","","","","","","","","","","","",""
"external-html","1","24618","0.0-1.0-0.0","66413412d9d93d6b67936792","6662009ae78f21dd82fcd179","66620a12ca26ef67a4b08def","23098","new_consent.html","","","","","","","","","","","","","","","","","","",""
"survey-multi-choice","2","30267","0.0-1.0-1.0","66413412d9d93d6b67936792","6662009ae78f21dd82fcd179","66620a12ca26ef67a4b08def","5647","","{""Q0"":""Female"",""Q1"":""Hispanic or Latino""}","[0,1]","","","","","","","","","","","","","","","","",""
"survey-text","3","33517","0.0-1.0-2.0","66413412d9d93d6b67936792","6662009ae78f21dd82fcd179","66620a12ca26ef67a4b08def","3245","","{""Q0"":""27""}","","","","","","","","","","","","","","","","","",""
"instructions","4","36215","0.0-2.0","66413412d9d93d6b67936792","6662009ae78f21dd82fcd179","66620a12ca26ef67a4b08def","2595","","","","[{""page_index"":0,""viewing_time"":2595}]","","","","","","","","","","","","","","","",""
"preload","5","38283","0.0-3.0-0.0","66413412d9d93d6b67936792","6662009ae78f21dd82fcd179","66620a12ca26ef67a4b08def","","","","","","true","false","[]","[]","[]","","","","","","","","","","",""
"instructions","6","111201","0.0-3.0-1.0","66413412d9d93d6b67936792","6662009ae78f21dd82fcd179","66620a12ca26ef67a4b08def","72917","","","","[{""page_index"":0,""viewing_time"":11100},{""page_index"":1,""viewing_time"":8350},{""page_index"":2,""viewing_time"":3716},{""page_index"":3,""viewing_time"":1784},{""page_index"":4,""viewing_time"":5834},{""page_index"":5,""viewing_time"":13383},{""page_index"":6,""viewing_time"":4485},{""page_index"":7,""viewing_time"":7799},{""page_index"":8,""viewing_time"":4950},{""page_index"":9,""viewing_time"":1700},{""page_index"":10,""viewing_time"":6499},{""page_index"":11,""viewing_time"":3318}]","","","","","","","","","","","","","","","",""
"html-button-response","7","116117","0.0-3.0-2.0-0.0-0.0","66413412d9d93d6b67936792","6662009ae78f21dd82fcd179","66620a12ca26ef67a4b08def","4914","","1","","","","","","","","<div align=center>Your goal is to predict…?<br><br></div>","","","","","","","","","",""
"html-button-response","8","121750","0.0-3.0-2.0-1.0-0.0","66413412d9d93d6b67936792","6662009ae78f21dd82fcd179","66620a12ca26ef67a4b08def","3747","","2","","","","","","","","<div align=center>In the jar with mostly white beads, there are ___% white beads and ___% black beads?<br><br></div>","","","","","","","","","",""
"html-button-response","9","129000","0.0-3.0-2.0-2.0-0.0","66413412d9d93d6b67936792","6662009ae78f21dd82fcd179","66620a12ca26ef67a4b08def","5631","","0","","","","","","","","<div align=center>When there is a 1% probability that the jars will switch, the next bead will most likely be drawn from the…<br><br></div>","","","","","","","","","",""
"html-button-response","10","131817","0.0-3.0-2.0-3.0-0.0","66413412d9d93d6b67936792","6662009ae78f21dd82fcd179","66620a12ca26ef67a4b08def","1614","","1","","","","","","","","<div align=center>When there is a 99% probability that the jars will switch, the next bead will most likely be drawn from the…<br><br></div>","","","","","","","","","",""
"instructions","11","135867","0.0-3.0-3.0","66413412d9d93d6b67936792","6662009ae78f21dd82fcd179","66620a12ca26ef67a4b08def","2697","","","","[{""page_index"":0,""viewing_time"":2697}]","","","","","","","","","","","","","","","",""
"html-keyboard-response","12","139770","0.0-3.0-4.0-0.0","66413412d9d93d6b67936792","6662009ae78f21dd82fcd179","66620a12ca26ef67a4b08def","3902",""," ","","","","","","","","<div align=center>In this practice block, there will be a <b>1% chance</b> that the jar on the next trial will be different from the jar on the current trial.<br><br></div>","","","","","","","","","",""
"image-keyboard-response","13","148035","0.0-3.0-4.0-1.0-0.0","66413412d9d93d6b67936792","6662009ae78f21dd82fcd179","66620a12ca26ef67a4b08def","8260","","f","","","","","","","","./tasks/HMM-beads/Images/NoChoice.png","practice","0","0","0","0","9","0","true","",""
"image-keyboard-response","14","148341","0.0-3.0-4.0-1.0-1.0","66413412d9d93d6b67936792","6662009ae78f21dd82fcd179","66620a12ca26ef67a4b08def","null","","null","","","","","","","","./tasks/HMM-beads/Images/BlackBeadChoice.png","","","","","","","","","",""
"image-keyboard-response","15","148844","0.0-3.0-4.0-1.0-2.0","66413412d9d93d6b67936792","6662009ae78f21dd82fcd179","66620a12ca26ef67a4b08def","null","","null","","","","","","","","./tasks/HMM-beads/Images/BlackBeadChoiceCorrect.png","","","","","","","","","",""
"image-keyboard-response","16","154977","0.0-3.0-4.0-1.0-0.1","66413412d9d93d6b67936792","6662009ae78f21dd82fcd179","66620a12ca26ef67a4b08def","6131","","f","","","","","","","","./tasks/HMM-beads/Images/NewTrialBC.png","practice","0","1","0","0","0","0","true","",""
"image-keyboard-response","17","155279","0.0-3.0-4.0-1.0-1.1","66413412d9d93d6b67936792","6662009ae78f21dd82fcd179","66620a12ca26ef67a4b08def","null","","null","","","","","","","","./tasks/HMM-beads/Images/BlackBeadChoice.png","","","","","","","","","",""
"image-keyboard-response","18","155783","0.0-3.0-4.0-1.0-2.1","66413412d9d93d6b67936792","6662009ae78f21dd82fcd179","66620a12ca26ef67a4b08def","null","","null","","","","","","","","./tasks/HMM-beads/Images/BlackBeadChoiceCorrect.png","","","","","","","","","",""
"image-keyboard-response","19","156627","0.0-3.0-4.0-1.0-0.2","66413412d9d93d6b67936792","6662009ae78f21dd82fcd179","66620a12ca26ef67a4b08def","843","","f","","","","","","","","./tasks/HMM-beads/Images/NewTrialBC.png","practice","0","2","0","1","0","0","false","",""
"image-keyboard-response","20","156930","0.0-3.0-4.0-1.0-1.2","66413412d9d93d6b67936792","6662009ae78f21dd82fcd179","66620a12ca26ef67a4b08def","null","","null","","","","","","","","./tasks/HMM-beads/Images/BlackBeadChoice.png","","","","","","","","","",""
"image-keyboard-response","21","157433","0.0-3.0-4.0-1.0-2.2","66413412d9d93d6b67936792","6662009ae78f21dd82fcd179","66620a12ca26ef67a4b08def","null","","null","","","","","","","","./tasks/HMM-beads/Images/BlackBeadChoiceWrong.png","","","","","","","","","",""
"image-keyboard-response","22","161790","0.0-3.0-4.0-1.0-0.3","66413412d9d93d6b67936792","6662009ae78f21dd82fcd179","66620a12ca26ef67a4b08def","4355","","j","","","","","","","","./tasks/HMM-beads/Images/NewTrialWC.png","practice","0","3","0","0","1","1","false","",""
"image-keyboard-response","23","162093","0.0-3.0-4.0-1.0-1.3","66413412d9d93d6b67936792","6662009ae78f21dd82fcd179","66620a12ca26ef67a4b08def","null","","null","","","","","","","","./tasks/HMM-beads/Images/WhiteBeadChoice.png","","","","","","","","","",""
"image-keyboard-response","24","162597","0.0-3.0-4.0-1.0-2.3","66413412d9d93d6b67936792","6662009ae78f21dd82fcd179","66620a12ca26ef67a4b08def","null","","null","","","","","","","","./tasks/HMM-beads/Images/WhiteBeadChoiceWrong.png","","","","","","","","","",""
"image-keyboard-response","25","163506","0.0-3.0-4.0-1.0-0.4","66413412d9d93d6b67936792","6662009ae78f21dd82fcd179","66620a12ca26ef67a4b08def","907","","f","","","","","","","","./tasks/HMM-beads/Images/NewTrialBC.png","practice","0","4","0","0","0","0","true","",""
"image-keyboard-response","26","163809","0.0-3.0-4.0-1.0-1.4","66413412d9d93d6b67936792","6662009ae78f21dd82fcd179","66620a12ca26ef67a4b08def","null","","null","","","","","","","","./tasks/HMM-beads/Images/BlackBeadChoice.png","","","","","","","","","",""
"image-keyboard-response","27","164312","0.0-3.0-4.0-1.0-2.4","66413412d9d93d6b67936792","6662009ae78f21dd82fcd179","66620a12ca26ef67a4b08def","null","","null","","","","","","","","./tasks/HMM-beads/Images/BlackBeadChoiceCorrect.png","","","","","","","","","",""
"image-keyboard-response","28","164937","0.0-3.0-4.0-1.0-0.5","66413412d9d93d6b67936792","6662009ae78f21dd82fcd179","66620a12ca26ef67a4b08def","624","","f","","","","","","","","./tasks/HMM-beads/Images/NewTrialBC.png","practice","0","5","0","1","0","0","false","",""
"image-keyboard-response","29","165241","0.0-3.0-4.0-1.0-1.5","66413412d9d93d6b67936792","6662009ae78f21dd82fcd179","66620a12ca26ef67a4b08def","null","","null","","","","","","","","./tasks/HMM-beads/Images/BlackBeadChoice.png","","","","","","","","","",""
"image-keyboard-response","30","165744","0.0-3.0-4.0-1.0-2.5","66413412d9d93d6b67936792","6662009ae78f21dd82fcd179","66620a12ca26ef67a4b08def","null","","null","","","","","","","","./tasks/HMM-beads/Images/BlackBeadChoiceWrong.png","","","","","","","","","",""
"image-keyboard-response","31","166333","0.0-3.0-4.0-1.0-0.6","66413412d9d93d6b67936792","6662009ae78f21dd82fcd179","66620a12ca26ef67a4b08def","587","","j","","","","","","","","./tasks/HMM-beads/Images/NewTrialWC.png","practice","0","6","0","0","1","1","false","",""
"image-keyboard-response","32","166636","0.0-3.0-4.0-1.0-1.6","66413412d9d93d6b67936792","6662009ae78f21dd82fcd179","66620a12ca26ef67a4b08def","null","","null","","","","","","","","./tasks/HMM-beads/Images/WhiteBeadChoice.png","","","","","","","","","",""
"image-keyboard-response","33","167139","0.0-3.0-4.0-1.0-2.6","66413412d9d93d6b67936792","6662009ae78f21dd82fcd179","66620a12ca26ef67a4b08def","null","","null","","","","","","","","./tasks/HMM-beads/Images/WhiteBeadChoiceWrong.png","","","","","","","","","",""
"image-keyboard-response","34","168024","0.0-3.0-4.0-1.0-0.7","66413412d9d93d6b67936792","6662009ae78f21dd82fcd179","66620a12ca26ef67a4b08def","883","","f","","","","","","","","./tasks/HMM-beads/Images/NewTrialBC.png","practice","0","7","0","0","0","0","true","",""
"image-keyboard-response","35","168327","0.0-3.0-4.0-1.0-1.7","66413412d9d93d6b67936792","6662009ae78f21dd82fcd179","66620a12ca26ef67a4b08def","null","","null","","","","","","","","./tasks/HMM-beads/Images/BlackBeadChoice.png","","","","","","","","","",""
"image-keyboard-response","36","168830","0.0-3.0-4.0-1.0-2.7","66413412d9d93d6b67936792","6662009ae78f21dd82fcd179","66620a12ca26ef67a4b08def","null","","null","","","","","","","","./tasks/HMM-beads/Images/BlackBeadChoiceCorrect.png","","","","","","","","","",""
"image-keyboard-response","37","169692","0.0-3.0-4.0-1.0-0.8","66413412d9d93d6b67936792","6662009ae78f21dd82fcd179","66620a12ca26ef67a4b08def","861","","f","","","","","","","","./tasks/HMM-beads/Images/NewTrialBC.png","practice","0","8","0","0","0","0","true","",""
"image-keyboard-response","38","170001","0.0-3.0-4.0-1.0-1.8","66413412d9d93d6b67936792","6662009ae78f21dd82fcd179","66620a12ca26ef67a4b08def","null","","null","","","","","","","","./tasks/HMM-beads/Images/BlackBeadChoice.png","","","","","","","","","",""
"image-keyboard-response","39","170505","0.0-3.0-4.0-1.0-2.8","66413412d9d93d6b67936792","6662009ae78f21dd82fcd179","66620a12ca26ef67a4b08def","null","","null","","","","","","","","./tasks/HMM-beads/Images/BlackBeadChoiceCorrect.png","","","","","","","","","",""
"image-keyboard-response","40","171461","0.0-3.0-4.0-1.0-0.9","66413412d9d93d6b67936792","6662009ae78f21dd82fcd179","66620a12ca26ef67a4b08def","954","","f","","","","","","","","./tasks/HMM-beads/Images/NewTrialBC.png","practice","0","9","0","1","0","0","false","",""
"image-keyboard-response","41","171764","0.0-3.0-4.0-1.0-1.9","66413412d9d93d6b67936792","6662009ae78f21dd82fcd179","66620a12ca26ef67a4b08def","null","","null","","","","","","","","./tasks/HMM-beads/Images/BlackBeadChoice.png","","","","","","","","","",""
"image-keyboard-response","42","172267","0.0-3.0-4.0-1.0-2.9","66413412d9d93d6b67936792","6662009ae78f21dd82fcd179","66620a12ca26ef67a4b08def","null","","null","","","","","","","","./tasks/HMM-beads/Images/BlackBeadChoiceWrong.png","","","","","","","","","",""
"image-keyboard-response","43","172677","0.0-3.0-4.0-1.0-0.10","66413412d9d93d6b67936792","6662009ae78f21dd82fcd179","66620a12ca26ef67a4b08def","408","","j","","","","","","","","./tasks/HMM-beads/Images/NewTrialWC.png","practice","0","10","0","0","1","1","false","",""
"image-keyboard-response","44","172979","0.0-3.0-4.0-1.0-1.10","66413412d9d93d6b67936792","6662009ae78f21dd82fcd179","66620a12ca26ef67a4b08def","null","","null","","","","","","","","./tasks/HMM-beads/Images/WhiteBeadChoice.png","","","","","","","","","",""
"image-keyboard-response","45","173481","0.0-3.0-4.0-1.0-2.10","66413412d9d93d6b67936792","6662009ae78f21dd82fcd179","66620a12ca26ef67a4b08def","null","","null","","","","","","","","./tasks/HMM-beads/Images/WhiteBeadChoiceWrong.png","","","","","","","","","",""
"image-keyboard-response","46","174753","0.0-3.0-4.0-1.0-0.11","66413412d9d93d6b67936792","6662009ae78f21dd82fcd179","66620a12ca26ef67a4b08def","1270","","f","","","","","","","","./tasks/HMM-beads/Images/NewTrialBC.png","practice","0","11","0","1","0","0","false","",""
"image-keyboard-response","47","175056","0.0-3.0-4.0-1.0-1.11","66413412d9d93d6b67936792","6662009ae78f21dd82fcd179","66620a12ca26ef67a4b08def","null","","null","","","","","","","","./tasks/HMM-beads/Images/BlackBeadChoice.png","","","","","","","","","",""
"image-keyboard-response","48","175560","0.0-3.0-4.0-1.0-2.11","66413412d9d93d6b67936792","6662009ae78f21dd82fcd179","66620a12ca26ef67a4b08def","null","","null","","","","","","","","./tasks/HMM-beads/Images/BlackBeadChoiceWrong.png","","","","","","","","","",""
"image-keyboard-response","49","177472","0.0-3.0-4.0-1.0-0.12","66413412d9d93d6b67936792","6662009ae78f21dd82fcd179","66620a12ca26ef67a4b08def","1910","","j","","","","","","","","./tasks/HMM-beads/Images/NewTrialWC.png","practice","0","12","0","0","1","1","false","",""
"image-keyboard-response","50","177775","0.0-3.0-4.0-1.0-1.12","66413412d9d93d6b67936792","6662009ae78f21dd82fcd179","66620a12ca26ef67a4b08def","null","","null","","","","","","","","./tasks/HMM-beads/Images/WhiteBeadChoice.png","","","","","","","","","",""
"image-keyboard-response","51","178285","0.0-3.0-4.0-1.0-2.12","66413412d9d93d6b67936792","6662009ae78f21dd82fcd179","66620a12ca26ef67a4b08def","null","","null","","","","","","","","./tasks/HMM-beads/Images/WhiteBeadChoiceWrong.png","","","","","","","","","",""
"image-keyboard-response","52","178557","0.0-3.0-4.0-1.0-0.13","66413412d9d93d6b67936792","6662009ae78f21dd82fcd179","66620a12ca26ef67a4b08def","270","","f","","","","","","","","./tasks/HMM-beads/Images/NewTrialBC.png","practice","0","13","0","0","0","0","true","",""
"image-keyboard-response","53","178860","0.0-3.0-4.0-1.0-1.13","66413412d9d93d6b67936792","6662009ae78f21dd82fcd179","66620a12ca26ef67a4b08def","null","","null","","","","","","","","./tasks/HMM-beads/Images/BlackBeadChoice.png","","","","","","","","","",""
"image-keyboard-response","54","179363","0.0-3.0-4.0-1.0-2.13","66413412d9d93d6b67936792","6662009ae78f21dd82fcd179","66620a12ca26ef67a4b08def","null","","null","","","","","","","","./tasks/HMM-beads/Images/BlackBeadChoiceCorrect.png","","","","","","","","","",""
"image-keyboard-response","55","179411","0.0-3.0-4.0-1.0-0.14","66413412d9d93d6b67936792","6662009ae78f21dd82fcd179","66620a12ca26ef67a4b08def","46","","f","","","","","","","","./tasks/HMM-beads/Images/NewTrialBC.png","practice","0","14","0","0","0","0","true","",""
"image-keyboard-response","56","179714","0.0-3.0-4.0-1.0-1.14","66413412d9d93d6b67936792","6662009ae78f21dd82fcd179","66620a12ca26ef67a4b08def","null","","null","","","","","","","","./tasks/HMM-beads/Images/BlackBeadChoice.png","","","","","","","","","",""
"image-keyboard-response","57","180218","0.0-3.0-4.0-1.0-2.14","66413412d9d93d6b67936792","6662009ae78f21dd82fcd179","66620a12ca26ef67a4b08def","null","","null","","","","","","","","./tasks/HMM-beads/Images/BlackBeadChoiceCorrect.png","","","","","","","","","",""
"image-keyboard-response","58","181533","0.0-3.0-4.0-1.0-0.15","66413412d9d93d6b67936792","6662009ae78f21dd82fcd179","66620a12ca26ef67a4b08def","1313","","f","","","","","","","","./tasks/HMM-beads/Images/NewTrialBC.png","practice","0","15","0","0","0","0","true","",""
"image-keyboard-response","59","181836","0.0-3.0-4.0-1.0-1.15","66413412d9d93d6b67936792","6662009ae78f21dd82fcd179","66620a12ca26ef67a4b08def","null","","null","","","","","","","","./tasks/HMM-beads/Images/BlackBeadChoice.png","","","","","","","","","",""
"image-keyboard-response","60","182339","0.0-3.0-4.0-1.0-2.15","66413412d9d93d6b67936792","6662009ae78f21dd82fcd179","66620a12ca26ef67a4b08def","null","","null","","","","","","","","./tasks/HMM-beads/Images/BlackBeadChoiceCorrect.png","","","","","","","","","",""
"image-keyboard-response","61","182557","0.0-3.0-4.0-1.0-0.16","66413412d9d93d6b67936792","6662009ae78f21dd82fcd179","66620a12ca26ef67a4b08def","217","","f","","","","","","","","./tasks/HMM-beads/Images/NewTrialBC.png","practice","0","16","0","0","0","0","true","",""
"image-keyboard-response","62","182860","0.0-3.0-4.0-1.0-1.16","66413412d9d93d6b67936792","6662009ae78f21dd82fcd179","66620a12ca26ef67a4b08def","null","","null","","","","","","","","./tasks/HMM-beads/Images/BlackBeadChoice.png","","","","","","","","","",""
"image-keyboard-response","63","183364","0.0-3.0-4.0-1.0-2.16","66413412d9d93d6b67936792","6662009ae78f21dd82fcd179","66620a12ca26ef67a4b08def","null","","null","","","","","","","","./tasks/HMM-beads/Images/BlackBeadChoiceCorrect.png","","","","","","","","","",""
"image-keyboard-response","64","183479","0.0-3.0-4.0-1.0-0.17","66413412d9d93d6b67936792","6662009ae78f21dd82fcd179","66620a12ca26ef67a4b08def","113","","f","","","","","","","","./tasks/HMM-beads/Images/NewTrialBC.png","practice","0","17","0","0","0","0","true","",""
"image-keyboard-response","65","183782","0.0-3.0-4.0-1.0-1.17","66413412d9d93d6b67936792","6662009ae78f21dd82fcd179","66620a12ca26ef67a4b08def","null","","null","","","","","","","","./tasks/HMM-beads/Images/BlackBeadChoice.png","","","","","","","","","",""
"image-keyboard-response","66","184285","0.0-3.0-4.0-1.0-2.17","66413412d9d93d6b67936792","6662009ae78f21dd82fcd179","66620a12ca26ef67a4b08def","null","","null","","","","","","","","./tasks/HMM-beads/Images/BlackBeadChoiceCorrect.png","","","","","","","","","",""
"image-keyboard-response","67","184470","0.0-3.0-4.0-1.0-0.18","66413412d9d93d6b67936792","6662009ae78f21dd82fcd179","66620a12ca26ef67a4b08def","183","","f","","","","","","","","./tasks/HMM-beads/Images/NewTrialBC.png","practice","0","18","0","1","0","0","false","",""
"image-keyboard-response","68","184773","0.0-3.0-4.0-1.0-1.18","66413412d9d93d6b67936792","6662009ae78f21dd82fcd179","66620a12ca26ef67a4b08def","null","","null","","","","","","","","./tasks/HMM-beads/Images/BlackBeadChoice.png","","","","","","","","","",""
"image-keyboard-response","69","185276","0.0-3.0-4.0-1.0-2.18","66413412d9d93d6b67936792","6662009ae78f21dd82fcd179","66620a12ca26ef67a4b08def","null","","null","","","","","","","","./tasks/HMM-beads/Images/BlackBeadChoiceWrong.png","","","","","","","","","",""
"image-keyboard-response","70","185906","0.0-3.0-4.0-1.0-0.19","66413412d9d93d6b67936792","6662009ae78f21dd82fcd179","66620a12ca26ef67a4b08def","628","","j","","","","","","","","./tasks/HMM-beads/Images/NewTrialWC.png","practice","0","19","0","0","1","1","false","",""
"image-keyboard-response","71","186210","0.0-3.0-4.0-1.0-1.19","66413412d9d93d6b67936792","6662009ae78f21dd82fcd179","66620a12ca26ef67a4b08def","null","","null","","","","","","","","./tasks/HMM-beads/Images/WhiteBeadChoice.png","","","","","","","","","",""
"image-keyboard-response","72","186713","0.0-3.0-4.0-1.0-2.19","66413412d9d93d6b67936792","6662009ae78f21dd82fcd179","66620a12ca26ef67a4b08def","null","","null","","","","","","","","./tasks/HMM-beads/Images/WhiteBeadChoiceWrong.png","","","","","","","","","",""
"image-keyboard-response","73","186834","0.0-3.0-4.0-1.0-0.20","66413412d9d93d6b67936792","6662009ae78f21dd82fcd179","66620a12ca26ef67a4b08def","120","","f","","","","","","","","./tasks/HMM-beads/Images/NewTrialBC.png","practice","0","20","0","0","0","0","true","",""
"image-keyboard-response","74","187137","0.0-3.0-4.0-1.0-1.20","66413412d9d93d6b67936792","6662009ae78f21dd82fcd179","66620a12ca26ef67a4b08def","null","","null","","","","","","","","./tasks/HMM-beads/Images/BlackBeadChoice.png","","","","","","","","","",""
"image-keyboard-response","75","187640","0.0-3.0-4.0-1.0-2.20","66413412d9d93d6b67936792","6662009ae78f21dd82fcd179","66620a12ca26ef67a4b08def","null","","null","","","","","","","","./tasks/HMM-beads/Images/BlackBeadChoiceCorrect.png","","","","","","","","","",""
"image-keyboard-response","76","189727","0.0-3.0-4.0-1.0-0.21","66413412d9d93d6b67936792","6662009ae78f21dd82fcd179","66620a12ca26ef67a4b08def","2084","","f","","","","","","","","./tasks/HMM-beads/Images/NewTrialBC.png","practice","0","21","0","1","0","0","false","",""
"image-keyboard-response","77","190037","0.0-3.0-4.0-1.0-1.21","66413412d9d93d6b67936792","6662009ae78f21dd82fcd179","66620a12ca26ef67a4b08def","null","","null","","","","","","","","./tasks/HMM-beads/Images/BlackBeadChoice.png","","","","","","","","","",""
"image-keyboard-response","78","190541","0.0-3.0-4.0-1.0-2.21","66413412d9d93d6b67936792","6662009ae78f21dd82fcd179","66620a12ca26ef67a4b08def","null","","null","","","","","","","","./tasks/HMM-beads/Images/BlackBeadChoiceWrong.png","","","","","","","","","",""
"image-keyboard-response","79","190733","0.0-3.0-4.0-1.0-0.22","66413412d9d93d6b67936792","6662009ae78f21dd82fcd179","66620a12ca26ef67a4b08def","191","","j","","","","","","","","./tasks/HMM-beads/Images/NewTrialWC.png","practice","0","22","1","1","1","1","true","",""
"image-keyboard-response","80","191036","0.0-3.0-4.0-1.0-1.22","66413412d9d93d6b67936792","6662009ae78f21dd82fcd179","66620a12ca26ef67a4b08def","null","","null","","","","","","","","./tasks/HMM-beads/Images/WhiteBeadChoice.png","","","","","","","","","",""
"image-keyboard-response","81","191540","0.0-3.0-4.0-1.0-2.22","66413412d9d93d6b67936792","6662009ae78f21dd82fcd179","66620a12ca26ef67a4b08def","null","","null","","","","","","","","./tasks/HMM-beads/Images/WhiteBeadChoiceCorrect.png","","","","","","","","","",""
"image-keyboard-response","82","191624","0.0-3.0-4.0-1.0-0.23","66413412d9d93d6b67936792","6662009ae78f21dd82fcd179","66620a12ca26ef67a4b08def","82","","j","","","","","","","","./tasks/HMM-beads/Images/NewTrialWC.png","practice","0","23","1","0","1","1","false","",""
"image-keyboard-response","83","191927","0.0-3.0-4.0-1.0-1.23","66413412d9d93d6b67936792","6662009ae78f21dd82fcd179","66620a12ca26ef67a4b08def","null","","null","","","","","","","","./tasks/HMM-beads/Images/WhiteBeadChoice.png","","","","","","","","","",""
"image-keyboard-response","84","192430","0.0-3.0-4.0-1.0-2.23","66413412d9d93d6b67936792","6662009ae78f21dd82fcd179","66620a12ca26ef67a4b08def","null","","null","","","","","","","","./tasks/HMM-beads/Images/WhiteBeadChoiceWrong.png","","","","","","","","","",""
"image-keyboard-response","85","192432","0.0-3.0-4.0-1.0-0.24","66413412d9d93d6b67936792","6662009ae78f21dd82fcd179","66620a12ca26ef67a4b08def","0","","f","","","","","","","","./tasks/HMM-beads/Images/NewTrialBC.png","practice","0","24","1","1","0","0","false","",""
"image-keyboard-response","86","192735","0.0-3.0-4.0-1.0-1.24","66413412d9d93d6b67936792","6662009ae78f21dd82fcd179","66620a12ca26ef67a4b08def","null","","null","","","","","","","","./tasks/HMM-beads/Images/BlackBeadChoice.png","","","","","","","","","",""
"image-keyboard-response","87","193239","0.0-3.0-4.0-1.0-2.24","66413412d9d93d6b67936792","6662009ae78f21dd82fcd179","66620a12ca26ef67a4b08def","null","","null","","","","","","","","./tasks/HMM-beads/Images/BlackBeadChoiceWrong.png","","","","","","","","","",""
"image-keyboard-response","88","194201","0.0-3.0-4.0-1.0-0.25","66413412d9d93d6b67936792","6662009ae78f21dd82fcd179","66620a12ca26ef67a4b08def","960","","j","","","","","","","","./tasks/HMM-beads/Images/NewTrialWC.png","practice","0","25","1","1","1","1","true","",""
"image-keyboard-response","89","194503","0.0-3.0-4.0-1.0-1.25","66413412d9d93d6b67936792","6662009ae78f21dd82fcd179","66620a12ca26ef67a4b08def","null","","null","","","","","","","","./tasks/HMM-beads/Images/WhiteBeadChoice.png","","","","","","","","","",""
"image-keyboard-response","90","195014","0.0-3.0-4.0-1.0-2.25","66413412d9d93d6b67936792","6662009ae78f21dd82fcd179","66620a12ca26ef67a4b08def","null","","null","","","","","","","","./tasks/HMM-beads/Images/WhiteBeadChoiceCorrect.png","","","","","","","","","",""
"image-keyboard-response","91","195016","0.0-3.0-4.0-1.0-0.26","66413412d9d93d6b67936792","6662009ae78f21dd82fcd179","66620a12ca26ef67a4b08def","1","","j","","","","","","","","./tasks/HMM-beads/Images/NewTrialWC.png","practice","0","26","1","1","1","1","true","",""
"image-keyboard-response","92","195319","0.0-3.0-4.0-1.0-1.26","66413412d9d93d6b67936792","6662009ae78f21dd82fcd179","66620a12ca26ef67a4b08def","null","","null","","","","","","","","./tasks/HMM-beads/Images/WhiteBeadChoice.png","","","","","","","","","",""
"image-keyboard-response","93","195823","0.0-3.0-4.0-1.0-2.26","66413412d9d93d6b67936792","6662009ae78f21dd82fcd179","66620a12ca26ef67a4b08def","null","","null","","","","","","","","./tasks/HMM-beads/Images/WhiteBeadChoiceCorrect.png","","","","","","","","","",""
"image-keyboard-response","94","195914","0.0-3.0-4.0-1.0-0.27","66413412d9d93d6b67936792","6662009ae78f21dd82fcd179","66620a12ca26ef67a4b08def","90","","j","","","","","","","","./tasks/HMM-beads/Images/NewTrialWC.png","practice","0","27","1","1","1","1","true","",""
"image-keyboard-response","95","196218","0.0-3.0-4.0-1.0-1.27","66413412d9d93d6b67936792","6662009ae78f21dd82fcd179","66620a12ca26ef67a4b08def","null","","null","","","","","","","","./tasks/HMM-beads/Images/WhiteBeadChoice.png","","","","","","","","","",""
"image-keyboard-response","96","196721","0.0-3.0-4.0-1.0-2.27","66413412d9d93d6b67936792","6662009ae78f21dd82fcd179","66620a12ca26ef67a4b08def","null","","null","","","","","","","","./tasks/HMM-beads/Images/WhiteBeadChoiceCorrect.png","","","","","","","","","",""
"image-keyboard-response","97","196874","0.0-3.0-4.0-1.0-0.28","66413412d9d93d6b67936792","6662009ae78f21dd82fcd179","66620a12ca26ef67a4b08def","152","","j","","","","","","","","./tasks/HMM-beads/Images/NewTrialWC.png","practice","0","28","1","0","1","1","false","",""
"image-keyboard-response","98","197176","0.0-3.0-4.0-1.0-1.28","66413412d9d93d6b67936792","6662009ae78f21dd82fcd179","66620a12ca26ef67a4b08def","null","","null","","","","","","","","./tasks/HMM-beads/Images/WhiteBeadChoice.png","","","","","","","","","",""
"image-keyboard-response","99","197680","0.0-3.0-4.0-1.0-2.28","66413412d9d93d6b67936792","6662009ae78f21dd82fcd179","66620a12ca26ef67a4b08def","null","","null","","","","","","","","./tasks/HMM-beads/Images/WhiteBeadChoiceWrong.png","","","","","","","","","",""
"image-keyboard-response","100","197703","0.0-3.0-4.0-1.0-0.29","66413412d9d93d6b67936792","6662009ae78f21dd82fcd179","66620a12ca26ef67a4b08def","22","","f","","","","","","","","./tasks/HMM-beads/Images/NewTrialBC.png","practice","0","29","1","1","0","0","false","",""
"image-keyboard-response","101","198006","0.0-3.0-4.0-1.0-1.29","66413412d9d93d6b67936792","6662009ae78f21dd82fcd179","66620a12ca26ef67a4b08def","null","","null","","","","","","","","./tasks/HMM-beads/Images/BlackBeadChoice.png","","","","","","","","","",""
"image-keyboard-response","102","198509","0.0-3.0-4.0-1.0-2.29","66413412d9d93d6b67936792","6662009ae78f21dd82fcd179","66620a12ca26ef67a4b08def","null","","null","","","","","","","","./tasks/HMM-beads/Images/BlackBeadChoiceWrong.png","","","","","","","","","",""
"image-keyboard-response","103","199371","0.0-3.0-4.0-1.0-0.30","66413412d9d93d6b67936792","6662009ae78f21dd82fcd179","66620a12ca26ef67a4b08def","861","","j","","","","","","","","./tasks/HMM-beads/Images/NewTrialWC.png","practice","0","30","1","0","1","1","false","",""
"image-keyboard-response","104","199675","0.0-3.0-4.0-1.0-1.30","66413412d9d93d6b67936792","6662009ae78f21dd82fcd179","66620a12ca26ef67a4b08def","null","","null","","","","","","","","./tasks/HMM-beads/Images/WhiteBeadChoice.png","","","","","","","","","",""
"image-keyboard-response","105","200179","0.0-3.0-4.0-1.0-2.30","66413412d9d93d6b67936792","6662009ae78f21dd82fcd179","66620a12ca26ef67a4b08def","null","","null","","","","","","","","./tasks/HMM-beads/Images/WhiteBeadChoiceWrong.png","","","","","","","","","",""
"image-keyboard-response","106","200297","0.0-3.0-4.0-1.0-0.31","66413412d9d93d6b67936792","6662009ae78f21dd82fcd179","66620a12ca26ef67a4b08def","117","","f","","","","","","","","./tasks/HMM-beads/Images/NewTrialBC.png","practice","0","31","1","1","0","0","false","",""
"image-keyboard-response","107","200600","0.0-3.0-4.0-1.0-1.31","66413412d9d93d6b67936792","6662009ae78f21dd82fcd179","66620a12ca26ef67a4b08def","null","","null","","","","","","","","./tasks/HMM-beads/Images/BlackBeadChoice.png","","","","","","","","","",""
"image-keyboard-response","108","201104","0.0-3.0-4.0-1.0-2.31","66413412d9d93d6b67936792","6662009ae78f21dd82fcd179","66620a12ca26ef67a4b08def","null","","null","","","","","","","","./tasks/HMM-beads/Images/BlackBeadChoiceWrong.png","","","","","","","","","",""
"image-keyboard-response","109","201652","0.0-3.0-4.0-1.0-0.32","66413412d9d93d6b67936792","6662009ae78f21dd82fcd179","66620a12ca26ef67a4b08def","548","","j","","","","","","","","./tasks/HMM-beads/Images/NewTrialWC.png","practice","0","32","1","1","1","1","true","",""
"image-keyboard-response","110","201956","0.0-3.0-4.0-1.0-1.32","66413412d9d93d6b67936792","6662009ae78f21dd82fcd179","66620a12ca26ef67a4b08def","null","","null","","","","","","","","./tasks/HMM-beads/Images/WhiteBeadChoice.png","","","","","","","","","",""
"image-keyboard-response","111","202460","0.0-3.0-4.0-1.0-2.32","66413412d9d93d6b67936792","6662009ae78f21dd82fcd179","66620a12ca26ef67a4b08def","null","","null","","","","","","","","./tasks/HMM-beads/Images/WhiteBeadChoiceCorrect.png","","","","","","","","","",""
"image-keyboard-response","112","203427","0.0-3.0-4.0-1.0-0.33","66413412d9d93d6b67936792","6662009ae78f21dd82fcd179","66620a12ca26ef67a4b08def","967","","j","","","","","","","","./tasks/HMM-beads/Images/NewTrialWC.png","practice","0","33","1","1","1","1","true","",""
"image-keyboard-response","113","203730","0.0-3.0-4.0-1.0-1.33","66413412d9d93d6b67936792","6662009ae78f21dd82fcd179","66620a12ca26ef67a4b08def","null","","null","","","","","","","","./tasks/HMM-beads/Images/WhiteBeadChoice.png","","","","","","","","","",""
"image-keyboard-response","114","204233","0.0-3.0-4.0-1.0-2.33","66413412d9d93d6b67936792","6662009ae78f21dd82fcd179","66620a12ca26ef67a4b08def","null","","null","","","","","","","","./tasks/HMM-beads/Images/WhiteBeadChoiceCorrect.png","","","","","","","","","",""
"image-keyboard-response","115","204348","0.0-3.0-4.0-1.0-0.34","66413412d9d93d6b67936792","6662009ae78f21dd82fcd179","66620a12ca26ef67a4b08def","113","","j","","","","","","","","./tasks/HMM-beads/Images/NewTrialWC.png","practice","0","34","1","1","1","1","true","",""
"image-keyboard-response","116","204656","0.0-3.0-4.0-1.0-1.34","66413412d9d93d6b67936792","6662009ae78f21dd82fcd179","66620a12ca26ef67a4b08def","null","","null","","","","","","","","./tasks/HMM-beads/Images/WhiteBeadChoice.png","","","","","","","","","",""
"image-keyboard-response","117","205159","0.0-3.0-4.0-1.0-2.34","66413412d9d93d6b67936792","6662009ae78f21dd82fcd179","66620a12ca26ef67a4b08def","null","","null","","","","","","","","./tasks/HMM-beads/Images/WhiteBeadChoiceCorrect.png","","","","","","","","","",""
"image-keyboard-response","118","205195","0.0-3.0-4.0-1.0-0.35","66413412d9d93d6b67936792","6662009ae78f21dd82fcd179","66620a12ca26ef67a4b08def","35","","j","","","","","","","","./tasks/HMM-beads/Images/NewTrialWC.png","practice","0","35","1","1","1","1","true","",""
"image-keyboard-response","119","205498","0.0-3.0-4.0-1.0-1.35","66413412d9d93d6b67936792","6662009ae78f21dd82fcd179","66620a12ca26ef67a4b08def","null","","null","","","","","","","","./tasks/HMM-beads/Images/WhiteBeadChoice.png","","","","","","","","","",""
"image-keyboard-response","120","206001","0.0-3.0-4.0-1.0-2.35","66413412d9d93d6b67936792","6662009ae78f21dd82fcd179","66620a12ca26ef67a4b08def","null","","null","","","","","","","","./tasks/HMM-beads/Images/WhiteBeadChoiceCorrect.png","","","","","","","","","",""
"image-keyboard-response","121","206039","0.0-3.0-4.0-1.0-0.36","66413412d9d93d6b67936792","6662009ae78f21dd82fcd179","66620a12ca26ef67a4b08def","36","","j","","","","","","","","./tasks/HMM-beads/Images/NewTrialWC.png","practice","0","36","1","0","1","1","false","",""
"image-keyboard-response","122","206341","0.0-3.0-4.0-1.0-1.36","66413412d9d93d6b67936792","6662009ae78f21dd82fcd179","66620a12ca26ef67a4b08def","null","","null","","","","","","","","./tasks/HMM-beads/Images/WhiteBeadChoice.png","","","","","","","","","",""
"image-keyboard-response","123","206845","0.0-3.0-4.0-1.0-2.36","66413412d9d93d6b67936792","6662009ae78f21dd82fcd179","66620a12ca26ef67a4b08def","null","","null","","","","","","","","./tasks/HMM-beads/Images/WhiteBeadChoiceWrong.png","","","","","","","","","",""
"image-keyboard-response","124","207427","0.0-3.0-4.0-1.0-0.37","66413412d9d93d6b67936792","6662009ae78f21dd82fcd179","66620a12ca26ef67a4b08def","580","","f","","","","","","","","./tasks/HMM-beads/Images/NewTrialBC.png","practice","0","37","1","1","0","0","false","",""
"image-keyboard-response","125","207729","0.0-3.0-4.0-1.0-1.37","66413412d9d93d6b67936792","6662009ae78f21dd82fcd179","66620a12ca26ef67a4b08def","null","","null","","","","","","","","./tasks/HMM-beads/Images/BlackBeadChoice.png","","","","","","","","","",""
"image-keyboard-response","126","208232","0.0-3.0-4.0-1.0-2.37","66413412d9d93d6b67936792","6662009ae78f21dd82fcd179","66620a12ca26ef67a4b08def","null","","null","","","","","","","","./tasks/HMM-beads/Images/BlackBeadChoiceWrong.png","","","","","","","","","",""
"image-keyboard-response","127","208273","0.0-3.0-4.0-1.0-0.38","66413412d9d93d6b67936792","6662009ae78f21dd82fcd179","66620a12ca26ef67a4b08def","40","","j","","","","","","","","./tasks/HMM-beads/Images/NewTrialWC.png","practice","0","38","1","1","1","1","true","",""
"image-keyboard-response","128","208576","0.0-3.0-4.0-1.0-1.38","66413412d9d93d6b67936792","6662009ae78f21dd82fcd179","66620a12ca26ef67a4b08def","null","","null","","","","","","","","./tasks/HMM-beads/Images/WhiteBeadChoice.png","","","","","","","","","",""
"image-keyboard-response","129","209086","0.0-3.0-4.0-1.0-2.38","66413412d9d93d6b67936792","6662009ae78f21dd82fcd179","66620a12ca26ef67a4b08def","null","","null","","","","","","","","./tasks/HMM-beads/Images/WhiteBeadChoiceCorrect.png","","","","","","","","","",""
"image-keyboard-response","130","209179","0.0-3.0-4.0-1.0-0.39","66413412d9d93d6b67936792","6662009ae78f21dd82fcd179","66620a12ca26ef67a4b08def","91","","j","","","","","","","","./tasks/HMM-beads/Images/NewTrialWC.png","practice","0","39","1","1","1","1","true","",""
"image-keyboard-response","131","209481","0.0-3.0-4.0-1.0-1.39","66413412d9d93d6b67936792","6662009ae78f21dd82fcd179","66620a12ca26ef67a4b08def","null","","null","","","","","","","","./tasks/HMM-beads/Images/WhiteBeadChoice.png","","","","","","","","","",""
"image-keyboard-response","132","209985","0.0-3.0-4.0-1.0-2.39","66413412d9d93d6b67936792","6662009ae78f21dd82fcd179","66620a12ca26ef67a4b08def","null","","null","","","","","","","","./tasks/HMM-beads/Images/WhiteBeadChoiceCorrect.png","","","","","","","","","",""
"html-keyboard-response","133","213499","0.0-3.0-4.0-2.0","66413412d9d93d6b67936792","6662009ae78f21dd82fcd179","66620a12ca26ef67a4b08def","3513",""," ","","","","","","","","","","","","","","","","","",""
"instructions","134","225817","0.0-3.0-5.0","66413412d9d93d6b67936792","6662009ae78f21dd82fcd179","66620a12ca26ef67a4b08def","12317","","","","[{""page_index"":0,""viewing_time"":10300},{""page_index"":1,""viewing_time"":2017}]","","","","","","","","","","","","","","","",""
"html-keyboard-response","135","239917","0.0-3.0-6.0-0.0","66413412d9d93d6b67936792","6662009ae78f21dd82fcd179","66620a12ca26ef67a4b08def","14099",""," ","","","","","","","","<div align=center>In this block, there will be a <b>1% chance</b> that the jar on the next trial will be different from the jar on the current trial.<br><br></div>","","","","","","","","","",""
"image-keyboard-response","136","249808","0.0-3.0-6.0-1.0-0.0","66413412d9d93d6b67936792","6662009ae78f21dd82fcd179","66620a12ca26ef67a4b08def","9889","","f","","","","","","","","./tasks/HMM-beads/Images/NoChoice.png","lowH","1","0","1","0","9","0","true","",""
"image-keyboard-response","137","250111","0.0-3.0-6.0-1.0-1.0","66413412d9d93d6b67936792","6662009ae78f21dd82fcd179","66620a12ca26ef67a4b08def","null","","null","","","","","","","","./tasks/HMM-beads/Images/BlackBeadChoice.png","","","","","","","","","",""
"image-keyboard-response","138","250615","0.0-3.0-6.0-1.0-2.0","66413412d9d93d6b67936792","6662009ae78f21dd82fcd179","66620a12ca26ef67a4b08def","null","","null","","","","","","","","./tasks/HMM-beads/Images/BlackBeadChoiceCorrect.png","","","","","","","","","",""
"image-keyboard-response","139","251952","0.0-3.0-6.0-1.0-0.1","66413412d9d93d6b67936792","6662009ae78f21dd82fcd179","66620a12ca26ef67a4b08def","1335","","f","","","","","","","","./tasks/HMM-beads/Images/NewTrialBC.png","lowH","1","1","1","1","0","0","false","",""
"image-keyboard-response","140","252255","0.0-3.0-6.0-1.0-1.1","66413412d9d93d6b67936792","6662009ae78f21dd82fcd179","66620a12ca26ef67a4b08def","null","","null","","","","","","","","./tasks/HMM-beads/Images/BlackBeadChoice.png","","","","","","","","","",""
"image-keyboard-response","141","252758","0.0-3.0-6.0-1.0-2.1","66413412d9d93d6b67936792","6662009ae78f21dd82fcd179","66620a12ca26ef67a4b08def","null","","null","","","","","","","","./tasks/HMM-beads/Images/BlackBeadChoiceWrong.png","","","","","","","","","",""
"image-keyboard-response","142","256569","0.0-3.0-6.0-1.0-0.2","66413412d9d93d6b67936792","6662009ae78f21dd82fcd179","66620a12ca26ef67a4b08def","3809","","j","","","","","","","","./tasks/HMM-beads/Images/NewTrialWC.png","lowH","1","2","1","1","1","1","true","",""
"image-keyboard-response","143","256872","0.0-3.0-6.0-1.0-1.2","66413412d9d93d6b67936792","6662009ae78f21dd82fcd179","66620a12ca26ef67a4b08def","null","","null","","","","","","","","./tasks/HMM-beads/Images/WhiteBeadChoice.png","","","","","","","","","",""
"image-keyboard-response","144","257376","0.0-3.0-6.0-1.0-2.2","66413412d9d93d6b67936792","6662009ae78f21dd82fcd179","66620a12ca26ef67a4b08def","null","","null","","","","","","","","./tasks/HMM-beads/Images/WhiteBeadChoiceCorrect.png","","","","","","","","","",""
"image-keyboard-response","145","257915","0.0-3.0-6.0-1.0-0.3","66413412d9d93d6b67936792","6662009ae78f21dd82fcd179","66620a12ca26ef67a4b08def","537","","f","","","","","","","","./tasks/HMM-beads/Images/NewTrialWC.png","lowH","1","3","1","1","1","0","false","",""
"image-keyboard-response","146","258218","0.0-3.0-6.0-1.0-1.3","66413412d9d93d6b67936792","6662009ae78f21dd82fcd179","66620a12ca26ef67a4b08def","null","","null","","","","","","","","./tasks/HMM-beads/Images/BlackBeadChoice.png","","","","","","","","","",""
"image-keyboard-response","147","258722","0.0-3.0-6.0-1.0-2.3","66413412d9d93d6b67936792","6662009ae78f21dd82fcd179","66620a12ca26ef67a4b08def","null","","null","","","","","","","","./tasks/HMM-beads/Images/BlackBeadChoiceWrong.png","","","","","","","","","",""
"image-keyboard-response","148","259205","0.0-3.0-6.0-1.0-0.4","66413412d9d93d6b67936792","6662009ae78f21dd82fcd179","66620a12ca26ef67a4b08def","481","","j","","","","","","","","./tasks/HMM-beads/Images/NewTrialWC.png","lowH","1","4","1","1","1","1","true","",""
"image-keyboard-response","149","259508","0.0-3.0-6.0-1.0-1.4","66413412d9d93d6b67936792","6662009ae78f21dd82fcd179","66620a12ca26ef67a4b08def","null","","null","","","","","","","","./tasks/HMM-beads/Images/WhiteBeadChoice.png","","","","","","","","","",""
"image-keyboard-response","150","260010","0.0-3.0-6.0-1.0-2.4","66413412d9d93d6b67936792","6662009ae78f21dd82fcd179","66620a12ca26ef67a4b08def","null","","null","","","","","","","","./tasks/HMM-beads/Images/WhiteBeadChoiceCorrect.png","","","","","","","","","",""
"image-keyboard-response","151","260304","0.0-3.0-6.0-1.0-0.5","66413412d9d93d6b67936792","6662009ae78f21dd82fcd179","66620a12ca26ef67a4b08def","293","","j","","","","","","","","./tasks/HMM-beads/Images/NewTrialWC.png","lowH","1","5","1","1","1","1","true","",""
"image-keyboard-response","152","260607","0.0-3.0-6.0-1.0-1.5","66413412d9d93d6b67936792","6662009ae78f21dd82fcd179","66620a12ca26ef67a4b08def","null","","null","","","","","","","","./tasks/HMM-beads/Images/WhiteBeadChoice.png","","","","","","","","","",""
"image-keyboard-response","153","261110","0.0-3.0-6.0-1.0-2.5","66413412d9d93d6b67936792","6662009ae78f21dd82fcd179","66620a12ca26ef67a4b08def","null","","null","","","","","","","","./tasks/HMM-beads/Images/WhiteBeadChoiceCorrect.png","","","","","","","","","",""
"image-keyboard-response","154","261784","0.0-3.0-6.0-1.0-0.6","66413412d9d93d6b67936792","6662009ae78f21dd82fcd179","66620a12ca26ef67a4b08def","672","","j","","","","","","","","./tasks/HMM-beads/Images/NewTrialWC.png","lowH","1","6","1","0","1","1","false","",""
"image-keyboard-response","155","262088","0.0-3.0-6.0-1.0-1.6","66413412d9d93d6b67936792","6662009ae78f21dd82fcd179","66620a12ca26ef67a4b08def","null","","null","","","","","","","","./tasks/HMM-beads/Images/WhiteBeadChoice.png","","","","","","","","","",""
"image-keyboard-response","156","262591","0.0-3.0-6.0-1.0-2.6","66413412d9d93d6b67936792","6662009ae78f21dd82fcd179","66620a12ca26ef67a4b08def","null","","null","","","","","","","","./tasks/HMM-beads/Images/WhiteBeadChoiceWrong.png","","","","","","","","","",""
"image-keyboard-response","157","262682","0.0-3.0-6.0-1.0-0.7","66413412d9d93d6b67936792","6662009ae78f21dd82fcd179","66620a12ca26ef67a4b08def","89","","f","","","","","","","","./tasks/HMM-beads/Images/NewTrialBC.png","lowH","1","7","1","1","0","0","false","",""
"image-keyboard-response","158","262991","0.0-3.0-6.0-1.0-1.7","66413412d9d93d6b67936792","6662009ae78f21dd82fcd179","66620a12ca26ef67a4b08def","null","","null","","","","","","","","./tasks/HMM-beads/Images/BlackBeadChoice.png","","","","","","","","","",""
"image-keyboard-response","159","263494","0.0-3.0-6.0-1.0-2.7","66413412d9d93d6b67936792","6662009ae78f21dd82fcd179","66620a12ca26ef67a4b08def","null","","null","","","","","","","","./tasks/HMM-beads/Images/BlackBeadChoiceWrong.png","","","","","","","","","",""
"image-keyboard-response","160","263607","0.0-3.0-6.0-1.0-0.8","66413412d9d93d6b67936792","6662009ae78f21dd82fcd179","66620a12ca26ef67a4b08def","110","","j","","","","","","","","./tasks/HMM-beads/Images/NewTrialWC.png","lowH","1","8","1","1","1","1","true","",""
"image-keyboard-response","161","263910","0.0-3.0-6.0-1.0-1.8","66413412d9d93d6b67936792","6662009ae78f21dd82fcd179","66620a12ca26ef67a4b08def","null","","null","","","","","","","","./tasks/HMM-beads/Images/WhiteBeadChoice.png","","","","","","","","","",""
"image-keyboard-response","162","264413","0.0-3.0-6.0-1.0-2.8","66413412d9d93d6b67936792","6662009ae78f21dd82fcd179","66620a12ca26ef67a4b08def","null","","null","","","","","","","","./tasks/HMM-beads/Images/WhiteBeadChoiceCorrect.png","","","","","","","","","",""
"image-keyboard-response","163","265138","0.0-3.0-6.0-1.0-0.9","66413412d9d93d6b67936792","6662009ae78f21dd82fcd179","66620a12ca26ef67a4b08def","723","","f","","","","","","","","./tasks/HMM-beads/Images/NewTrialWC.png","lowH","1","9","1","1","1","0","false","",""
"image-keyboard-response","164","265440","0.0-3.0-6.0-1.0-1.9","66413412d9d93d6b67936792","6662009ae78f21dd82fcd179","66620a12ca26ef67a4b08def","null","","null","","","","","","","","./tasks/HMM-beads/Images/BlackBeadChoice.png","","","","","","","","","",""
"image-keyboard-response","165","265943","0.0-3.0-6.0-1.0-2.9","66413412d9d93d6b67936792","6662009ae78f21dd82fcd179","66620a12ca26ef67a4b08def","null","","null","","","","","","","","./tasks/HMM-beads/Images/BlackBeadChoiceWrong.png","","","","","","","","","",""
"image-keyboard-response","166","266087","0.0-3.0-6.0-1.0-0.10","66413412d9d93d6b67936792","6662009ae78f21dd82fcd179","66620a12ca26ef67a4b08def","143","","f","","","","","","","","./tasks/HMM-beads/Images/NewTrialWC.png","lowH","1","10","1","1","1","0","false","",""
"image-keyboard-response","167","266390","0.0-3.0-6.0-1.0-1.10","66413412d9d93d6b67936792","6662009ae78f21dd82fcd179","66620a12ca26ef67a4b08def","null","","null","","","","","","","","./tasks/HMM-beads/Images/BlackBeadChoice.png","","","","","","","","","",""
"image-keyboard-response","168","266893","0.0-3.0-6.0-1.0-2.10","66413412d9d93d6b67936792","6662009ae78f21dd82fcd179","66620a12ca26ef67a4b08def","null","","null","","","","","","","","./tasks/HMM-beads/Images/BlackBeadChoiceWrong.png","","","","","","","","","",""
"image-keyboard-response","169","267301","0.0-3.0-6.0-1.0-0.11","66413412d9d93d6b67936792","6662009ae78f21dd82fcd179","66620a12ca26ef67a4b08def","406","","j","","","","","","","","./tasks/HMM-beads/Images/NewTrialWC.png","lowH","1","11","1","1","1","1","true","",""
"image-keyboard-response","170","267604","0.0-3.0-6.0-1.0-1.11","66413412d9d93d6b67936792","6662009ae78f21dd82fcd179","66620a12ca26ef67a4b08def","null","","null","","","","","","","","./tasks/HMM-beads/Images/WhiteBeadChoice.png","","","","","","","","","",""
"image-keyboard-response","171","268113","0.0-3.0-6.0-1.0-2.11","66413412d9d93d6b67936792","6662009ae78f21dd82fcd179","66620a12ca26ef67a4b08def","null","","null","","","","","","","","./tasks/HMM-beads/Images/WhiteBeadChoiceCorrect.png","","","","","","","","","",""
"image-keyboard-response","172","269019","0.0-3.0-6.0-1.0-0.12","66413412d9d93d6b67936792","6662009ae78f21dd82fcd179","66620a12ca26ef67a4b08def","904","","j","","","","","","","","./tasks/HMM-beads/Images/NewTrialWC.png","lowH","1","12","1","1","1","1","true","",""
"image-keyboard-response","173","269322","0.0-3.0-6.0-1.0-1.12","66413412d9d93d6b67936792","6662009ae78f21dd82fcd179","66620a12ca26ef67a4b08def","null","","null","","","","","","","","./tasks/HMM-beads/Images/WhiteBeadChoice.png","","","","","","","","","",""
"image-keyboard-response","174","269825","0.0-3.0-6.0-1.0-2.12","66413412d9d93d6b67936792","6662009ae78f21dd82fcd179","66620a12ca26ef67a4b08def","null","","null","","","","","","","","./tasks/HMM-beads/Images/WhiteBeadChoiceCorrect.png","","","","","","","","","",""
"image-keyboard-response","175","270720","0.0-3.0-6.0-1.0-0.13","66413412d9d93d6b67936792","6662009ae78f21dd82fcd179","66620a12ca26ef67a4b08def","894","","j","","","","","","","","./tasks/HMM-beads/Images/NewTrialWC.png","lowH","1","13","1","0","1","1","false","",""
"image-keyboard-response","176","271023","0.0-3.0-6.0-1.0-1.13","66413412d9d93d6b67936792","6662009ae78f21dd82fcd179","66620a12ca26ef67a4b08def","null","","null","","","","","","","","./tasks/HMM-beads/Images/WhiteBeadChoice.png","","","","","","","","","",""
"image-keyboard-response","177","271526","0.0-3.0-6.0-1.0-2.13","66413412d9d93d6b67936792","6662009ae78f21dd82fcd179","66620a12ca26ef67a4b08def","null","","null","","","","","","","","./tasks/HMM-beads/Images/WhiteBeadChoiceWrong.png","","","","","","","","","",""
"image-keyboard-response","178","271910","0.0-3.0-6.0-1.0-0.14","66413412d9d93d6b67936792","6662009ae78f21dd82fcd179","66620a12ca26ef67a4b08def","382","","f","","","","","","","","./tasks/HMM-beads/Images/NewTrialBC.png","lowH","1","14","1","0","0","0","true","",""
"image-keyboard-response","179","272212","0.0-3.0-6.0-1.0-1.14","66413412d9d93d6b67936792","6662009ae78f21dd82fcd179","66620a12ca26ef67a4b08def","null","","null","","","","","","","","./tasks/HMM-beads/Images/BlackBeadChoice.png","","","","","","","","","",""
"image-keyboard-response","180","272716","0.0-3.0-6.0-1.0-2.14","66413412d9d93d6b67936792","6662009ae78f21dd82fcd179","66620a12ca26ef67a4b08def","null","","null","","","","","","","","./tasks/HMM-beads/Images/BlackBeadChoiceCorrect.png","","","","","","","","","",""
"image-keyboard-response","181","272965","0.0-3.0-6.0-1.0-0.15","66413412d9d93d6b67936792","6662009ae78f21dd82fcd179","66620a12ca26ef67a4b08def","247","","f","","","","","","","","./tasks/HMM-beads/Images/NewTrialBC.png","lowH","1","15","1","1","0","0","false","",""
"image-keyboard-response","182","273268","0.0-3.0-6.0-1.0-1.15","66413412d9d93d6b67936792","6662009ae78f21dd82fcd179","66620a12ca26ef67a4b08def","null","","null","","","","","","","","./tasks/HMM-beads/Images/BlackBeadChoice.png","","","","","","","","","",""
"image-keyboard-response","183","273772","0.0-3.0-6.0-1.0-2.15","66413412d9d93d6b67936792","6662009ae78f21dd82fcd179","66620a12ca26ef67a4b08def","null","","null","","","","","","","","./tasks/HMM-beads/Images/BlackBeadChoiceWrong.png","","","","","","","","","",""
"image-keyboard-response","184","274184","0.0-3.0-6.0-1.0-0.16","66413412d9d93d6b67936792","6662009ae78f21dd82fcd179","66620a12ca26ef67a4b08def","410","","j","","","","","","","","./tasks/HMM-beads/Images/NewTrialWC.png","lowH","1","16","1","1","1","1","true","",""
"image-keyboard-response","185","274486","0.0-3.0-6.0-1.0-1.16","66413412d9d93d6b67936792","6662009ae78f21dd82fcd179","66620a12ca26ef67a4b08def","null","","null","","","","","","","","./tasks/HMM-beads/Images/WhiteBeadChoice.png","","","","","","","","","",""
"image-keyboard-response","186","274989","0.0-3.0-6.0-1.0-2.16","66413412d9d93d6b67936792","6662009ae78f21dd82fcd179","66620a12ca26ef67a4b08def","null","","null","","","","","","","","./tasks/HMM-beads/Images/WhiteBeadChoiceCorrect.png","","","","","","","","","",""
"image-keyboard-response","187","275526","0.0-3.0-6.0-1.0-0.17","66413412d9d93d6b67936792","6662009ae78f21dd82fcd179","66620a12ca26ef67a4b08def","535","","j","","","","","","","","./tasks/HMM-beads/Images/NewTrialWC.png","lowH","1","17","1","1","1","1","true","",""
"image-keyboard-response","188","275828","0.0-3.0-6.0-1.0-1.17","66413412d9d93d6b67936792","6662009ae78f21dd82fcd179","66620a12ca26ef67a4b08def","null","","null","","","","","","","","./tasks/HMM-beads/Images/WhiteBeadChoice.png","","","","","","","","","",""
"image-keyboard-response","189","276330","0.0-3.0-6.0-1.0-2.17","66413412d9d93d6b67936792","6662009ae78f21dd82fcd179","66620a12ca26ef67a4b08def","null","","null","","","","","","","","./tasks/HMM-beads/Images/WhiteBeadChoiceCorrect.png","","","","","","","","","",""
"image-keyboard-response","190","276839","0.0-3.0-6.0-1.0-0.18","66413412d9d93d6b67936792","6662009ae78f21dd82fcd179","66620a12ca26ef67a4b08def","507","","j","","","","","","","","./tasks/HMM-beads/Images/NewTrialWC.png","lowH","1","18","1","1","1","1","true","",""
"image-keyboard-response","191","277141","0.0-3.0-6.0-1.0-1.18","66413412d9d93d6b67936792","6662009ae78f21dd82fcd179","66620a12ca26ef67a4b08def","null","","null","","","","","","","","./tasks/HMM-beads/Images/WhiteBeadChoice.png","","","","","","","","","",""
"image-keyboard-response","192","277645","0.0-3.0-6.0-1.0-2.18","66413412d9d93d6b67936792","6662009ae78f21dd82fcd179","66620a12ca26ef67a4b08def","null","","null","","","","","","","","./tasks/HMM-beads/Images/WhiteBeadChoiceCorrect.png","","","","","","","","","",""
"image-keyboard-response","193","278162","0.0-3.0-6.0-1.0-0.19","66413412d9d93d6b67936792","6662009ae78f21dd82fcd179","66620a12ca26ef67a4b08def","515","","j","","","","","","","","./tasks/HMM-beads/Images/NewTrialWC.png","lowH","1","19","1","1","1","1","true","",""
"image-keyboard-response","194","278464","0.0-3.0-6.0-1.0-1.19","66413412d9d93d6b67936792","6662009ae78f21dd82fcd179","66620a12ca26ef67a4b08def","null","","null","","","","","","","","./tasks/HMM-beads/Images/WhiteBeadChoice.png","","","","","","","","","",""
"image-keyboard-response","195","278967","0.0-3.0-6.0-1.0-2.19","66413412d9d93d6b67936792","6662009ae78f21dd82fcd179","66620a12ca26ef67a4b08def","null","","null","","","","","","","","./tasks/HMM-beads/Images/WhiteBeadChoiceCorrect.png","","","","","","","","","",""
"image-keyboard-response","196","278981","0.0-3.0-6.0-1.0-0.20","66413412d9d93d6b67936792","6662009ae78f21dd82fcd179","66620a12ca26ef67a4b08def","12","","j","","","","","","","","./tasks/HMM-beads/Images/NewTrialWC.png","lowH","1","20","1","1","1","1","true","",""
"image-keyboard-response","197","279288","0.0-3.0-6.0-1.0-1.20","66413412d9d93d6b67936792","6662009ae78f21dd82fcd179","66620a12ca26ef67a4b08def","null","","null","","","","","","","","./tasks/HMM-beads/Images/WhiteBeadChoice.png","","","","","","","","","",""
"image-keyboard-response","198","279792","0.0-3.0-6.0-1.0-2.20","66413412d9d93d6b67936792","6662009ae78f21dd82fcd179","66620a12ca26ef67a4b08def","null","","null","","","","","","","","./tasks/HMM-beads/Images/WhiteBeadChoiceCorrect.png","","","","","","","","","",""
"image-keyboard-response","199","280505","0.0-3.0-6.0-1.0-0.21","66413412d9d93d6b67936792","6662009ae78f21dd82fcd179","66620a12ca26ef67a4b08def","711","","j","","","","","","","","./tasks/HMM-beads/Images/NewTrialWC.png","lowH","1","21","1","1","1","1","true","",""
"image-keyboard-response","200","280807","0.0-3.0-6.0-1.0-1.21","66413412d9d93d6b67936792","6662009ae78f21dd82fcd179","66620a12ca26ef67a4b08def","null","","null","","","","","","","","./tasks/HMM-beads/Images/WhiteBeadChoice.png","","","","","","","","","",""
"image-keyboard-response","201","281311","0.0-3.0-6.0-1.0-2.21","66413412d9d93d6b67936792","6662009ae78f21dd82fcd179","66620a12ca26ef67a4b08def","null","","null","","","","","","","","./tasks/HMM-beads/Images/WhiteBeadChoiceCorrect.png","","","","","","","","","",""
"image-keyboard-response","202","281317","0.0-3.0-6.0-1.0-0.22","66413412d9d93d6b67936792","6662009ae78f21dd82fcd179","66620a12ca26ef67a4b08def","5","","j","","","","","","","","./tasks/HMM-beads/Images/NewTrialWC.png","lowH","1","22","1","1","1","1","true","",""
"image-keyboard-response","203","281619","0.0-3.0-6.0-1.0-1.22","66413412d9d93d6b67936792","6662009ae78f21dd82fcd179","66620a12ca26ef67a4b08def","null","","null","","","","","","","","./tasks/HMM-beads/Images/WhiteBeadChoice.png","","","","","","","","","",""
"image-keyboard-response","204","282123","0.0-3.0-6.0-1.0-2.22","66413412d9d93d6b67936792","6662009ae78f21dd82fcd179","66620a12ca26ef67a4b08def","null","","null","","","","","","","","./tasks/HMM-beads/Images/WhiteBeadChoiceCorrect.png","","","","","","","","","",""
"image-keyboard-response","205","282603","0.0-3.0-6.0-1.0-0.23","66413412d9d93d6b67936792","6662009ae78f21dd82fcd179","66620a12ca26ef67a4b08def","479","","j","","","","","","","","./tasks/HMM-beads/Images/NewTrialWC.png","lowH","1","23","1","1","1","1","true","",""
"image-keyboard-response","206","282907","0.0-3.0-6.0-1.0-1.23","66413412d9d93d6b67936792","6662009ae78f21dd82fcd179","66620a12ca26ef67a4b08def","null","","null","","","","","","","","./tasks/HMM-beads/Images/WhiteBeadChoice.png","","","","","","","","","",""
"image-keyboard-response","207","283411","0.0-3.0-6.0-1.0-2.23","66413412d9d93d6b67936792","6662009ae78f21dd82fcd179","66620a12ca26ef67a4b08def","null","","null","","","","","","","","./tasks/HMM-beads/Images/WhiteBeadChoiceCorrect.png","","","","","","","","","",""
"image-keyboard-response","208","283796","0.0-3.0-6.0-1.0-0.24","66413412d9d93d6b67936792","6662009ae78f21dd82fcd179","66620a12ca26ef67a4b08def","384","","j","","","","","","","","./tasks/HMM-beads/Images/NewTrialWC.png","lowH","1","24","1","0","1","1","false","",""
"image-keyboard-response","209","284100","0.0-3.0-6.0-1.0-1.24","66413412d9d93d6b67936792","6662009ae78f21dd82fcd179","66620a12ca26ef67a4b08def","null","","null","","","","","","","","./tasks/HMM-beads/Images/WhiteBeadChoice.png","","","","","","","","","",""
"image-keyboard-response","210","284611","0.0-3.0-6.0-1.0-2.24","66413412d9d93d6b67936792","6662009ae78f21dd82fcd179","66620a12ca26ef67a4b08def","null","","null","","","","","","","","./tasks/HMM-beads/Images/WhiteBeadChoiceWrong.png","","","","","","","","","",""
"image-keyboard-response","211","284675","0.0-3.0-6.0-1.0-0.25","66413412d9d93d6b67936792","6662009ae78f21dd82fcd179","66620a12ca26ef67a4b08def","62","","f","","","","","","","","./tasks/HMM-beads/Images/NewTrialBC.png","lowH","1","25","1","1","0","0","false","",""
"image-keyboard-response","212","284978","0.0-3.0-6.0-1.0-1.25","66413412d9d93d6b67936792","6662009ae78f21dd82fcd179","66620a12ca26ef67a4b08def","null","","null","","","","","","","","./tasks/HMM-beads/Images/BlackBeadChoice.png","","","","","","","","","",""
"image-keyboard-response","213","285482","0.0-3.0-6.0-1.0-2.25","66413412d9d93d6b67936792","6662009ae78f21dd82fcd179","66620a12ca26ef67a4b08def","null","","null","","","","","","","","./tasks/HMM-beads/Images/BlackBeadChoiceWrong.png","","","","","","","","","",""
"image-keyboard-response","214","285509","0.0-3.0-6.0-1.0-0.26","66413412d9d93d6b67936792","6662009ae78f21dd82fcd179","66620a12ca26ef67a4b08def","25","","j","","","","","","","","./tasks/HMM-beads/Images/NewTrialWC.png","lowH","1","26","1","0","1","1","false","",""
"image-keyboard-response","215","285811","0.0-3.0-6.0-1.0-1.26","66413412d9d93d6b67936792","6662009ae78f21dd82fcd179","66620a12ca26ef67a4b08def","null","","null","","","","","","","","./tasks/HMM-beads/Images/WhiteBeadChoice.png","","","","","","","","","",""
"image-keyboard-response","216","286314","0.0-3.0-6.0-1.0-2.26","66413412d9d93d6b67936792","6662009ae78f21dd82fcd179","66620a12ca26ef67a4b08def","null","","null","","","","","","","","./tasks/HMM-beads/Images/WhiteBeadChoiceWrong.png","","","","","","","","","",""
"image-keyboard-response","217","286353","0.0-3.0-6.0-1.0-0.27","66413412d9d93d6b67936792","6662009ae78f21dd82fcd179","66620a12ca26ef67a4b08def","38","","f","","","","","","","","./tasks/HMM-beads/Images/NewTrialBC.png","lowH","1","27","1","1","0","0","false","",""
"image-keyboard-response","218","286656","0.0-3.0-6.0-1.0-1.27","66413412d9d93d6b67936792","6662009ae78f21dd82fcd179","66620a12ca26ef67a4b08def","null","","null","","","","","","","","./tasks/HMM-beads/Images/BlackBeadChoice.png","","","","","","","","","",""
"image-keyboard-response","219","287158","0.0-3.0-6.0-1.0-2.27","66413412d9d93d6b67936792","6662009ae78f21dd82fcd179","66620a12ca26ef67a4b08def","null","","null","","","","","","","","./tasks/HMM-beads/Images/BlackBeadChoiceWrong.png","","","","","","","","","",""
"image-keyboard-response","220","289043","0.0-3.0-6.0-1.0-0.28","66413412d9d93d6b67936792","6662009ae78f21dd82fcd179","66620a12ca26ef67a4b08def","1883","","j","","","","","","","","./tasks/HMM-beads/Images/NewTrialWC.png","lowH","1","28","1","1","1","1","true","",""
"image-keyboard-response","221","289345","0.0-3.0-6.0-1.0-1.28","66413412d9d93d6b67936792","6662009ae78f21dd82fcd179","66620a12ca26ef67a4b08def","null","","null","","","","","","","","./tasks/HMM-beads/Images/WhiteBeadChoice.png","","","","","","","","","",""
"image-keyboard-response","222","289849","0.0-3.0-6.0-1.0-2.28","66413412d9d93d6b67936792","6662009ae78f21dd82fcd179","66620a12ca26ef67a4b08def","null","","null","","","","","","","","./tasks/HMM-beads/Images/WhiteBeadChoiceCorrect.png","","","","","","","","","",""
"image-keyboard-response","223","290242","0.0-3.0-6.0-1.0-0.29","66413412d9d93d6b67936792","6662009ae78f21dd82fcd179","66620a12ca26ef67a4b08def","391","","j","","","","","","","","./tasks/HMM-beads/Images/NewTrialWC.png","lowH","1","29","1","1","1","1","true","",""
"image-keyboard-response","224","290544","0.0-3.0-6.0-1.0-1.29","66413412d9d93d6b67936792","6662009ae78f21dd82fcd179","66620a12ca26ef67a4b08def","null","","null","","","","","","","","./tasks/HMM-beads/Images/WhiteBeadChoice.png","","","","","","","","","",""
"image-keyboard-response","225","291048","0.0-3.0-6.0-1.0-2.29","66413412d9d93d6b67936792","6662009ae78f21dd82fcd179","66620a12ca26ef67a4b08def","null","","null","","","","","","","","./tasks/HMM-beads/Images/WhiteBeadChoiceCorrect.png","","","","","","","","","",""
"image-keyboard-response","226","291155","0.0-3.0-6.0-1.0-0.30","66413412d9d93d6b67936792","6662009ae78f21dd82fcd179","66620a12ca26ef67a4b08def","105","","j","","","","","","","","./tasks/HMM-beads/Images/NewTrialWC.png","lowH","1","30","1","1","1","1","true","",""
"image-keyboard-response","227","291457","0.0-3.0-6.0-1.0-1.30","66413412d9d93d6b67936792","6662009ae78f21dd82fcd179","66620a12ca26ef67a4b08def","null","","null","","","","","","","","./tasks/HMM-beads/Images/WhiteBeadChoice.png","","","","","","","","","",""
"image-keyboard-response","228","291961","0.0-3.0-6.0-1.0-2.30","66413412d9d93d6b67936792","6662009ae78f21dd82fcd179","66620a12ca26ef67a4b08def","null","","null","","","","","","","","./tasks/HMM-beads/Images/WhiteBeadChoiceCorrect.png","","","","","","","","","",""
"image-keyboard-response","229","292280","0.0-3.0-6.0-1.0-0.31","66413412d9d93d6b67936792","6662009ae78f21dd82fcd179","66620a12ca26ef67a4b08def","317","","j","","","","","","","","./tasks/HMM-beads/Images/NewTrialWC.png","lowH","1","31","1","1","1","1","true","",""
"image-keyboard-response","230","292583","0.0-3.0-6.0-1.0-1.31","66413412d9d93d6b67936792","6662009ae78f21dd82fcd179","66620a12ca26ef67a4b08def","null","","null","","","","","","","","./tasks/HMM-beads/Images/WhiteBeadChoice.png","","","","","","","","","",""
"image-keyboard-response","231","293087","0.0-3.0-6.0-1.0-2.31","66413412d9d93d6b67936792","6662009ae78f21dd82fcd179","66620a12ca26ef67a4b08def","null","","null","","","","","","","","./tasks/HMM-beads/Images/WhiteBeadChoiceCorrect.png","","","","","","","","","",""
"image-keyboard-response","232","293376","0.0-3.0-6.0-1.0-0.32","66413412d9d93d6b67936792","6662009ae78f21dd82fcd179","66620a12ca26ef67a4b08def","287","","j","","","","","","","","./tasks/HMM-beads/Images/NewTrialWC.png","lowH","1","32","1","1","1","1","true","",""
"image-keyboard-response","233","293678","0.0-3.0-6.0-1.0-1.32","66413412d9d93d6b67936792","6662009ae78f21dd82fcd179","66620a12ca26ef67a4b08def","null","","null","","","","","","","","./tasks/HMM-beads/Images/WhiteBeadChoice.png","","","","","","","","","",""
"image-keyboard-response","234","294181","0.0-3.0-6.0-1.0-2.32","66413412d9d93d6b67936792","6662009ae78f21dd82fcd179","66620a12ca26ef67a4b08def","null","","null","","","","","","","","./tasks/HMM-beads/Images/WhiteBeadChoiceCorrect.png","","","","","","","","","",""
"image-keyboard-response","235","294493","0.0-3.0-6.0-1.0-0.33","66413412d9d93d6b67936792","6662009ae78f21dd82fcd179","66620a12ca26ef67a4b08def","310","","j","","","","","","","","./tasks/HMM-beads/Images/NewTrialWC.png","lowH","1","33","1","1","1","1","true","",""
"image-keyboard-response","236","294802","0.0-3.0-6.0-1.0-1.33","66413412d9d93d6b67936792","6662009ae78f21dd82fcd179","66620a12ca26ef67a4b08def","null","","null","","","","","","","","./tasks/HMM-beads/Images/WhiteBeadChoice.png","","","","","","","","","",""
"image-keyboard-response","237","295305","0.0-3.0-6.0-1.0-2.33","66413412d9d93d6b67936792","6662009ae78f21dd82fcd179","66620a12ca26ef67a4b08def","null","","null","","","","","","","","./tasks/HMM-beads/Images/WhiteBeadChoiceCorrect.png","","","","","","","","","",""
"image-keyboard-response","238","295660","0.0-3.0-6.0-1.0-0.34","66413412d9d93d6b67936792","6662009ae78f21dd82fcd179","66620a12ca26ef67a4b08def","352","","j","","","","","","","","./tasks/HMM-beads/Images/NewTrialWC.png","lowH","1","34","1","1","1","1","true","",""
"image-keyboard-response","239","295962","0.0-3.0-6.0-1.0-1.34","66413412d9d93d6b67936792","6662009ae78f21dd82fcd179","66620a12ca26ef67a4b08def","null","","null","","","","","","","","./tasks/HMM-beads/Images/WhiteBeadChoice.png","","","","","","","","","",""
"image-keyboard-response","240","296466","0.0-3.0-6.0-1.0-2.34","66413412d9d93d6b67936792","6662009ae78f21dd82fcd179","66620a12ca26ef67a4b08def","null","","null","","","","","","","","./tasks/HMM-beads/Images/WhiteBeadChoiceCorrect.png","","","","","","","","","",""
"image-keyboard-response","241","296739","0.0-3.0-6.0-1.0-0.35","66413412d9d93d6b67936792","6662009ae78f21dd82fcd179","66620a12ca26ef67a4b08def","271","","j","","","","","","","","./tasks/HMM-beads/Images/NewTrialWC.png","lowH","1","35","1","1","1","1","true","",""
"image-keyboard-response","242","297042","0.0-3.0-6.0-1.0-1.35","66413412d9d93d6b67936792","6662009ae78f21dd82fcd179","66620a12ca26ef67a4b08def","null","","null","","","","","","","","./tasks/HMM-beads/Images/WhiteBeadChoice.png","","","","","","","","","",""
"image-keyboard-response","243","297545","0.0-3.0-6.0-1.0-2.35","66413412d9d93d6b67936792","6662009ae78f21dd82fcd179","66620a12ca26ef67a4b08def","null","","null","","","","","","","","./tasks/HMM-beads/Images/WhiteBeadChoiceCorrect.png","","","","","","","","","",""
"image-keyboard-response","244","297638","0.0-3.0-6.0-1.0-0.36","66413412d9d93d6b67936792","6662009ae78f21dd82fcd179","66620a12ca26ef67a4b08def","92","","j","","","","","","","","./tasks/HMM-beads/Images/NewTrialWC.png","lowH","1","36","1","1","1","1","true","",""
"image-keyboard-response","245","297942","0.0-3.0-6.0-1.0-1.36","66413412d9d93d6b67936792","6662009ae78f21dd82fcd179","66620a12ca26ef67a4b08def","null","","null","","","","","","","","./tasks/HMM-beads/Images/WhiteBeadChoice.png","","","","","","","","","",""
"image-keyboard-response","246","298445","0.0-3.0-6.0-1.0-2.36","66413412d9d93d6b67936792","6662009ae78f21dd82fcd179","66620a12ca26ef67a4b08def","null","","null","","","","","","","","./tasks/HMM-beads/Images/WhiteBeadChoiceCorrect.png","","","","","","","","","",""
"image-keyboard-response","247","298726","0.0-3.0-6.0-1.0-0.37","66413412d9d93d6b67936792","6662009ae78f21dd82fcd179","66620a12ca26ef67a4b08def","280","","j","","","","","","","","./tasks/HMM-beads/Images/NewTrialWC.png","lowH","1","37","1","1","1","1","true","",""
"image-keyboard-response","248","299029","0.0-3.0-6.0-1.0-1.37","66413412d9d93d6b67936792","6662009ae78f21dd82fcd179","66620a12ca26ef67a4b08def","null","","null","","","","","","","","./tasks/HMM-beads/Images/WhiteBeadChoice.png","","","","","","","","","",""
"image-keyboard-response","249","299540","0.0-3.0-6.0-1.0-2.37","66413412d9d93d6b67936792","6662009ae78f21dd82fcd179","66620a12ca26ef67a4b08def","null","","null","","","","","","","","./tasks/HMM-beads/Images/WhiteBeadChoiceCorrect.png","","","","","","","","","",""
"image-keyboard-response","250","299651","0.0-3.0-6.0-1.0-0.38","66413412d9d93d6b67936792","6662009ae78f21dd82fcd179","66620a12ca26ef67a4b08def","109","","j","","","","","","","","./tasks/HMM-beads/Images/NewTrialWC.png","lowH","1","38","1","1","1","1","true","",""
"image-keyboard-response","251","299953","0.0-3.0-6.0-1.0-1.38","66413412d9d93d6b67936792","6662009ae78f21dd82fcd179","66620a12ca26ef67a4b08def","null","","null","","","","","","","","./tasks/HMM-beads/Images/WhiteBeadChoice.png","","","","","","","","","",""
"image-keyboard-response","252","300457","0.0-3.0-6.0-1.0-2.38","66413412d9d93d6b67936792","6662009ae78f21dd82fcd179","66620a12ca26ef67a4b08def","null","","null","","","","","","","","./tasks/HMM-beads/Images/WhiteBeadChoiceCorrect.png","","","","","","","","","",""
"image-keyboard-response","253","300482","0.0-3.0-6.0-1.0-0.39","66413412d9d93d6b67936792","6662009ae78f21dd82fcd179","66620a12ca26ef67a4b08def","24","","j","","","","","","","","./tasks/HMM-beads/Images/NewTrialWC.png","lowH","1","39","1","1","1","1","true","",""
"image-keyboard-response","254","300785","0.0-3.0-6.0-1.0-1.39","66413412d9d93d6b67936792","6662009ae78f21dd82fcd179","66620a12ca26ef67a4b08def","null","","null","","","","","","","","./tasks/HMM-beads/Images/WhiteBeadChoice.png","","","","","","","","","",""
"image-keyboard-response","255","301289","0.0-3.0-6.0-1.0-2.39","66413412d9d93d6b67936792","6662009ae78f21dd82fcd179","66620a12ca26ef67a4b08def","null","","null","","","","","","","","./tasks/HMM-beads/Images/WhiteBeadChoiceCorrect.png","","","","","","","","","",""
"image-keyboard-response","256","301398","0.0-3.0-6.0-1.0-0.40","66413412d9d93d6b67936792","6662009ae78f21dd82fcd179","66620a12ca26ef67a4b08def","108","","j","","","","","","","","./tasks/HMM-beads/Images/NewTrialWC.png","lowH","1","40","1","1","1","1","true","",""
"image-keyboard-response","257","301701","0.0-3.0-6.0-1.0-1.40","66413412d9d93d6b67936792","6662009ae78f21dd82fcd179","66620a12ca26ef67a4b08def","null","","null","","","","","","","","./tasks/HMM-beads/Images/WhiteBeadChoice.png","","","","","","","","","",""
"image-keyboard-response","258","302205","0.0-3.0-6.0-1.0-2.40","66413412d9d93d6b67936792","6662009ae78f21dd82fcd179","66620a12ca26ef67a4b08def","null","","null","","","","","","","","./tasks/HMM-beads/Images/WhiteBeadChoiceCorrect.png","","","","","","","","","",""
"image-keyboard-response","259","302252","0.0-3.0-6.0-1.0-0.41","66413412d9d93d6b67936792","6662009ae78f21dd82fcd179","66620a12ca26ef67a4b08def","46","","j","","","","","","","","./tasks/HMM-beads/Images/NewTrialWC.png","lowH","1","41","1","1","1","1","true","",""
"image-keyboard-response","260","302555","0.0-3.0-6.0-1.0-1.41","66413412d9d93d6b67936792","6662009ae78f21dd82fcd179","66620a12ca26ef67a4b08def","null","","null","","","","","","","","./tasks/HMM-beads/Images/WhiteBeadChoice.png","","","","","","","","","",""
"image-keyboard-response","261","303058","0.0-3.0-6.0-1.0-2.41","66413412d9d93d6b67936792","6662009ae78f21dd82fcd179","66620a12ca26ef67a4b08def","null","","null","","","","","","","","./tasks/HMM-beads/Images/WhiteBeadChoiceCorrect.png","","","","","","","","","",""
"image-keyboard-response","262","303616","0.0-3.0-6.0-1.0-0.42","66413412d9d93d6b67936792","6662009ae78f21dd82fcd179","66620a12ca26ef67a4b08def","556","","j","","","","","","","","./tasks/HMM-beads/Images/NewTrialWC.png","lowH","1","42","1","1","1","1","true","",""
"image-keyboard-response","263","303918","0.0-3.0-6.0-1.0-1.42","66413412d9d93d6b67936792","6662009ae78f21dd82fcd179","66620a12ca26ef67a4b08def","null","","null","","","","","","","","./tasks/HMM-beads/Images/WhiteBeadChoice.png","","","","","","","","","",""
"image-keyboard-response","264","304421","0.0-3.0-6.0-1.0-2.42","66413412d9d93d6b67936792","6662009ae78f21dd82fcd179","66620a12ca26ef67a4b08def","null","","null","","","","","","","","./tasks/HMM-beads/Images/WhiteBeadChoiceCorrect.png","","","","","","","","","",""
"image-keyboard-response","265","304765","0.0-3.0-6.0-1.0-0.43","66413412d9d93d6b67936792","6662009ae78f21dd82fcd179","66620a12ca26ef67a4b08def","342","","j","","","","","","","","./tasks/HMM-beads/Images/NewTrialWC.png","lowH","1","43","1","1","1","1","true","",""
"image-keyboard-response","266","305067","0.0-3.0-6.0-1.0-1.43","66413412d9d93d6b67936792","6662009ae78f21dd82fcd179","66620a12ca26ef67a4b08def","null","","null","","","","","","","","./tasks/HMM-beads/Images/WhiteBeadChoice.png","","","","","","","","","",""
"image-keyboard-response","267","305571","0.0-3.0-6.0-1.0-2.43","66413412d9d93d6b67936792","6662009ae78f21dd82fcd179","66620a12ca26ef67a4b08def","null","","null","","","","","","","","./tasks/HMM-beads/Images/WhiteBeadChoiceCorrect.png","","","","","","","","","",""
"image-keyboard-response","268","305731","0.0-3.0-6.0-1.0-0.44","66413412d9d93d6b67936792","6662009ae78f21dd82fcd179","66620a12ca26ef67a4b08def","158","","j","","","","","","","","./tasks/HMM-beads/Images/NewTrialWC.png","lowH","1","44","1","1","1","1","true","",""
"image-keyboard-response","269","306033","0.0-3.0-6.0-1.0-1.44","66413412d9d93d6b67936792","6662009ae78f21dd82fcd179","66620a12ca26ef67a4b08def","null","","null","","","","","","","","./tasks/HMM-beads/Images/WhiteBeadChoice.png","","","","","","","","","",""
"image-keyboard-response","270","306537","0.0-3.0-6.0-1.0-2.44","66413412d9d93d6b67936792","6662009ae78f21dd82fcd179","66620a12ca26ef67a4b08def","null","","null","","","","","","","","./tasks/HMM-beads/Images/WhiteBeadChoiceCorrect.png","","","","","","","","","",""
"image-keyboard-response","271","306913","0.0-3.0-6.0-1.0-0.45","66413412d9d93d6b67936792","6662009ae78f21dd82fcd179","66620a12ca26ef67a4b08def","374","","j","","","","","","","","./tasks/HMM-beads/Images/NewTrialWC.png","lowH","1","45","1","1","1","1","true","",""
"image-keyboard-response","272","307215","0.0-3.0-6.0-1.0-1.45","66413412d9d93d6b67936792","6662009ae78f21dd82fcd179","66620a12ca26ef67a4b08def","null","","null","","","","","","","","./tasks/HMM-beads/Images/WhiteBeadChoice.png","","","","","","","","","",""
"image-keyboard-response","273","307718","0.0-3.0-6.0-1.0-2.45","66413412d9d93d6b67936792","6662009ae78f21dd82fcd179","66620a12ca26ef67a4b08def","null","","null","","","","","","","","./tasks/HMM-beads/Images/WhiteBeadChoiceCorrect.png","","","","","","","","","",""
"image-keyboard-response","274","307891","0.0-3.0-6.0-1.0-0.46","66413412d9d93d6b67936792","6662009ae78f21dd82fcd179","66620a12ca26ef67a4b08def","172","","j","","","","","","","","./tasks/HMM-beads/Images/NewTrialWC.png","lowH","1","46","1","1","1","1","true","",""
"image-keyboard-response","275","308201","0.0-3.0-6.0-1.0-1.46","66413412d9d93d6b67936792","6662009ae78f21dd82fcd179","66620a12ca26ef67a4b08def","null","","null","","","","","","","","./tasks/HMM-beads/Images/WhiteBeadChoice.png","","","","","","","","","",""
"image-keyboard-response","276","308705","0.0-3.0-6.0-1.0-2.46","66413412d9d93d6b67936792","6662009ae78f21dd82fcd179","66620a12ca26ef67a4b08def","null","","null","","","","","","","","./tasks/HMM-beads/Images/WhiteBeadChoiceCorrect.png","","","","","","","","","",""
"image-keyboard-response","277","309101","0.0-3.0-6.0-1.0-0.47","66413412d9d93d6b67936792","6662009ae78f21dd82fcd179","66620a12ca26ef67a4b08def","394","","j","","","","","","","","./tasks/HMM-beads/Images/NewTrialWC.png","lowH","1","47","1","0","1","1","false","",""
"image-keyboard-response","278","309404","0.0-3.0-6.0-1.0-1.47","66413412d9d93d6b67936792","6662009ae78f21dd82fcd179","66620a12ca26ef67a4b08def","null","","null","","","","","","","","./tasks/HMM-beads/Images/WhiteBeadChoice.png","","","","","","","","","",""
"image-keyboard-response","279","309907","0.0-3.0-6.0-1.0-2.47","66413412d9d93d6b67936792","6662009ae78f21dd82fcd179","66620a12ca26ef67a4b08def","null","","null","","","","","","","","./tasks/HMM-beads/Images/WhiteBeadChoiceWrong.png","","","","","","","","","",""
"image-keyboard-response","280","310115","0.0-3.0-6.0-1.0-0.48","66413412d9d93d6b67936792","6662009ae78f21dd82fcd179","66620a12ca26ef67a4b08def","206","","f","","","","","","","","./tasks/HMM-beads/Images/NewTrialBC.png","lowH","1","48","1","0","0","0","true","",""
"image-keyboard-response","281","310418","0.0-3.0-6.0-1.0-1.48","66413412d9d93d6b67936792","6662009ae78f21dd82fcd179","66620a12ca26ef67a4b08def","null","","null","","","","","","","","./tasks/HMM-beads/Images/BlackBeadChoice.png","","","","","","","","","",""
"image-keyboard-response","282","310922","0.0-3.0-6.0-1.0-2.48","66413412d9d93d6b67936792","6662009ae78f21dd82fcd179","66620a12ca26ef67a4b08def","null","","null","","","","","","","","./tasks/HMM-beads/Images/BlackBeadChoiceCorrect.png","","","","","","","","","",""
"image-keyboard-response","283","311396","0.0-3.0-6.0-1.0-0.49","66413412d9d93d6b67936792","6662009ae78f21dd82fcd179","66620a12ca26ef67a4b08def","473","","f","","","","","","","","./tasks/HMM-beads/Images/NewTrialBC.png","lowH","1","49","1","0","0","0","true","",""
"image-keyboard-response","284","311699","0.0-3.0-6.0-1.0-1.49","66413412d9d93d6b67936792","6662009ae78f21dd82fcd179","66620a12ca26ef67a4b08def","null","","null","","","","","","","","./tasks/HMM-beads/Images/BlackBeadChoice.png","","","","","","","","","",""
"image-keyboard-response","285","312203","0.0-3.0-6.0-1.0-2.49","66413412d9d93d6b67936792","6662009ae78f21dd82fcd179","66620a12ca26ef67a4b08def","null","","null","","","","","","","","./tasks/HMM-beads/Images/BlackBeadChoiceCorrect.png","","","","","","","","","",""
"image-keyboard-response","286","312579","0.0-3.0-6.0-1.0-0.50","66413412d9d93d6b67936792","6662009ae78f21dd82fcd179","66620a12ca26ef67a4b08def","374","","f","","","","","","","","./tasks/HMM-beads/Images/NewTrialBC.png","lowH","1","50","1","1","0","0","false","",""
"image-keyboard-response","287","312882","0.0-3.0-6.0-1.0-1.50","66413412d9d93d6b67936792","6662009ae78f21dd82fcd179","66620a12ca26ef67a4b08def","null","","null","","","","","","","","./tasks/HMM-beads/Images/BlackBeadChoice.png","","","","","","","","","",""
"image-keyboard-response","288","313393","0.0-3.0-6.0-1.0-2.50","66413412d9d93d6b67936792","6662009ae78f21dd82fcd179","66620a12ca26ef67a4b08def","null","","null","","","","","","","","./tasks/HMM-beads/Images/BlackBeadChoiceWrong.png","","","","","","","","","",""
"image-keyboard-response","289","313561","0.0-3.0-6.0-1.0-0.51","66413412d9d93d6b67936792","6662009ae78f21dd82fcd179","66620a12ca26ef67a4b08def","165","","f","","","","","","","","./tasks/HMM-beads/Images/NewTrialWC.png","lowH","1","51","1","1","1","0","false","",""
"image-keyboard-response","290","313864","0.0-3.0-6.0-1.0-1.51","66413412d9d93d6b67936792","6662009ae78f21dd82fcd179","66620a12ca26ef67a4b08def","null","","null","","","","","","","","./tasks/HMM-beads/Images/BlackBeadChoice.png","","","","","","","","","",""
"image-keyboard-response","291","314368","0.0-3.0-6.0-1.0-2.51","66413412d9d93d6b67936792","6662009ae78f21dd82fcd179","66620a12ca26ef67a4b08def","null","","null","","","","","","","","./tasks/HMM-beads/Images/BlackBeadChoiceWrong.png","","","","","","","","","",""
"image-keyboard-response","292","314779","0.0-3.0-6.0-1.0-0.52","66413412d9d93d6b67936792","6662009ae78f21dd82fcd179","66620a12ca26ef67a4b08def","410","","j","","","","","","","","./tasks/HMM-beads/Images/NewTrialWC.png","lowH","1","52","1","1","1","1","true","",""
"image-keyboard-response","293","315082","0.0-3.0-6.0-1.0-1.52","66413412d9d93d6b67936792","6662009ae78f21dd82fcd179","66620a12ca26ef67a4b08def","null","","null","","","","","","","","./tasks/HMM-beads/Images/WhiteBeadChoice.png","","","","","","","","","",""
"image-keyboard-response","294","315585","0.0-3.0-6.0-1.0-2.52","66413412d9d93d6b67936792","6662009ae78f21dd82fcd179","66620a12ca26ef67a4b08def","null","","null","","","","","","","","./tasks/HMM-beads/Images/WhiteBeadChoiceCorrect.png","","","","","","","","","",""
"image-keyboard-response","295","315676","0.0-3.0-6.0-1.0-0.53","66413412d9d93d6b67936792","6662009ae78f21dd82fcd179","66620a12ca26ef67a4b08def","90","","j","","","","","","","","./tasks/HMM-beads/Images/NewTrialWC.png","lowH","1","53","1","1","1","1","true","",""
"image-keyboard-response","296","315979","0.0-3.0-6.0-1.0-1.53","66413412d9d93d6b67936792","6662009ae78f21dd82fcd179","66620a12ca26ef67a4b08def","null","","null","","","","","","","","./tasks/HMM-beads/Images/WhiteBeadChoice.png","","","","","","","","","",""
"image-keyboard-response","297","316483","0.0-3.0-6.0-1.0-2.53","66413412d9d93d6b67936792","6662009ae78f21dd82fcd179","66620a12ca26ef67a4b08def","null","","null","","","","","","","","./tasks/HMM-beads/Images/WhiteBeadChoiceCorrect.png","","","","","","","","","",""
"image-keyboard-response","298","316806","0.0-3.0-6.0-1.0-0.54","66413412d9d93d6b67936792","6662009ae78f21dd82fcd179","66620a12ca26ef67a4b08def","321","","j","","","","","","","","./tasks/HMM-beads/Images/NewTrialWC.png","lowH","1","54","1","1","1","1","true","",""
"image-keyboard-response","299","317109","0.0-3.0-6.0-1.0-1.54","66413412d9d93d6b67936792","6662009ae78f21dd82fcd179","66620a12ca26ef67a4b08def","null","","null","","","","","","","","./tasks/HMM-beads/Images/WhiteBeadChoice.png","","","","","","","","","",""
"image-keyboard-response","300","317613","0.0-3.0-6.0-1.0-2.54","66413412d9d93d6b67936792","6662009ae78f21dd82fcd179","66620a12ca26ef67a4b08def","null","","null","","","","","","","","./tasks/HMM-beads/Images/WhiteBeadChoiceCorrect.png","","","","","","","","","",""
"image-keyboard-response","301","317725","0.0-3.0-6.0-1.0-0.55","66413412d9d93d6b67936792","6662009ae78f21dd82fcd179","66620a12ca26ef67a4b08def","112","","j","","","","","","","","./tasks/HMM-beads/Images/NewTrialWC.png","lowH","1","55","1","1","1","1","true","",""
"image-keyboard-response","302","318028","0.0-3.0-6.0-1.0-1.55","66413412d9d93d6b67936792","6662009ae78f21dd82fcd179","66620a12ca26ef67a4b08def","null","","null","","","","","","","","./tasks/HMM-beads/Images/WhiteBeadChoice.png","","","","","","","","","",""
"image-keyboard-response","303","318531","0.0-3.0-6.0-1.0-2.55","66413412d9d93d6b67936792","6662009ae78f21dd82fcd179","66620a12ca26ef67a4b08def","null","","null","","","","","","","","./tasks/HMM-beads/Images/WhiteBeadChoiceCorrect.png","","","","","","","","","",""
"image-keyboard-response","304","319550","0.0-3.0-6.0-1.0-0.56","66413412d9d93d6b67936792","6662009ae78f21dd82fcd179","66620a12ca26ef67a4b08def","1019","","j","","","","","","","","./tasks/HMM-beads/Images/NewTrialWC.png","lowH","1","56","1","1","1","1","true","",""
"image-keyboard-response","305","319853","0.0-3.0-6.0-1.0-1.56","66413412d9d93d6b67936792","6662009ae78f21dd82fcd179","66620a12ca26ef67a4b08def","null","","null","","","","","","","","./tasks/HMM-beads/Images/WhiteBeadChoice.png","","","","","","","","","",""
"image-keyboard-response","306","320357","0.0-3.0-6.0-1.0-2.56","66413412d9d93d6b67936792","6662009ae78f21dd82fcd179","66620a12ca26ef67a4b08def","null","","null","","","","","","","","./tasks/HMM-beads/Images/WhiteBeadChoiceCorrect.png","","","","","","","","","",""
"image-keyboard-response","307","320376","0.0-3.0-6.0-1.0-0.57","66413412d9d93d6b67936792","6662009ae78f21dd82fcd179","66620a12ca26ef67a4b08def","17","","j","","","","","","","","./tasks/HMM-beads/Images/NewTrialWC.png","lowH","1","57","1","1","1","1","true","",""
"image-keyboard-response","308","320679","0.0-3.0-6.0-1.0-1.57","66413412d9d93d6b67936792","6662009ae78f21dd82fcd179","66620a12ca26ef67a4b08def","null","","null","","","","","","","","./tasks/HMM-beads/Images/WhiteBeadChoice.png","","","","","","","","","",""
"image-keyboard-response","309","321182","0.0-3.0-6.0-1.0-2.57","66413412d9d93d6b67936792","6662009ae78f21dd82fcd179","66620a12ca26ef67a4b08def","null","","null","","","","","","","","./tasks/HMM-beads/Images/WhiteBeadChoiceCorrect.png","","","","","","","","","",""
"image-keyboard-response","310","321578","0.0-3.0-6.0-1.0-0.58","66413412d9d93d6b67936792","6662009ae78f21dd82fcd179","66620a12ca26ef67a4b08def","394","","j","","","","","","","","./tasks/HMM-beads/Images/NewTrialWC.png","lowH","1","58","1","1","1","1","true","",""
"image-keyboard-response","311","321880","0.0-3.0-6.0-1.0-1.58","66413412d9d93d6b67936792","6662009ae78f21dd82fcd179","66620a12ca26ef67a4b08def","null","","null","","","","","","","","./tasks/HMM-beads/Images/WhiteBeadChoice.png","","","","","","","","","",""
"image-keyboard-response","312","322383","0.0-3.0-6.0-1.0-2.58","66413412d9d93d6b67936792","6662009ae78f21dd82fcd179","66620a12ca26ef67a4b08def","null","","null","","","","","","","","./tasks/HMM-beads/Images/WhiteBeadChoiceCorrect.png","","","","","","","","","",""
"image-keyboard-response","313","322476","0.0-3.0-6.0-1.0-0.59","66413412d9d93d6b67936792","6662009ae78f21dd82fcd179","66620a12ca26ef67a4b08def","91","","j","","","","","","","","./tasks/HMM-beads/Images/NewTrialWC.png","lowH","1","59","1","0","1","1","false","",""
"image-keyboard-response","314","322786","0.0-3.0-6.0-1.0-1.59","66413412d9d93d6b67936792","6662009ae78f21dd82fcd179","66620a12ca26ef67a4b08def","null","","null","","","","","","","","./tasks/HMM-beads/Images/WhiteBeadChoice.png","","","","","","","","","",""
"image-keyboard-response","315","323290","0.0-3.0-6.0-1.0-2.59","66413412d9d93d6b67936792","6662009ae78f21dd82fcd179","66620a12ca26ef67a4b08def","null","","null","","","","","","","","./tasks/HMM-beads/Images/WhiteBeadChoiceWrong.png","","","","","","","","","",""
"image-keyboard-response","316","323995","0.0-3.0-6.0-1.0-0.60","66413412d9d93d6b67936792","6662009ae78f21dd82fcd179","66620a12ca26ef67a4b08def","704","","f","","","","","","","","./tasks/HMM-beads/Images/NewTrialBC.png","lowH","1","60","1","1","0","0","false","",""
"image-keyboard-response","317","324299","0.0-3.0-6.0-1.0-1.60","66413412d9d93d6b67936792","6662009ae78f21dd82fcd179","66620a12ca26ef67a4b08def","null","","null","","","","","","","","./tasks/HMM-beads/Images/BlackBeadChoice.png","","","","","","","","","",""
"image-keyboard-response","318","324802","0.0-3.0-6.0-1.0-2.60","66413412d9d93d6b67936792","6662009ae78f21dd82fcd179","66620a12ca26ef67a4b08def","null","","null","","","","","","","","./tasks/HMM-beads/Images/BlackBeadChoiceWrong.png","","","","","","","","","",""
"image-keyboard-response","319","324828","0.0-3.0-6.0-1.0-0.61","66413412d9d93d6b67936792","6662009ae78f21dd82fcd179","66620a12ca26ef67a4b08def","24","","j","","","","","","","","./tasks/HMM-beads/Images/NewTrialWC.png","lowH","1","61","1","1","1","1","true","",""
"image-keyboard-response","320","325130","0.0-3.0-6.0-1.0-1.61","66413412d9d93d6b67936792","6662009ae78f21dd82fcd179","66620a12ca26ef67a4b08def","null","","null","","","","","","","","./tasks/HMM-beads/Images/WhiteBeadChoice.png","","","","","","","","","",""
"image-keyboard-response","321","325634","0.0-3.0-6.0-1.0-2.61","66413412d9d93d6b67936792","6662009ae78f21dd82fcd179","66620a12ca26ef67a4b08def","null","","null","","","","","","","","./tasks/HMM-beads/Images/WhiteBeadChoiceCorrect.png","","","","","","","","","",""
"image-keyboard-response","322","326117","0.0-3.0-6.0-1.0-0.62","66413412d9d93d6b67936792","6662009ae78f21dd82fcd179","66620a12ca26ef67a4b08def","482","","j","","","","","","","","./tasks/HMM-beads/Images/NewTrialWC.png","lowH","1","62","1","0","1","1","false","",""
"image-keyboard-response","323","326420","0.0-3.0-6.0-1.0-1.62","66413412d9d93d6b67936792","6662009ae78f21dd82fcd179","66620a12ca26ef67a4b08def","null","","null","","","","","","","","./tasks/HMM-beads/Images/WhiteBeadChoice.png","","","","","","","","","",""
"image-keyboard-response","324","326924","0.0-3.0-6.0-1.0-2.62","66413412d9d93d6b67936792","6662009ae78f21dd82fcd179","66620a12ca26ef67a4b08def","null","","null","","","","","","","","./tasks/HMM-beads/Images/WhiteBeadChoiceWrong.png","","","","","","","","","",""
"image-keyboard-response","325","327165","0.0-3.0-6.0-1.0-0.63","66413412d9d93d6b67936792","6662009ae78f21dd82fcd179","66620a12ca26ef67a4b08def","240","","f","","","","","","","","./tasks/HMM-beads/Images/NewTrialBC.png","lowH","1","63","1","1","0","0","false","",""
"image-keyboard-response","326","327468","0.0-3.0-6.0-1.0-1.63","66413412d9d93d6b67936792","6662009ae78f21dd82fcd179","66620a12ca26ef67a4b08def","null","","null","","","","","","","","./tasks/HMM-beads/Images/BlackBeadChoice.png","","","","","","","","","",""
"image-keyboard-response","327","327979","0.0-3.0-6.0-1.0-2.63","66413412d9d93d6b67936792","6662009ae78f21dd82fcd179","66620a12ca26ef67a4b08def","null","","null","","","","","","","","./tasks/HMM-beads/Images/BlackBeadChoiceWrong.png","","","","","","","","","",""
"image-keyboard-response","328","328288","0.0-3.0-6.0-1.0-0.64","66413412d9d93d6b67936792","6662009ae78f21dd82fcd179","66620a12ca26ef67a4b08def","307","","j","","","","","","","","./tasks/HMM-beads/Images/NewTrialWC.png","lowH","1","64","1","1","1","1","true","",""
"image-keyboard-response","329","328591","0.0-3.0-6.0-1.0-1.64","66413412d9d93d6b67936792","6662009ae78f21dd82fcd179","66620a12ca26ef67a4b08def","null","","null","","","","","","","","./tasks/HMM-beads/Images/WhiteBeadChoice.png","","","","","","","","","",""
"image-keyboard-response","330","329094","0.0-3.0-6.0-1.0-2.64","66413412d9d93d6b67936792","6662009ae78f21dd82fcd179","66620a12ca26ef67a4b08def","null","","null","","","","","","","","./tasks/HMM-beads/Images/WhiteBeadChoiceCorrect.png","","","","","","","","","",""
"image-keyboard-response","331","329387","0.0-3.0-6.0-1.0-0.65","66413412d9d93d6b67936792","6662009ae78f21dd82fcd179","66620a12ca26ef67a4b08def","292","","j","","","","","","","","./tasks/HMM-beads/Images/NewTrialWC.png","lowH","1","65","1","1","1","1","true","",""
"image-keyboard-response","332","329690","0.0-3.0-6.0-1.0-1.65","66413412d9d93d6b67936792","6662009ae78f21dd82fcd179","66620a12ca26ef67a4b08def","null","","null","","","","","","","","./tasks/HMM-beads/Images/WhiteBeadChoice.png","","","","","","","","","",""
"image-keyboard-response","333","330192","0.0-3.0-6.0-1.0-2.65","66413412d9d93d6b67936792","6662009ae78f21dd82fcd179","66620a12ca26ef67a4b08def","null","","null","","","","","","","","./tasks/HMM-beads/Images/WhiteBeadChoiceCorrect.png","","","","","","","","","",""
"image-keyboard-response","334","330607","0.0-3.0-6.0-1.0-0.66","66413412d9d93d6b67936792","6662009ae78f21dd82fcd179","66620a12ca26ef67a4b08def","414","","j","","","","","","","","./tasks/HMM-beads/Images/NewTrialWC.png","lowH","1","66","1","1","1","1","true","",""
"image-keyboard-response","335","330910","0.0-3.0-6.0-1.0-1.66","66413412d9d93d6b67936792","6662009ae78f21dd82fcd179","66620a12ca26ef67a4b08def","null","","null","","","","","","","","./tasks/HMM-beads/Images/WhiteBeadChoice.png","","","","","","","","","",""
"image-keyboard-response","336","331414","0.0-3.0-6.0-1.0-2.66","66413412d9d93d6b67936792","6662009ae78f21dd82fcd179","66620a12ca26ef67a4b08def","null","","null","","","","","","","","./tasks/HMM-beads/Images/WhiteBeadChoiceCorrect.png","","","","","","","","","",""
"image-keyboard-response","337","331558","0.0-3.0-6.0-1.0-0.67","66413412d9d93d6b67936792","6662009ae78f21dd82fcd179","66620a12ca26ef67a4b08def","143","","j","","","","","","","","./tasks/HMM-beads/Images/NewTrialWC.png","lowH","1","67","1","0","1","1","false","",""
"image-keyboard-response","338","331861","0.0-3.0-6.0-1.0-1.67","66413412d9d93d6b67936792","6662009ae78f21dd82fcd179","66620a12ca26ef67a4b08def","null","","null","","","","","","","","./tasks/HMM-beads/Images/WhiteBeadChoice.png","","","","","","","","","",""
"image-keyboard-response","339","332364","0.0-3.0-6.0-1.0-2.67","66413412d9d93d6b67936792","6662009ae78f21dd82fcd179","66620a12ca26ef67a4b08def","null","","null","","","","","","","","./tasks/HMM-beads/Images/WhiteBeadChoiceWrong.png","","","","","","","","","",""
"image-keyboard-response","340","332472","0.0-3.0-6.0-1.0-0.68","66413412d9d93d6b67936792","6662009ae78f21dd82fcd179","66620a12ca26ef67a4b08def","106","","f","","","","","","","","./tasks/HMM-beads/Images/NewTrialBC.png","lowH","1","68","1","1","0","0","false","",""
"image-keyboard-response","341","332776","0.0-3.0-6.0-1.0-1.68","66413412d9d93d6b67936792","6662009ae78f21dd82fcd179","66620a12ca26ef67a4b08def","null","","null","","","","","","","","./tasks/HMM-beads/Images/BlackBeadChoice.png","","","","","","","","","",""
"image-keyboard-response","342","333279","0.0-3.0-6.0-1.0-2.68","66413412d9d93d6b67936792","6662009ae78f21dd82fcd179","66620a12ca26ef67a4b08def","null","","null","","","","","","","","./tasks/HMM-beads/Images/BlackBeadChoiceWrong.png","","","","","","","","","",""
"image-keyboard-response","343","333641","0.0-3.0-6.0-1.0-0.69","66413412d9d93d6b67936792","6662009ae78f21dd82fcd179","66620a12ca26ef67a4b08def","360","","j","","","","","","","","./tasks/HMM-beads/Images/NewTrialWC.png","lowH","1","69","0","1","1","1","true","",""
"image-keyboard-response","344","333944","0.0-3.0-6.0-1.0-1.69","66413412d9d93d6b67936792","6662009ae78f21dd82fcd179","66620a12ca26ef67a4b08def","null","","null","","","","","","","","./tasks/HMM-beads/Images/WhiteBeadChoice.png","","","","","","","","","",""
"image-keyboard-response","345","334448","0.0-3.0-6.0-1.0-2.69","66413412d9d93d6b67936792","6662009ae78f21dd82fcd179","66620a12ca26ef67a4b08def","null","","null","","","","","","","","./tasks/HMM-beads/Images/WhiteBeadChoiceCorrect.png","","","","","","","","","",""
"image-keyboard-response","346","334779","0.0-3.0-6.0-1.0-0.70","66413412d9d93d6b67936792","6662009ae78f21dd82fcd179","66620a12ca26ef67a4b08def","330","","j","","","","","","","","./tasks/HMM-beads/Images/NewTrialWC.png","lowH","1","70","0","1","1","1","true","",""
"image-keyboard-response","347","335082","0.0-3.0-6.0-1.0-1.70","66413412d9d93d6b67936792","6662009ae78f21dd82fcd179","66620a12ca26ef67a4b08def","null","","null","","","","","","","","./tasks/HMM-beads/Images/WhiteBeadChoice.png","","","","","","","","","",""
"image-keyboard-response","348","335586","0.0-3.0-6.0-1.0-2.70","66413412d9d93d6b67936792","6662009ae78f21dd82fcd179","66620a12ca26ef67a4b08def","null","","null","","","","","","","","./tasks/HMM-beads/Images/WhiteBeadChoiceCorrect.png","","","","","","","","","",""
"image-keyboard-response","349","335932","0.0-3.0-6.0-1.0-0.71","66413412d9d93d6b67936792","6662009ae78f21dd82fcd179","66620a12ca26ef67a4b08def","346","","j","","","","","","","","./tasks/HMM-beads/Images/NewTrialWC.png","lowH","1","71","0","0","1","1","false","",""
"image-keyboard-response","350","336234","0.0-3.0-6.0-1.0-1.71","66413412d9d93d6b67936792","6662009ae78f21dd82fcd179","66620a12ca26ef67a4b08def","null","","null","","","","","","","","./tasks/HMM-beads/Images/WhiteBeadChoice.png","","","","","","","","","",""
"image-keyboard-response","351","336736","0.0-3.0-6.0-1.0-2.71","66413412d9d93d6b67936792","6662009ae78f21dd82fcd179","66620a12ca26ef67a4b08def","null","","null","","","","","","","","./tasks/HMM-beads/Images/WhiteBeadChoiceWrong.png","","","","","","","","","",""
"image-keyboard-response","352","336837","0.0-3.0-6.0-1.0-0.72","66413412d9d93d6b67936792","6662009ae78f21dd82fcd179","66620a12ca26ef67a4b08def","101","","f","","","","","","","","./tasks/HMM-beads/Images/NewTrialBC.png","lowH","1","72","0","0","0","0","true","",""
"image-keyboard-response","353","337143","0.0-3.0-6.0-1.0-1.72","66413412d9d93d6b67936792","6662009ae78f21dd82fcd179","66620a12ca26ef67a4b08def","null","","null","","","","","","","","./tasks/HMM-beads/Images/BlackBeadChoice.png","","","","","","","","","",""
"image-keyboard-response","354","337647","0.0-3.0-6.0-1.0-2.72","66413412d9d93d6b67936792","6662009ae78f21dd82fcd179","66620a12ca26ef67a4b08def","null","","null","","","","","","","","./tasks/HMM-beads/Images/BlackBeadChoiceCorrect.png","","","","","","","","","",""
"image-keyboard-response","355","337762","0.0-3.0-6.0-1.0-0.73","66413412d9d93d6b67936792","6662009ae78f21dd82fcd179","66620a12ca26ef67a4b08def","114","","f","","","","","","","","./tasks/HMM-beads/Images/NewTrialBC.png","lowH","1","73","0","1","0","0","false","",""
"image-keyboard-response","356","338066","0.0-3.0-6.0-1.0-1.73","66413412d9d93d6b67936792","6662009ae78f21dd82fcd179","66620a12ca26ef67a4b08def","null","","null","","","","","","","","./tasks/HMM-beads/Images/BlackBeadChoice.png","","","","","","","","","",""
"image-keyboard-response","357","338569","0.0-3.0-6.0-1.0-2.73","66413412d9d93d6b67936792","6662009ae78f21dd82fcd179","66620a12ca26ef67a4b08def","null","","null","","","","","","","","./tasks/HMM-beads/Images/BlackBeadChoiceWrong.png","","","","","","","","","",""
"image-keyboard-response","358","338977","0.0-3.0-6.0-1.0-0.74","66413412d9d93d6b67936792","6662009ae78f21dd82fcd179","66620a12ca26ef67a4b08def","406","","j","","","","","","","","./tasks/HMM-beads/Images/NewTrialWC.png","lowH","1","74","0","0","1","1","false","",""
"image-keyboard-response","359","339279","0.0-3.0-6.0-1.0-1.74","66413412d9d93d6b67936792","6662009ae78f21dd82fcd179","66620a12ca26ef67a4b08def","null","","null","","","","","","","","./tasks/HMM-beads/Images/WhiteBeadChoice.png","","","","","","","","","",""
"image-keyboard-response","360","339783","0.0-3.0-6.0-1.0-2.74","66413412d9d93d6b67936792","6662009ae78f21dd82fcd179","66620a12ca26ef67a4b08def","null","","null","","","","","","","","./tasks/HMM-beads/Images/WhiteBeadChoiceWrong.png","","","","","","","","","",""
"image-keyboard-response","361","339833","0.0-3.0-6.0-1.0-0.75","66413412d9d93d6b67936792","6662009ae78f21dd82fcd179","66620a12ca26ef67a4b08def","48","","f","","","","","","","","./tasks/HMM-beads/Images/NewTrialBC.png","lowH","1","75","0","1","0","0","false","",""
"image-keyboard-response","362","340136","0.0-3.0-6.0-1.0-1.75","66413412d9d93d6b67936792","6662009ae78f21dd82fcd179","66620a12ca26ef67a4b08def","null","","null","","","","","","","","./tasks/HMM-beads/Images/BlackBeadChoice.png","","","","","","","","","",""
"image-keyboard-response","363","340640","0.0-3.0-6.0-1.0-2.75","66413412d9d93d6b67936792","6662009ae78f21dd82fcd179","66620a12ca26ef67a4b08def","null","","null","","","","","","","","./tasks/HMM-beads/Images/BlackBeadChoiceWrong.png","","","","","","","","","",""
"image-keyboard-response","364","340996","0.0-3.0-6.0-1.0-0.76","66413412d9d93d6b67936792","6662009ae78f21dd82fcd179","66620a12ca26ef67a4b08def","355","","j","","","","","","","","./tasks/HMM-beads/Images/NewTrialWC.png","lowH","1","76","0","1","1","1","true","",""
"image-keyboard-response","365","341300","0.0-3.0-6.0-1.0-1.76","66413412d9d93d6b67936792","6662009ae78f21dd82fcd179","66620a12ca26ef67a4b08def","null","","null","","","","","","","","./tasks/HMM-beads/Images/WhiteBeadChoice.png","","","","","","","","","",""
"image-keyboard-response","366","341810","0.0-3.0-6.0-1.0-2.76","66413412d9d93d6b67936792","6662009ae78f21dd82fcd179","66620a12ca26ef67a4b08def","null","","null","","","","","","","","./tasks/HMM-beads/Images/WhiteBeadChoiceCorrect.png","","","","","","","","","",""
"image-keyboard-response","367","341889","0.0-3.0-6.0-1.0-0.77","66413412d9d93d6b67936792","6662009ae78f21dd82fcd179","66620a12ca26ef67a4b08def","76","","j","","","","","","","","./tasks/HMM-beads/Images/NewTrialWC.png","lowH","1","77","0","0","1","1","false","",""
"image-keyboard-response","368","342192","0.0-3.0-6.0-1.0-1.77","66413412d9d93d6b67936792","6662009ae78f21dd82fcd179","66620a12ca26ef67a4b08def","null","","null","","","","","","","","./tasks/HMM-beads/Images/WhiteBeadChoice.png","","","","","","","","","",""
"image-keyboard-response","369","342695","0.0-3.0-6.0-1.0-2.77","66413412d9d93d6b67936792","6662009ae78f21dd82fcd179","66620a12ca26ef67a4b08def","null","","null","","","","","","","","./tasks/HMM-beads/Images/WhiteBeadChoiceWrong.png","","","","","","","","","",""
"image-keyboard-response","370","343096","0.0-3.0-6.0-1.0-0.78","66413412d9d93d6b67936792","6662009ae78f21dd82fcd179","66620a12ca26ef67a4b08def","399","","f","","","","","","","","./tasks/HMM-beads/Images/NewTrialBC.png","lowH","1","78","0","0","0","0","true","",""
"image-keyboard-response","371","343399","0.0-3.0-6.0-1.0-1.78","66413412d9d93d6b67936792","6662009ae78f21dd82fcd179","66620a12ca26ef67a4b08def","null","","null","","","","","","","","./tasks/HMM-beads/Images/BlackBeadChoice.png","","","","","","","","","",""
"image-keyboard-response","372","343903","0.0-3.0-6.0-1.0-2.78","66413412d9d93d6b67936792","6662009ae78f21dd82fcd179","66620a12ca26ef67a4b08def","null","","null","","","","","","","","./tasks/HMM-beads/Images/BlackBeadChoiceCorrect.png","","","","","","","","","",""
"image-keyboard-response","373","344166","0.0-3.0-6.0-1.0-0.79","66413412d9d93d6b67936792","6662009ae78f21dd82fcd179","66620a12ca26ef67a4b08def","261","","f","","","","","","","","./tasks/HMM-beads/Images/NewTrialBC.png","lowH","1","79","0","0","0","0","true","",""
"image-keyboard-response","374","344469","0.0-3.0-6.0-1.0-1.79","66413412d9d93d6b67936792","6662009ae78f21dd82fcd179","66620a12ca26ef67a4b08def","null","","null","","","","","","","","./tasks/HMM-beads/Images/BlackBeadChoice.png","","","","","","","","","",""
