"trial_type","trial_index","time_elapsed","internal_node_id","subject_id","study_id","session_id","rt","url","response","question_order","view_history","success","timeout","failed_images","failed_audio","failed_video","stimulus","block","block_rep","trial_number","jar","bead","previous_bead","choice","correct","lowH_score","total_bonus"
"pavlovia","0","1238","0.0-0.0","64332b93d1cde024292baf53","6662009ae78f21dd82fcd179","66620d77570836b974b9ecfa","","","","","","","","","","","","","","","","","","","","",""
"external-html","1","9507","0.0-1.0-0.0","64332b93d1cde024292baf53","6662009ae78f21dd82fcd179","66620d77570836b974b9ecfa","8150","new_consent.html","","","","","","","","","","","","","","","","","","",""
"survey-multi-choice","2","16290","0.0-1.0-1.0","64332b93d1cde024292baf53","6662009ae78f21dd82fcd179","66620d77570836b974b9ecfa","6779","","{""Q0"":""Female"",""Q1"":""White""}","[0,1]","","","","","","","","","","","","","","","","",""
"survey-text","3","20209","0.0-1.0-2.0","64332b93d1cde024292baf53","6662009ae78f21dd82fcd179","66620d77570836b974b9ecfa","3916","","{""Q0"":""51""}","","","","","","","","","","","","","","","","","",""
"instructions","4","22835","0.0-2.0","64332b93d1cde024292baf53","6662009ae78f21dd82fcd179","66620d77570836b974b9ecfa","2514","","","","[{""page_index"":0,""viewing_time"":2513}]","","","","","","","","","","","","","","","",""
"preload","5","23712","0.0-3.0-0.0","64332b93d1cde024292baf53","6662009ae78f21dd82fcd179","66620d77570836b974b9ecfa","","","","","","true","false","[]","[]","[]","","","","","","","","","","",""
"instructions","6","239162","0.0-3.0-1.0","64332b93d1cde024292baf53","6662009ae78f21dd82fcd179","66620d77570836b974b9ecfa","215449","","","","[{""page_index"":0,""viewing_time"":30258},{""page_index"":1,""viewing_time"":14814},{""page_index"":2,""viewing_time"":6098},{""page_index"":3,""viewing_time"":3789},{""page_index"":4,""viewing_time"":25441},{""page_index"":5,""viewing_time"":61389},{""page_index"":6,""viewing_time"":16138},{""page_index"":7,""viewing_time"":9646},{""page_index"":8,""viewing_time"":11494},{""page_index"":9,""viewing_time"":8832},{""page_index"":10,""viewing_time"":19746},{""page_index"":11,""viewing_time"":7806}]","","","","","","","","","","","","","","","",""
"html-button-response","7","251422","0.0-3.0-2.0-0.0-0.0","64332b93d1cde024292baf53","6662009ae78f21dd82fcd179","66620d77570836b974b9ecfa","12256","","1","","","","","","","","<div align=center>Your goal is to predict…?<br><br></div>","","","","","","","","","",""
"html-button-response","8","263774","0.0-3.0-2.0-1.0-0.0","64332b93d1cde024292baf53","6662009ae78f21dd82fcd179","66620d77570836b974b9ecfa","10636","","2","","","","","","","","<div align=center>In the jar with mostly white beads, there are ___% white beads and ___% black beads?<br><br></div>","","","","","","","","","",""
"html-button-response","9","276133","0.0-3.0-2.0-2.0-0.0","64332b93d1cde024292baf53","6662009ae78f21dd82fcd179","66620d77570836b974b9ecfa","9931","","1","","","","","","","","<div align=center>When there is a 1% probability that the jars will switch, the next bead will most likely be drawn from the…<br><br></div>","","","","","","","","","",""
"html-button-response","10","279080","0.0-3.0-2.0-2.1-0.1","64332b93d1cde024292baf53","6662009ae78f21dd82fcd179","66620d77570836b974b9ecfa","751","","0","","","","","","","","<div align=center>When there is a 1% probability that the jars will switch, the next bead will most likely be drawn from the…<br><br></div>","","","","","","","","","",""
"html-button-response","11","291460","0.0-3.0-2.0-3.0-0.0","64332b93d1cde024292baf53","6662009ae78f21dd82fcd179","66620d77570836b974b9ecfa","11492","","1","","","","","","","","<div align=center>When there is a 99% probability that the jars will switch, the next bead will most likely be drawn from the…<br><br></div>","","","","","","","","","",""
"instructions","12","330264","0.0-3.0-3.0","64332b93d1cde024292baf53","6662009ae78f21dd82fcd179","66620d77570836b974b9ecfa","36473","","","","[{""page_index"":0,""viewing_time"":36472}]","","","","","","","","","","","","","","","",""
"html-keyboard-response","13","348144","0.0-3.0-4.0-0.0","64332b93d1cde024292baf53","6662009ae78f21dd82fcd179","66620d77570836b974b9ecfa","17878",""," ","","","","","","","","<div align=center>In this practice block, there will be a <b>1% chance</b> that the jar on the next trial will be different from the jar on the current trial.<br><br></div>","","","","","","","","","",""
"image-keyboard-response","14","361728","0.0-3.0-4.0-1.0-0.0","64332b93d1cde024292baf53","6662009ae78f21dd82fcd179","66620d77570836b974b9ecfa","13582","","f","","","","","","","","./tasks/HMM-beads/Images/NoChoice.png","practice","0","0","0","0","9","0","true","",""
"image-keyboard-response","15","362035","0.0-3.0-4.0-1.0-1.0","64332b93d1cde024292baf53","6662009ae78f21dd82fcd179","66620d77570836b974b9ecfa","null","","null","","","","","","","","./tasks/HMM-beads/Images/BlackBeadChoice.png","","","","","","","","","",""
"image-keyboard-response","16","362553","0.0-3.0-4.0-1.0-2.0","64332b93d1cde024292baf53","6662009ae78f21dd82fcd179","66620d77570836b974b9ecfa","null","","null","","","","","","","","./tasks/HMM-beads/Images/BlackBeadChoiceCorrect.png","","","","","","","","","",""
"image-keyboard-response","17","372111","0.0-3.0-4.0-1.0-0.1","64332b93d1cde024292baf53","6662009ae78f21dd82fcd179","66620d77570836b974b9ecfa","9557","","j","","","","","","","","./tasks/HMM-beads/Images/NewTrialBC.png","practice","0","1","0","0","0","1","false","",""
"image-keyboard-response","18","372420","0.0-3.0-4.0-1.0-1.1","64332b93d1cde024292baf53","6662009ae78f21dd82fcd179","66620d77570836b974b9ecfa","null","","null","","","","","","","","./tasks/HMM-beads/Images/WhiteBeadChoice.png","","","","","","","","","",""
"image-keyboard-response","19","372933","0.0-3.0-4.0-1.0-2.1","64332b93d1cde024292baf53","6662009ae78f21dd82fcd179","66620d77570836b974b9ecfa","null","","null","","","","","","","","./tasks/HMM-beads/Images/WhiteBeadChoiceWrong.png","","","","","","","","","",""
"image-keyboard-response","20","375134","0.0-3.0-4.0-1.0-0.2","64332b93d1cde024292baf53","6662009ae78f21dd82fcd179","66620d77570836b974b9ecfa","2199","","f","","","","","","","","./tasks/HMM-beads/Images/NewTrialBC.png","practice","0","2","0","1","0","0","false","",""
"image-keyboard-response","21","375449","0.0-3.0-4.0-1.0-1.2","64332b93d1cde024292baf53","6662009ae78f21dd82fcd179","66620d77570836b974b9ecfa","null","","null","","","","","","","","./tasks/HMM-beads/Images/BlackBeadChoice.png","","","","","","","","","",""
"image-keyboard-response","22","375966","0.0-3.0-4.0-1.0-2.2","64332b93d1cde024292baf53","6662009ae78f21dd82fcd179","66620d77570836b974b9ecfa","null","","null","","","","","","","","./tasks/HMM-beads/Images/BlackBeadChoiceWrong.png","","","","","","","","","",""
"image-keyboard-response","23","379855","0.0-3.0-4.0-1.0-0.3","64332b93d1cde024292baf53","6662009ae78f21dd82fcd179","66620d77570836b974b9ecfa","3888","","j","","","","","","","","./tasks/HMM-beads/Images/NewTrialWC.png","practice","0","3","0","0","1","1","false","",""
"image-keyboard-response","24","380165","0.0-3.0-4.0-1.0-1.3","64332b93d1cde024292baf53","6662009ae78f21dd82fcd179","66620d77570836b974b9ecfa","null","","null","","","","","","","","./tasks/HMM-beads/Images/WhiteBeadChoice.png","","","","","","","","","",""
"image-keyboard-response","25","380678","0.0-3.0-4.0-1.0-2.3","64332b93d1cde024292baf53","6662009ae78f21dd82fcd179","66620d77570836b974b9ecfa","null","","null","","","","","","","","./tasks/HMM-beads/Images/WhiteBeadChoiceWrong.png","","","","","","","","","",""
"image-keyboard-response","26","381239","0.0-3.0-4.0-1.0-0.4","64332b93d1cde024292baf53","6662009ae78f21dd82fcd179","66620d77570836b974b9ecfa","560","","f","","","","","","","","./tasks/HMM-beads/Images/NewTrialBC.png","practice","0","4","0","0","0","0","true","",""
"image-keyboard-response","27","381547","0.0-3.0-4.0-1.0-1.4","64332b93d1cde024292baf53","6662009ae78f21dd82fcd179","66620d77570836b974b9ecfa","null","","null","","","","","","","","./tasks/HMM-beads/Images/BlackBeadChoice.png","","","","","","","","","",""
"image-keyboard-response","28","382052","0.0-3.0-4.0-1.0-2.4","64332b93d1cde024292baf53","6662009ae78f21dd82fcd179","66620d77570836b974b9ecfa","null","","null","","","","","","","","./tasks/HMM-beads/Images/BlackBeadChoiceCorrect.png","","","","","","","","","",""
"image-keyboard-response","29","384039","0.0-3.0-4.0-1.0-0.5","64332b93d1cde024292baf53","6662009ae78f21dd82fcd179","66620d77570836b974b9ecfa","1986","","f","","","","","","","","./tasks/HMM-beads/Images/NewTrialBC.png","practice","0","5","0","1","0","0","false","",""
"image-keyboard-response","30","384345","0.0-3.0-4.0-1.0-1.5","64332b93d1cde024292baf53","6662009ae78f21dd82fcd179","66620d77570836b974b9ecfa","null","","null","","","","","","","","./tasks/HMM-beads/Images/BlackBeadChoice.png","","","","","","","","","",""
"image-keyboard-response","31","384855","0.0-3.0-4.0-1.0-2.5","64332b93d1cde024292baf53","6662009ae78f21dd82fcd179","66620d77570836b974b9ecfa","null","","null","","","","","","","","./tasks/HMM-beads/Images/BlackBeadChoiceWrong.png","","","","","","","","","",""
"image-keyboard-response","32","387079","0.0-3.0-4.0-1.0-0.6","64332b93d1cde024292baf53","6662009ae78f21dd82fcd179","66620d77570836b974b9ecfa","2223","","j","","","","","","","","./tasks/HMM-beads/Images/NewTrialWC.png","practice","0","6","0","0","1","1","false","",""
"image-keyboard-response","33","387381","0.0-3.0-4.0-1.0-1.6","64332b93d1cde024292baf53","6662009ae78f21dd82fcd179","66620d77570836b974b9ecfa","null","","null","","","","","","","","./tasks/HMM-beads/Images/WhiteBeadChoice.png","","","","","","","","","",""
"image-keyboard-response","34","387888","0.0-3.0-4.0-1.0-2.6","64332b93d1cde024292baf53","6662009ae78f21dd82fcd179","66620d77570836b974b9ecfa","null","","null","","","","","","","","./tasks/HMM-beads/Images/WhiteBeadChoiceWrong.png","","","","","","","","","",""
"image-keyboard-response","35","389439","0.0-3.0-4.0-1.0-0.7","64332b93d1cde024292baf53","6662009ae78f21dd82fcd179","66620d77570836b974b9ecfa","1549","","j","","","","","","","","./tasks/HMM-beads/Images/NewTrialBC.png","practice","0","7","0","0","0","1","false","",""
"image-keyboard-response","36","389743","0.0-3.0-4.0-1.0-1.7","64332b93d1cde024292baf53","6662009ae78f21dd82fcd179","66620d77570836b974b9ecfa","null","","null","","","","","","","","./tasks/HMM-beads/Images/WhiteBeadChoice.png","","","","","","","","","",""
"image-keyboard-response","37","390250","0.0-3.0-4.0-1.0-2.7","64332b93d1cde024292baf53","6662009ae78f21dd82fcd179","66620d77570836b974b9ecfa","null","","null","","","","","","","","./tasks/HMM-beads/Images/WhiteBeadChoiceWrong.png","","","","","","","","","",""
"image-keyboard-response","38","390831","0.0-3.0-4.0-1.0-0.8","64332b93d1cde024292baf53","6662009ae78f21dd82fcd179","66620d77570836b974b9ecfa","580","","f","","","","","","","","./tasks/HMM-beads/Images/NewTrialBC.png","practice","0","8","0","0","0","0","true","",""
"image-keyboard-response","39","391133","0.0-3.0-4.0-1.0-1.8","64332b93d1cde024292baf53","6662009ae78f21dd82fcd179","66620d77570836b974b9ecfa","null","","null","","","","","","","","./tasks/HMM-beads/Images/BlackBeadChoice.png","","","","","","","","","",""
"image-keyboard-response","40","391637","0.0-3.0-4.0-1.0-2.8","64332b93d1cde024292baf53","6662009ae78f21dd82fcd179","66620d77570836b974b9ecfa","null","","null","","","","","","","","./tasks/HMM-beads/Images/BlackBeadChoiceCorrect.png","","","","","","","","","",""
"image-keyboard-response","41","393295","0.0-3.0-4.0-1.0-0.9","64332b93d1cde024292baf53","6662009ae78f21dd82fcd179","66620d77570836b974b9ecfa","1656","","f","","","","","","","","./tasks/HMM-beads/Images/NewTrialBC.png","practice","0","9","0","1","0","0","false","",""
"image-keyboard-response","42","393611","0.0-3.0-4.0-1.0-1.9","64332b93d1cde024292baf53","6662009ae78f21dd82fcd179","66620d77570836b974b9ecfa","null","","null","","","","","","","","./tasks/HMM-beads/Images/BlackBeadChoice.png","","","","","","","","","",""
"image-keyboard-response","43","394126","0.0-3.0-4.0-1.0-2.9","64332b93d1cde024292baf53","6662009ae78f21dd82fcd179","66620d77570836b974b9ecfa","null","","null","","","","","","","","./tasks/HMM-beads/Images/BlackBeadChoiceWrong.png","","","","","","","","","",""
"image-keyboard-response","44","394735","0.0-3.0-4.0-1.0-0.10","64332b93d1cde024292baf53","6662009ae78f21dd82fcd179","66620d77570836b974b9ecfa","608","","j","","","","","","","","./tasks/HMM-beads/Images/NewTrialWC.png","practice","0","10","0","0","1","1","false","",""
"image-keyboard-response","45","395044","0.0-3.0-4.0-1.0-1.10","64332b93d1cde024292baf53","6662009ae78f21dd82fcd179","66620d77570836b974b9ecfa","null","","null","","","","","","","","./tasks/HMM-beads/Images/WhiteBeadChoice.png","","","","","","","","","",""
"image-keyboard-response","46","395548","0.0-3.0-4.0-1.0-2.10","64332b93d1cde024292baf53","6662009ae78f21dd82fcd179","66620d77570836b974b9ecfa","null","","null","","","","","","","","./tasks/HMM-beads/Images/WhiteBeadChoiceWrong.png","","","","","","","","","",""
"image-keyboard-response","47","395918","0.0-3.0-4.0-1.0-0.11","64332b93d1cde024292baf53","6662009ae78f21dd82fcd179","66620d77570836b974b9ecfa","370","","f","","","","","","","","./tasks/HMM-beads/Images/NewTrialBC.png","practice","0","11","0","1","0","0","false","",""
"image-keyboard-response","48","396229","0.0-3.0-4.0-1.0-1.11","64332b93d1cde024292baf53","6662009ae78f21dd82fcd179","66620d77570836b974b9ecfa","null","","null","","","","","","","","./tasks/HMM-beads/Images/BlackBeadChoice.png","","","","","","","","","",""
"image-keyboard-response","49","396735","0.0-3.0-4.0-1.0-2.11","64332b93d1cde024292baf53","6662009ae78f21dd82fcd179","66620d77570836b974b9ecfa","null","","null","","","","","","","","./tasks/HMM-beads/Images/BlackBeadChoiceWrong.png","","","","","","","","","",""
"image-keyboard-response","50","398191","0.0-3.0-4.0-1.0-0.12","64332b93d1cde024292baf53","6662009ae78f21dd82fcd179","66620d77570836b974b9ecfa","1455","","f","","","","","","","","./tasks/HMM-beads/Images/NewTrialWC.png","practice","0","12","0","0","1","0","true","",""
"image-keyboard-response","51","398509","0.0-3.0-4.0-1.0-1.12","64332b93d1cde024292baf53","6662009ae78f21dd82fcd179","66620d77570836b974b9ecfa","null","","null","","","","","","","","./tasks/HMM-beads/Images/BlackBeadChoice.png","","","","","","","","","",""
"image-keyboard-response","52","399016","0.0-3.0-4.0-1.0-2.12","64332b93d1cde024292baf53","6662009ae78f21dd82fcd179","66620d77570836b974b9ecfa","null","","null","","","","","","","","./tasks/HMM-beads/Images/BlackBeadChoiceCorrect.png","","","","","","","","","",""
"image-keyboard-response","53","401383","0.0-3.0-4.0-1.0-0.13","64332b93d1cde024292baf53","6662009ae78f21dd82fcd179","66620d77570836b974b9ecfa","2366","","f","","","","","","","","./tasks/HMM-beads/Images/NewTrialBC.png","practice","0","13","0","0","0","0","true","",""
"image-keyboard-response","54","401692","0.0-3.0-4.0-1.0-1.13","64332b93d1cde024292baf53","6662009ae78f21dd82fcd179","66620d77570836b974b9ecfa","null","","null","","","","","","","","./tasks/HMM-beads/Images/BlackBeadChoice.png","","","","","","","","","",""
"image-keyboard-response","55","402205","0.0-3.0-4.0-1.0-2.13","64332b93d1cde024292baf53","6662009ae78f21dd82fcd179","66620d77570836b974b9ecfa","null","","null","","","","","","","","./tasks/HMM-beads/Images/BlackBeadChoiceCorrect.png","","","","","","","","","",""
"image-keyboard-response","56","404135","0.0-3.0-4.0-1.0-0.14","64332b93d1cde024292baf53","6662009ae78f21dd82fcd179","66620d77570836b974b9ecfa","1928","","f","","","","","","","","./tasks/HMM-beads/Images/NewTrialBC.png","practice","0","14","0","0","0","0","true","",""
"image-keyboard-response","57","404443","0.0-3.0-4.0-1.0-1.14","64332b93d1cde024292baf53","6662009ae78f21dd82fcd179","66620d77570836b974b9ecfa","null","","null","","","","","","","","./tasks/HMM-beads/Images/BlackBeadChoice.png","","","","","","","","","",""
"image-keyboard-response","58","404953","0.0-3.0-4.0-1.0-2.14","64332b93d1cde024292baf53","6662009ae78f21dd82fcd179","66620d77570836b974b9ecfa","null","","null","","","","","","","","./tasks/HMM-beads/Images/BlackBeadChoiceCorrect.png","","","","","","","","","",""
"image-keyboard-response","59","405823","0.0-3.0-4.0-1.0-0.15","64332b93d1cde024292baf53","6662009ae78f21dd82fcd179","66620d77570836b974b9ecfa","869","","f","","","","","","","","./tasks/HMM-beads/Images/NewTrialBC.png","practice","0","15","0","0","0","0","true","",""
"image-keyboard-response","60","406135","0.0-3.0-4.0-1.0-1.15","64332b93d1cde024292baf53","6662009ae78f21dd82fcd179","66620d77570836b974b9ecfa","null","","null","","","","","","","","./tasks/HMM-beads/Images/BlackBeadChoice.png","","","","","","","","","",""
"image-keyboard-response","61","406637","0.0-3.0-4.0-1.0-2.15","64332b93d1cde024292baf53","6662009ae78f21dd82fcd179","66620d77570836b974b9ecfa","null","","null","","","","","","","","./tasks/HMM-beads/Images/BlackBeadChoiceCorrect.png","","","","","","","","","",""
"image-keyboard-response","62","410127","0.0-3.0-4.0-1.0-0.16","64332b93d1cde024292baf53","6662009ae78f21dd82fcd179","66620d77570836b974b9ecfa","3488","","j","","","","","","","","./tasks/HMM-beads/Images/NewTrialBC.png","practice","0","16","0","0","0","1","false","",""
"image-keyboard-response","63","410441","0.0-3.0-4.0-1.0-1.16","64332b93d1cde024292baf53","6662009ae78f21dd82fcd179","66620d77570836b974b9ecfa","null","","null","","","","","","","","./tasks/HMM-beads/Images/WhiteBeadChoice.png","","","","","","","","","",""
"image-keyboard-response","64","410947","0.0-3.0-4.0-1.0-2.16","64332b93d1cde024292baf53","6662009ae78f21dd82fcd179","66620d77570836b974b9ecfa","null","","null","","","","","","","","./tasks/HMM-beads/Images/WhiteBeadChoiceWrong.png","","","","","","","","","",""
"image-keyboard-response","65","415038","0.0-3.0-4.0-1.0-0.17","64332b93d1cde024292baf53","6662009ae78f21dd82fcd179","66620d77570836b974b9ecfa","4090","","f","","","","","","","","./tasks/HMM-beads/Images/NewTrialBC.png","practice","0","17","0","0","0","0","true","",""
"image-keyboard-response","66","415346","0.0-3.0-4.0-1.0-1.17","64332b93d1cde024292baf53","6662009ae78f21dd82fcd179","66620d77570836b974b9ecfa","null","","null","","","","","","","","./tasks/HMM-beads/Images/BlackBeadChoice.png","","","","","","","","","",""
"image-keyboard-response","67","415861","0.0-3.0-4.0-1.0-2.17","64332b93d1cde024292baf53","6662009ae78f21dd82fcd179","66620d77570836b974b9ecfa","null","","null","","","","","","","","./tasks/HMM-beads/Images/BlackBeadChoiceCorrect.png","","","","","","","","","",""
"image-keyboard-response","68","416560","0.0-3.0-4.0-1.0-0.18","64332b93d1cde024292baf53","6662009ae78f21dd82fcd179","66620d77570836b974b9ecfa","698","","f","","","","","","","","./tasks/HMM-beads/Images/NewTrialBC.png","practice","0","18","0","1","0","0","false","",""
"image-keyboard-response","69","416875","0.0-3.0-4.0-1.0-1.18","64332b93d1cde024292baf53","6662009ae78f21dd82fcd179","66620d77570836b974b9ecfa","null","","null","","","","","","","","./tasks/HMM-beads/Images/BlackBeadChoice.png","","","","","","","","","",""
"image-keyboard-response","70","417379","0.0-3.0-4.0-1.0-2.18","64332b93d1cde024292baf53","6662009ae78f21dd82fcd179","66620d77570836b974b9ecfa","null","","null","","","","","","","","./tasks/HMM-beads/Images/BlackBeadChoiceWrong.png","","","","","","","","","",""
"image-keyboard-response","71","419855","0.0-3.0-4.0-1.0-0.19","64332b93d1cde024292baf53","6662009ae78f21dd82fcd179","66620d77570836b974b9ecfa","2475","","f","","","","","","","","./tasks/HMM-beads/Images/NewTrialWC.png","practice","0","19","0","0","1","0","true","",""
"image-keyboard-response","72","420157","0.0-3.0-4.0-1.0-1.19","64332b93d1cde024292baf53","6662009ae78f21dd82fcd179","66620d77570836b974b9ecfa","null","","null","","","","","","","","./tasks/HMM-beads/Images/BlackBeadChoice.png","","","","","","","","","",""
"image-keyboard-response","73","420661","0.0-3.0-4.0-1.0-2.19","64332b93d1cde024292baf53","6662009ae78f21dd82fcd179","66620d77570836b974b9ecfa","null","","null","","","","","","","","./tasks/HMM-beads/Images/BlackBeadChoiceCorrect.png","","","","","","","","","",""
"image-keyboard-response","74","423535","0.0-3.0-4.0-1.0-0.20","64332b93d1cde024292baf53","6662009ae78f21dd82fcd179","66620d77570836b974b9ecfa","2873","","j","","","","","","","","./tasks/HMM-beads/Images/NewTrialBC.png","practice","0","20","0","0","0","1","false","",""
"image-keyboard-response","75","423840","0.0-3.0-4.0-1.0-1.20","64332b93d1cde024292baf53","6662009ae78f21dd82fcd179","66620d77570836b974b9ecfa","null","","null","","","","","","","","./tasks/HMM-beads/Images/WhiteBeadChoice.png","","","","","","","","","",""
"image-keyboard-response","76","424347","0.0-3.0-4.0-1.0-2.20","64332b93d1cde024292baf53","6662009ae78f21dd82fcd179","66620d77570836b974b9ecfa","null","","null","","","","","","","","./tasks/HMM-beads/Images/WhiteBeadChoiceWrong.png","","","","","","","","","",""
"image-keyboard-response","77","424599","0.0-3.0-4.0-1.0-0.21","64332b93d1cde024292baf53","6662009ae78f21dd82fcd179","66620d77570836b974b9ecfa","250","","f","","","","","","","","./tasks/HMM-beads/Images/NewTrialBC.png","practice","0","21","0","1","0","0","false","",""
"image-keyboard-response","78","424908","0.0-3.0-4.0-1.0-1.21","64332b93d1cde024292baf53","6662009ae78f21dd82fcd179","66620d77570836b974b9ecfa","null","","null","","","","","","","","./tasks/HMM-beads/Images/BlackBeadChoice.png","","","","","","","","","",""
"image-keyboard-response","79","425424","0.0-3.0-4.0-1.0-2.21","64332b93d1cde024292baf53","6662009ae78f21dd82fcd179","66620d77570836b974b9ecfa","null","","null","","","","","","","","./tasks/HMM-beads/Images/BlackBeadChoiceWrong.png","","","","","","","","","",""
"image-keyboard-response","80","426775","0.0-3.0-4.0-1.0-0.22","64332b93d1cde024292baf53","6662009ae78f21dd82fcd179","66620d77570836b974b9ecfa","1349","","f","","","","","","","","./tasks/HMM-beads/Images/NewTrialWC.png","practice","0","22","1","1","1","0","false","",""
"image-keyboard-response","81","427091","0.0-3.0-4.0-1.0-1.22","64332b93d1cde024292baf53","6662009ae78f21dd82fcd179","66620d77570836b974b9ecfa","null","","null","","","","","","","","./tasks/HMM-beads/Images/BlackBeadChoice.png","","","","","","","","","",""
"image-keyboard-response","82","427607","0.0-3.0-4.0-1.0-2.22","64332b93d1cde024292baf53","6662009ae78f21dd82fcd179","66620d77570836b974b9ecfa","null","","null","","","","","","","","./tasks/HMM-beads/Images/BlackBeadChoiceWrong.png","","","","","","","","","",""
"image-keyboard-response","83","428103","0.0-3.0-4.0-1.0-0.23","64332b93d1cde024292baf53","6662009ae78f21dd82fcd179","66620d77570836b974b9ecfa","494","","j","","","","","","","","./tasks/HMM-beads/Images/NewTrialWC.png","practice","0","23","1","0","1","1","false","",""
"image-keyboard-response","84","428409","0.0-3.0-4.0-1.0-1.23","64332b93d1cde024292baf53","6662009ae78f21dd82fcd179","66620d77570836b974b9ecfa","null","","null","","","","","","","","./tasks/HMM-beads/Images/WhiteBeadChoice.png","","","","","","","","","",""
"image-keyboard-response","85","428911","0.0-3.0-4.0-1.0-2.23","64332b93d1cde024292baf53","6662009ae78f21dd82fcd179","66620d77570836b974b9ecfa","null","","null","","","","","","","","./tasks/HMM-beads/Images/WhiteBeadChoiceWrong.png","","","","","","","","","",""
"image-keyboard-response","86","429119","0.0-3.0-4.0-1.0-0.24","64332b93d1cde024292baf53","6662009ae78f21dd82fcd179","66620d77570836b974b9ecfa","207","","f","","","","","","","","./tasks/HMM-beads/Images/NewTrialBC.png","practice","0","24","1","1","0","0","false","",""
"image-keyboard-response","87","429438","0.0-3.0-4.0-1.0-1.24","64332b93d1cde024292baf53","6662009ae78f21dd82fcd179","66620d77570836b974b9ecfa","null","","null","","","","","","","","./tasks/HMM-beads/Images/BlackBeadChoice.png","","","","","","","","","",""
"image-keyboard-response","88","429953","0.0-3.0-4.0-1.0-2.24","64332b93d1cde024292baf53","6662009ae78f21dd82fcd179","66620d77570836b974b9ecfa","null","","null","","","","","","","","./tasks/HMM-beads/Images/BlackBeadChoiceWrong.png","","","","","","","","","",""
"image-keyboard-response","89","430494","0.0-3.0-4.0-1.0-0.25","64332b93d1cde024292baf53","6662009ae78f21dd82fcd179","66620d77570836b974b9ecfa","540","","j","","","","","","","","./tasks/HMM-beads/Images/NewTrialWC.png","practice","0","25","1","1","1","1","true","",""
"image-keyboard-response","90","430808","0.0-3.0-4.0-1.0-1.25","64332b93d1cde024292baf53","6662009ae78f21dd82fcd179","66620d77570836b974b9ecfa","null","","null","","","","","","","","./tasks/HMM-beads/Images/WhiteBeadChoice.png","","","","","","","","","",""
"image-keyboard-response","91","431323","0.0-3.0-4.0-1.0-2.25","64332b93d1cde024292baf53","6662009ae78f21dd82fcd179","66620d77570836b974b9ecfa","null","","null","","","","","","","","./tasks/HMM-beads/Images/WhiteBeadChoiceCorrect.png","","","","","","","","","",""
"image-keyboard-response","92","431830","0.0-3.0-4.0-1.0-0.26","64332b93d1cde024292baf53","6662009ae78f21dd82fcd179","66620d77570836b974b9ecfa","506","","j","","","","","","","","./tasks/HMM-beads/Images/NewTrialWC.png","practice","0","26","1","1","1","1","true","",""
"image-keyboard-response","93","432138","0.0-3.0-4.0-1.0-1.26","64332b93d1cde024292baf53","6662009ae78f21dd82fcd179","66620d77570836b974b9ecfa","null","","null","","","","","","","","./tasks/HMM-beads/Images/WhiteBeadChoice.png","","","","","","","","","",""
"image-keyboard-response","94","432642","0.0-3.0-4.0-1.0-2.26","64332b93d1cde024292baf53","6662009ae78f21dd82fcd179","66620d77570836b974b9ecfa","null","","null","","","","","","","","./tasks/HMM-beads/Images/WhiteBeadChoiceCorrect.png","","","","","","","","","",""
"image-keyboard-response","95","433472","0.0-3.0-4.0-1.0-0.27","64332b93d1cde024292baf53","6662009ae78f21dd82fcd179","66620d77570836b974b9ecfa","829","","j","","","","","","","","./tasks/HMM-beads/Images/NewTrialWC.png","practice","0","27","1","1","1","1","true","",""
"image-keyboard-response","96","433788","0.0-3.0-4.0-1.0-1.27","64332b93d1cde024292baf53","6662009ae78f21dd82fcd179","66620d77570836b974b9ecfa","null","","null","","","","","","","","./tasks/HMM-beads/Images/WhiteBeadChoice.png","","","","","","","","","",""
"image-keyboard-response","97","434296","0.0-3.0-4.0-1.0-2.27","64332b93d1cde024292baf53","6662009ae78f21dd82fcd179","66620d77570836b974b9ecfa","null","","null","","","","","","","","./tasks/HMM-beads/Images/WhiteBeadChoiceCorrect.png","","","","","","","","","",""
"image-keyboard-response","98","435630","0.0-3.0-4.0-1.0-0.28","64332b93d1cde024292baf53","6662009ae78f21dd82fcd179","66620d77570836b974b9ecfa","1333","","j","","","","","","","","./tasks/HMM-beads/Images/NewTrialWC.png","practice","0","28","1","0","1","1","false","",""
"image-keyboard-response","99","435937","0.0-3.0-4.0-1.0-1.28","64332b93d1cde024292baf53","6662009ae78f21dd82fcd179","66620d77570836b974b9ecfa","null","","null","","","","","","","","./tasks/HMM-beads/Images/WhiteBeadChoice.png","","","","","","","","","",""
"image-keyboard-response","100","436448","0.0-3.0-4.0-1.0-2.28","64332b93d1cde024292baf53","6662009ae78f21dd82fcd179","66620d77570836b974b9ecfa","null","","null","","","","","","","","./tasks/HMM-beads/Images/WhiteBeadChoiceWrong.png","","","","","","","","","",""
"image-keyboard-response","101","436943","0.0-3.0-4.0-1.0-0.29","64332b93d1cde024292baf53","6662009ae78f21dd82fcd179","66620d77570836b974b9ecfa","494","","f","","","","","","","","./tasks/HMM-beads/Images/NewTrialBC.png","practice","0","29","1","1","0","0","false","",""
"image-keyboard-response","102","437252","0.0-3.0-4.0-1.0-1.29","64332b93d1cde024292baf53","6662009ae78f21dd82fcd179","66620d77570836b974b9ecfa","null","","null","","","","","","","","./tasks/HMM-beads/Images/BlackBeadChoice.png","","","","","","","","","",""
"image-keyboard-response","103","437766","0.0-3.0-4.0-1.0-2.29","64332b93d1cde024292baf53","6662009ae78f21dd82fcd179","66620d77570836b974b9ecfa","null","","null","","","","","","","","./tasks/HMM-beads/Images/BlackBeadChoiceWrong.png","","","","","","","","","",""
"image-keyboard-response","104","438694","0.0-3.0-4.0-1.0-0.30","64332b93d1cde024292baf53","6662009ae78f21dd82fcd179","66620d77570836b974b9ecfa","927","","j","","","","","","","","./tasks/HMM-beads/Images/NewTrialWC.png","practice","0","30","1","0","1","1","false","",""
"image-keyboard-response","105","439003","0.0-3.0-4.0-1.0-1.30","64332b93d1cde024292baf53","6662009ae78f21dd82fcd179","66620d77570836b974b9ecfa","null","","null","","","","","","","","./tasks/HMM-beads/Images/WhiteBeadChoice.png","","","","","","","","","",""
"image-keyboard-response","106","439507","0.0-3.0-4.0-1.0-2.30","64332b93d1cde024292baf53","6662009ae78f21dd82fcd179","66620d77570836b974b9ecfa","null","","null","","","","","","","","./tasks/HMM-beads/Images/WhiteBeadChoiceWrong.png","","","","","","","","","",""
"image-keyboard-response","107","440063","0.0-3.0-4.0-1.0-0.31","64332b93d1cde024292baf53","6662009ae78f21dd82fcd179","66620d77570836b974b9ecfa","555","","f","","","","","","","","./tasks/HMM-beads/Images/NewTrialBC.png","practice","0","31","1","1","0","0","false","",""
"image-keyboard-response","108","440368","0.0-3.0-4.0-1.0-1.31","64332b93d1cde024292baf53","6662009ae78f21dd82fcd179","66620d77570836b974b9ecfa","null","","null","","","","","","","","./tasks/HMM-beads/Images/BlackBeadChoice.png","","","","","","","","","",""
"image-keyboard-response","109","440881","0.0-3.0-4.0-1.0-2.31","64332b93d1cde024292baf53","6662009ae78f21dd82fcd179","66620d77570836b974b9ecfa","null","","null","","","","","","","","./tasks/HMM-beads/Images/BlackBeadChoiceWrong.png","","","","","","","","","",""
"image-keyboard-response","110","441318","0.0-3.0-4.0-1.0-0.32","64332b93d1cde024292baf53","6662009ae78f21dd82fcd179","66620d77570836b974b9ecfa","436","","j","","","","","","","","./tasks/HMM-beads/Images/NewTrialWC.png","practice","0","32","1","1","1","1","true","",""
"image-keyboard-response","111","441623","0.0-3.0-4.0-1.0-1.32","64332b93d1cde024292baf53","6662009ae78f21dd82fcd179","66620d77570836b974b9ecfa","null","","null","","","","","","","","./tasks/HMM-beads/Images/WhiteBeadChoice.png","","","","","","","","","",""
"image-keyboard-response","112","442131","0.0-3.0-4.0-1.0-2.32","64332b93d1cde024292baf53","6662009ae78f21dd82fcd179","66620d77570836b974b9ecfa","null","","null","","","","","","","","./tasks/HMM-beads/Images/WhiteBeadChoiceCorrect.png","","","","","","","","","",""
"image-keyboard-response","113","442647","0.0-3.0-4.0-1.0-0.33","64332b93d1cde024292baf53","6662009ae78f21dd82fcd179","66620d77570836b974b9ecfa","514","","j","","","","","","","","./tasks/HMM-beads/Images/NewTrialWC.png","practice","0","33","1","1","1","1","true","",""
"image-keyboard-response","114","442955","0.0-3.0-4.0-1.0-1.33","64332b93d1cde024292baf53","6662009ae78f21dd82fcd179","66620d77570836b974b9ecfa","null","","null","","","","","","","","./tasks/HMM-beads/Images/WhiteBeadChoice.png","","","","","","","","","",""
"image-keyboard-response","115","443457","0.0-3.0-4.0-1.0-2.33","64332b93d1cde024292baf53","6662009ae78f21dd82fcd179","66620d77570836b974b9ecfa","null","","null","","","","","","","","./tasks/HMM-beads/Images/WhiteBeadChoiceCorrect.png","","","","","","","","","",""
"image-keyboard-response","116","444199","0.0-3.0-4.0-1.0-0.34","64332b93d1cde024292baf53","6662009ae78f21dd82fcd179","66620d77570836b974b9ecfa","740","","f","","","","","","","","./tasks/HMM-beads/Images/NewTrialWC.png","practice","0","34","1","1","1","0","false","",""
"image-keyboard-response","117","444509","0.0-3.0-4.0-1.0-1.34","64332b93d1cde024292baf53","6662009ae78f21dd82fcd179","66620d77570836b974b9ecfa","null","","null","","","","","","","","./tasks/HMM-beads/Images/BlackBeadChoice.png","","","","","","","","","",""
"image-keyboard-response","118","445016","0.0-3.0-4.0-1.0-2.34","64332b93d1cde024292baf53","6662009ae78f21dd82fcd179","66620d77570836b974b9ecfa","null","","null","","","","","","","","./tasks/HMM-beads/Images/BlackBeadChoiceWrong.png","","","","","","","","","",""
"image-keyboard-response","119","445614","0.0-3.0-4.0-1.0-0.35","64332b93d1cde024292baf53","6662009ae78f21dd82fcd179","66620d77570836b974b9ecfa","598","","j","","","","","","","","./tasks/HMM-beads/Images/NewTrialWC.png","practice","0","35","1","1","1","1","true","",""
"image-keyboard-response","120","445919","0.0-3.0-4.0-1.0-1.35","64332b93d1cde024292baf53","6662009ae78f21dd82fcd179","66620d77570836b974b9ecfa","null","","null","","","","","","","","./tasks/HMM-beads/Images/WhiteBeadChoice.png","","","","","","","","","",""
"image-keyboard-response","121","446428","0.0-3.0-4.0-1.0-2.35","64332b93d1cde024292baf53","6662009ae78f21dd82fcd179","66620d77570836b974b9ecfa","null","","null","","","","","","","","./tasks/HMM-beads/Images/WhiteBeadChoiceCorrect.png","","","","","","","","","",""
"image-keyboard-response","122","446950","0.0-3.0-4.0-1.0-0.36","64332b93d1cde024292baf53","6662009ae78f21dd82fcd179","66620d77570836b974b9ecfa","521","","j","","","","","","","","./tasks/HMM-beads/Images/NewTrialWC.png","practice","0","36","1","0","1","1","false","",""
"image-keyboard-response","123","447254","0.0-3.0-4.0-1.0-1.36","64332b93d1cde024292baf53","6662009ae78f21dd82fcd179","66620d77570836b974b9ecfa","null","","null","","","","","","","","./tasks/HMM-beads/Images/WhiteBeadChoice.png","","","","","","","","","",""
"image-keyboard-response","124","447766","0.0-3.0-4.0-1.0-2.36","64332b93d1cde024292baf53","6662009ae78f21dd82fcd179","66620d77570836b974b9ecfa","null","","null","","","","","","","","./tasks/HMM-beads/Images/WhiteBeadChoiceWrong.png","","","","","","","","","",""
"image-keyboard-response","125","448311","0.0-3.0-4.0-1.0-0.37","64332b93d1cde024292baf53","6662009ae78f21dd82fcd179","66620d77570836b974b9ecfa","544","","f","","","","","","","","./tasks/HMM-beads/Images/NewTrialBC.png","practice","0","37","1","1","0","0","false","",""
"image-keyboard-response","126","448616","0.0-3.0-4.0-1.0-1.37","64332b93d1cde024292baf53","6662009ae78f21dd82fcd179","66620d77570836b974b9ecfa","null","","null","","","","","","","","./tasks/HMM-beads/Images/BlackBeadChoice.png","","","","","","","","","",""
"image-keyboard-response","127","449123","0.0-3.0-4.0-1.0-2.37","64332b93d1cde024292baf53","6662009ae78f21dd82fcd179","66620d77570836b974b9ecfa","null","","null","","","","","","","","./tasks/HMM-beads/Images/BlackBeadChoiceWrong.png","","","","","","","","","",""
"image-keyboard-response","128","450624","0.0-3.0-4.0-1.0-0.38","64332b93d1cde024292baf53","6662009ae78f21dd82fcd179","66620d77570836b974b9ecfa","1499","","j","","","","","","","","./tasks/HMM-beads/Images/NewTrialWC.png","practice","0","38","1","1","1","1","true","",""
"image-keyboard-response","129","450934","0.0-3.0-4.0-1.0-1.38","64332b93d1cde024292baf53","6662009ae78f21dd82fcd179","66620d77570836b974b9ecfa","null","","null","","","","","","","","./tasks/HMM-beads/Images/WhiteBeadChoice.png","","","","","","","","","",""
"image-keyboard-response","130","451439","0.0-3.0-4.0-1.0-2.38","64332b93d1cde024292baf53","6662009ae78f21dd82fcd179","66620d77570836b974b9ecfa","null","","null","","","","","","","","./tasks/HMM-beads/Images/WhiteBeadChoiceCorrect.png","","","","","","","","","",""
"image-keyboard-response","131","451943","0.0-3.0-4.0-1.0-0.39","64332b93d1cde024292baf53","6662009ae78f21dd82fcd179","66620d77570836b974b9ecfa","502","","j","","","","","","","","./tasks/HMM-beads/Images/NewTrialWC.png","practice","0","39","1","1","1","1","true","",""
"image-keyboard-response","132","452251","0.0-3.0-4.0-1.0-1.39","64332b93d1cde024292baf53","6662009ae78f21dd82fcd179","66620d77570836b974b9ecfa","null","","null","","","","","","","","./tasks/HMM-beads/Images/WhiteBeadChoice.png","","","","","","","","","",""
"image-keyboard-response","133","452756","0.0-3.0-4.0-1.0-2.39","64332b93d1cde024292baf53","6662009ae78f21dd82fcd179","66620d77570836b974b9ecfa","null","","null","","","","","","","","./tasks/HMM-beads/Images/WhiteBeadChoiceCorrect.png","","","","","","","","","",""
"html-keyboard-response","134","459407","0.0-3.0-4.0-2.0","64332b93d1cde024292baf53","6662009ae78f21dd82fcd179","66620d77570836b974b9ecfa","6650",""," ","","","","","","","","","","","","","","","","","",""
"instructions","135","501959","0.0-3.0-5.0","64332b93d1cde024292baf53","6662009ae78f21dd82fcd179","66620d77570836b974b9ecfa","42551","","","","[{""page_index"":0,""viewing_time"":34364},{""page_index"":1,""viewing_time"":8186}]","","","","","","","","","","","","","","","",""
"html-keyboard-response","136","522216","0.0-3.0-6.0-0.0","64332b93d1cde024292baf53","6662009ae78f21dd82fcd179","66620d77570836b974b9ecfa","20256",""," ","","","","","","","","<div align=center>In this block, there will be a <b>1% chance</b> that the jar on the next trial will be different from the jar on the current trial.<br><br></div>","","","","","","","","","",""
"image-keyboard-response","137","527895","0.0-3.0-6.0-1.0-0.0","64332b93d1cde024292baf53","6662009ae78f21dd82fcd179","66620d77570836b974b9ecfa","5677","","f","","","","","","","","./tasks/HMM-beads/Images/NoChoice.png","lowH","1","0","1","0","9","0","true","",""
"image-keyboard-response","138","528206","0.0-3.0-6.0-1.0-1.0","64332b93d1cde024292baf53","6662009ae78f21dd82fcd179","66620d77570836b974b9ecfa","null","","null","","","","","","","","./tasks/HMM-beads/Images/BlackBeadChoice.png","","","","","","","","","",""
"image-keyboard-response","139","528710","0.0-3.0-6.0-1.0-2.0","64332b93d1cde024292baf53","6662009ae78f21dd82fcd179","66620d77570836b974b9ecfa","null","","null","","","","","","","","./tasks/HMM-beads/Images/BlackBeadChoiceCorrect.png","","","","","","","","","",""
"image-keyboard-response","140","530136","0.0-3.0-6.0-1.0-0.1","64332b93d1cde024292baf53","6662009ae78f21dd82fcd179","66620d77570836b974b9ecfa","1425","","f","","","","","","","","./tasks/HMM-beads/Images/NewTrialBC.png","lowH","1","1","1","1","0","0","false","",""
"image-keyboard-response","141","530449","0.0-3.0-6.0-1.0-1.1","64332b93d1cde024292baf53","6662009ae78f21dd82fcd179","66620d77570836b974b9ecfa","null","","null","","","","","","","","./tasks/HMM-beads/Images/BlackBeadChoice.png","","","","","","","","","",""
"image-keyboard-response","142","530959","0.0-3.0-6.0-1.0-2.1","64332b93d1cde024292baf53","6662009ae78f21dd82fcd179","66620d77570836b974b9ecfa","null","","null","","","","","","","","./tasks/HMM-beads/Images/BlackBeadChoiceWrong.png","","","","","","","","","",""
"image-keyboard-response","143","531208","0.0-3.0-6.0-1.0-0.2","64332b93d1cde024292baf53","6662009ae78f21dd82fcd179","66620d77570836b974b9ecfa","247","","j","","","","","","","","./tasks/HMM-beads/Images/NewTrialWC.png","lowH","1","2","1","1","1","1","true","",""
"image-keyboard-response","144","531522","0.0-3.0-6.0-1.0-1.2","64332b93d1cde024292baf53","6662009ae78f21dd82fcd179","66620d77570836b974b9ecfa","null","","null","","","","","","","","./tasks/HMM-beads/Images/WhiteBeadChoice.png","","","","","","","","","",""
"image-keyboard-response","145","532025","0.0-3.0-6.0-1.0-2.2","64332b93d1cde024292baf53","6662009ae78f21dd82fcd179","66620d77570836b974b9ecfa","null","","null","","","","","","","","./tasks/HMM-beads/Images/WhiteBeadChoiceCorrect.png","","","","","","","","","",""
"image-keyboard-response","146","533039","0.0-3.0-6.0-1.0-0.3","64332b93d1cde024292baf53","6662009ae78f21dd82fcd179","66620d77570836b974b9ecfa","1012","","j","","","","","","","","./tasks/HMM-beads/Images/NewTrialWC.png","lowH","1","3","1","1","1","1","true","",""
"image-keyboard-response","147","533346","0.0-3.0-6.0-1.0-1.3","64332b93d1cde024292baf53","6662009ae78f21dd82fcd179","66620d77570836b974b9ecfa","null","","null","","","","","","","","./tasks/HMM-beads/Images/WhiteBeadChoice.png","","","","","","","","","",""
"image-keyboard-response","148","533860","0.0-3.0-6.0-1.0-2.3","64332b93d1cde024292baf53","6662009ae78f21dd82fcd179","66620d77570836b974b9ecfa","null","","null","","","","","","","","./tasks/HMM-beads/Images/WhiteBeadChoiceCorrect.png","","","","","","","","","",""
"image-keyboard-response","149","534535","0.0-3.0-6.0-1.0-0.4","64332b93d1cde024292baf53","6662009ae78f21dd82fcd179","66620d77570836b974b9ecfa","675","","j","","","","","","","","./tasks/HMM-beads/Images/NewTrialWC.png","lowH","1","4","1","1","1","1","true","",""
"image-keyboard-response","150","534843","0.0-3.0-6.0-1.0-1.4","64332b93d1cde024292baf53","6662009ae78f21dd82fcd179","66620d77570836b974b9ecfa","null","","null","","","","","","","","./tasks/HMM-beads/Images/WhiteBeadChoice.png","","","","","","","","","",""
"image-keyboard-response","151","535357","0.0-3.0-6.0-1.0-2.4","64332b93d1cde024292baf53","6662009ae78f21dd82fcd179","66620d77570836b974b9ecfa","null","","null","","","","","","","","./tasks/HMM-beads/Images/WhiteBeadChoiceCorrect.png","","","","","","","","","",""
"image-keyboard-response","152","535703","0.0-3.0-6.0-1.0-0.5","64332b93d1cde024292baf53","6662009ae78f21dd82fcd179","66620d77570836b974b9ecfa","345","","j","","","","","","","","./tasks/HMM-beads/Images/NewTrialWC.png","lowH","1","5","1","1","1","1","true","",""
"image-keyboard-response","153","536008","0.0-3.0-6.0-1.0-1.5","64332b93d1cde024292baf53","6662009ae78f21dd82fcd179","66620d77570836b974b9ecfa","null","","null","","","","","","","","./tasks/HMM-beads/Images/WhiteBeadChoice.png","","","","","","","","","",""
"image-keyboard-response","154","536516","0.0-3.0-6.0-1.0-2.5","64332b93d1cde024292baf53","6662009ae78f21dd82fcd179","66620d77570836b974b9ecfa","null","","null","","","","","","","","./tasks/HMM-beads/Images/WhiteBeadChoiceCorrect.png","","","","","","","","","",""
"image-keyboard-response","155","536982","0.0-3.0-6.0-1.0-0.6","64332b93d1cde024292baf53","6662009ae78f21dd82fcd179","66620d77570836b974b9ecfa","465","","j","","","","","","","","./tasks/HMM-beads/Images/NewTrialWC.png","lowH","1","6","1","0","1","1","false","",""
"image-keyboard-response","156","537287","0.0-3.0-6.0-1.0-1.6","64332b93d1cde024292baf53","6662009ae78f21dd82fcd179","66620d77570836b974b9ecfa","null","","null","","","","","","","","./tasks/HMM-beads/Images/WhiteBeadChoice.png","","","","","","","","","",""
"image-keyboard-response","157","537797","0.0-3.0-6.0-1.0-2.6","64332b93d1cde024292baf53","6662009ae78f21dd82fcd179","66620d77570836b974b9ecfa","null","","null","","","","","","","","./tasks/HMM-beads/Images/WhiteBeadChoiceWrong.png","","","","","","","","","",""
"image-keyboard-response","158","538575","0.0-3.0-6.0-1.0-0.7","64332b93d1cde024292baf53","6662009ae78f21dd82fcd179","66620d77570836b974b9ecfa","777","","f","","","","","","","","./tasks/HMM-beads/Images/NewTrialBC.png","lowH","1","7","1","1","0","0","false","",""
"image-keyboard-response","159","538887","0.0-3.0-6.0-1.0-1.7","64332b93d1cde024292baf53","6662009ae78f21dd82fcd179","66620d77570836b974b9ecfa","null","","null","","","","","","","","./tasks/HMM-beads/Images/BlackBeadChoice.png","","","","","","","","","",""
"image-keyboard-response","160","539400","0.0-3.0-6.0-1.0-2.7","64332b93d1cde024292baf53","6662009ae78f21dd82fcd179","66620d77570836b974b9ecfa","null","","null","","","","","","","","./tasks/HMM-beads/Images/BlackBeadChoiceWrong.png","","","","","","","","","",""
"image-keyboard-response","161","540271","0.0-3.0-6.0-1.0-0.8","64332b93d1cde024292baf53","6662009ae78f21dd82fcd179","66620d77570836b974b9ecfa","870","","j","","","","","","","","./tasks/HMM-beads/Images/NewTrialWC.png","lowH","1","8","1","1","1","1","true","",""
"image-keyboard-response","162","540586","0.0-3.0-6.0-1.0-1.8","64332b93d1cde024292baf53","6662009ae78f21dd82fcd179","66620d77570836b974b9ecfa","null","","null","","","","","","","","./tasks/HMM-beads/Images/WhiteBeadChoice.png","","","","","","","","","",""
"image-keyboard-response","163","541091","0.0-3.0-6.0-1.0-2.8","64332b93d1cde024292baf53","6662009ae78f21dd82fcd179","66620d77570836b974b9ecfa","null","","null","","","","","","","","./tasks/HMM-beads/Images/WhiteBeadChoiceCorrect.png","","","","","","","","","",""
"image-keyboard-response","164","541639","0.0-3.0-6.0-1.0-0.9","64332b93d1cde024292baf53","6662009ae78f21dd82fcd179","66620d77570836b974b9ecfa","546","","j","","","","","","","","./tasks/HMM-beads/Images/NewTrialWC.png","lowH","1","9","1","1","1","1","true","",""
"image-keyboard-response","165","541948","0.0-3.0-6.0-1.0-1.9","64332b93d1cde024292baf53","6662009ae78f21dd82fcd179","66620d77570836b974b9ecfa","null","","null","","","","","","","","./tasks/HMM-beads/Images/WhiteBeadChoice.png","","","","","","","","","",""
"image-keyboard-response","166","542455","0.0-3.0-6.0-1.0-2.9","64332b93d1cde024292baf53","6662009ae78f21dd82fcd179","66620d77570836b974b9ecfa","null","","null","","","","","","","","./tasks/HMM-beads/Images/WhiteBeadChoiceCorrect.png","","","","","","","","","",""
"image-keyboard-response","167","542896","0.0-3.0-6.0-1.0-0.10","64332b93d1cde024292baf53","6662009ae78f21dd82fcd179","66620d77570836b974b9ecfa","440","","f","","","","","","","","./tasks/HMM-beads/Images/NewTrialWC.png","lowH","1","10","1","1","1","0","false","",""
"image-keyboard-response","168","543214","0.0-3.0-6.0-1.0-1.10","64332b93d1cde024292baf53","6662009ae78f21dd82fcd179","66620d77570836b974b9ecfa","null","","null","","","","","","","","./tasks/HMM-beads/Images/BlackBeadChoice.png","","","","","","","","","",""
"image-keyboard-response","169","543722","0.0-3.0-6.0-1.0-2.10","64332b93d1cde024292baf53","6662009ae78f21dd82fcd179","66620d77570836b974b9ecfa","null","","null","","","","","","","","./tasks/HMM-beads/Images/BlackBeadChoiceWrong.png","","","","","","","","","",""
"image-keyboard-response","170","544295","0.0-3.0-6.0-1.0-0.11","64332b93d1cde024292baf53","6662009ae78f21dd82fcd179","66620d77570836b974b9ecfa","573","","j","","","","","","","","./tasks/HMM-beads/Images/NewTrialWC.png","lowH","1","11","1","1","1","1","true","",""
"image-keyboard-response","171","544601","0.0-3.0-6.0-1.0-1.11","64332b93d1cde024292baf53","6662009ae78f21dd82fcd179","66620d77570836b974b9ecfa","null","","null","","","","","","","","./tasks/HMM-beads/Images/WhiteBeadChoice.png","","","","","","","","","",""
"image-keyboard-response","172","545107","0.0-3.0-6.0-1.0-2.11","64332b93d1cde024292baf53","6662009ae78f21dd82fcd179","66620d77570836b974b9ecfa","null","","null","","","","","","","","./tasks/HMM-beads/Images/WhiteBeadChoiceCorrect.png","","","","","","","","","",""
"image-keyboard-response","173","545479","0.0-3.0-6.0-1.0-0.12","64332b93d1cde024292baf53","6662009ae78f21dd82fcd179","66620d77570836b974b9ecfa","371","","j","","","","","","","","./tasks/HMM-beads/Images/NewTrialWC.png","lowH","1","12","1","1","1","1","true","",""
"image-keyboard-response","174","545785","0.0-3.0-6.0-1.0-1.12","64332b93d1cde024292baf53","6662009ae78f21dd82fcd179","66620d77570836b974b9ecfa","null","","null","","","","","","","","./tasks/HMM-beads/Images/WhiteBeadChoice.png","","","","","","","","","",""
"image-keyboard-response","175","546299","0.0-3.0-6.0-1.0-2.12","64332b93d1cde024292baf53","6662009ae78f21dd82fcd179","66620d77570836b974b9ecfa","null","","null","","","","","","","","./tasks/HMM-beads/Images/WhiteBeadChoiceCorrect.png","","","","","","","","","",""
"image-keyboard-response","176","546758","0.0-3.0-6.0-1.0-0.13","64332b93d1cde024292baf53","6662009ae78f21dd82fcd179","66620d77570836b974b9ecfa","458","","f","","","","","","","","./tasks/HMM-beads/Images/NewTrialWC.png","lowH","1","13","1","0","1","0","true","",""
"image-keyboard-response","177","547069","0.0-3.0-6.0-1.0-1.13","64332b93d1cde024292baf53","6662009ae78f21dd82fcd179","66620d77570836b974b9ecfa","null","","null","","","","","","","","./tasks/HMM-beads/Images/BlackBeadChoice.png","","","","","","","","","",""
"image-keyboard-response","178","547576","0.0-3.0-6.0-1.0-2.13","64332b93d1cde024292baf53","6662009ae78f21dd82fcd179","66620d77570836b974b9ecfa","null","","null","","","","","","","","./tasks/HMM-beads/Images/BlackBeadChoiceCorrect.png","","","","","","","","","",""
"image-keyboard-response","179","548103","0.0-3.0-6.0-1.0-0.14","64332b93d1cde024292baf53","6662009ae78f21dd82fcd179","66620d77570836b974b9ecfa","526","","f","","","","","","","","./tasks/HMM-beads/Images/NewTrialBC.png","lowH","1","14","1","0","0","0","true","",""
"image-keyboard-response","180","548404","0.0-3.0-6.0-1.0-1.14","64332b93d1cde024292baf53","6662009ae78f21dd82fcd179","66620d77570836b974b9ecfa","null","","null","","","","","","","","./tasks/HMM-beads/Images/BlackBeadChoice.png","","","","","","","","","",""
"image-keyboard-response","181","548920","0.0-3.0-6.0-1.0-2.14","64332b93d1cde024292baf53","6662009ae78f21dd82fcd179","66620d77570836b974b9ecfa","null","","null","","","","","","","","./tasks/HMM-beads/Images/BlackBeadChoiceCorrect.png","","","","","","","","","",""
"image-keyboard-response","182","549367","0.0-3.0-6.0-1.0-0.15","64332b93d1cde024292baf53","6662009ae78f21dd82fcd179","66620d77570836b974b9ecfa","446","","f","","","","","","","","./tasks/HMM-beads/Images/NewTrialBC.png","lowH","1","15","1","1","0","0","false","",""
"image-keyboard-response","183","549671","0.0-3.0-6.0-1.0-1.15","64332b93d1cde024292baf53","6662009ae78f21dd82fcd179","66620d77570836b974b9ecfa","null","","null","","","","","","","","./tasks/HMM-beads/Images/BlackBeadChoice.png","","","","","","","","","",""
"image-keyboard-response","184","550179","0.0-3.0-6.0-1.0-2.15","64332b93d1cde024292baf53","6662009ae78f21dd82fcd179","66620d77570836b974b9ecfa","null","","null","","","","","","","","./tasks/HMM-beads/Images/BlackBeadChoiceWrong.png","","","","","","","","","",""
"image-keyboard-response","185","550679","0.0-3.0-6.0-1.0-0.16","64332b93d1cde024292baf53","6662009ae78f21dd82fcd179","66620d77570836b974b9ecfa","499","","j","","","","","","","","./tasks/HMM-beads/Images/NewTrialWC.png","lowH","1","16","1","1","1","1","true","",""
"image-keyboard-response","186","550989","0.0-3.0-6.0-1.0-1.16","64332b93d1cde024292baf53","6662009ae78f21dd82fcd179","66620d77570836b974b9ecfa","null","","null","","","","","","","","./tasks/HMM-beads/Images/WhiteBeadChoice.png","","","","","","","","","",""
"image-keyboard-response","187","551498","0.0-3.0-6.0-1.0-2.16","64332b93d1cde024292baf53","6662009ae78f21dd82fcd179","66620d77570836b974b9ecfa","null","","null","","","","","","","","./tasks/HMM-beads/Images/WhiteBeadChoiceCorrect.png","","","","","","","","","",""
"image-keyboard-response","188","551783","0.0-3.0-6.0-1.0-0.17","64332b93d1cde024292baf53","6662009ae78f21dd82fcd179","66620d77570836b974b9ecfa","284","","j","","","","","","","","./tasks/HMM-beads/Images/NewTrialWC.png","lowH","1","17","1","1","1","1","true","",""
"image-keyboard-response","189","552090","0.0-3.0-6.0-1.0-1.17","64332b93d1cde024292baf53","6662009ae78f21dd82fcd179","66620d77570836b974b9ecfa","null","","null","","","","","","","","./tasks/HMM-beads/Images/WhiteBeadChoice.png","","","","","","","","","",""
"image-keyboard-response","190","552604","0.0-3.0-6.0-1.0-2.17","64332b93d1cde024292baf53","6662009ae78f21dd82fcd179","66620d77570836b974b9ecfa","null","","null","","","","","","","","./tasks/HMM-beads/Images/WhiteBeadChoiceCorrect.png","","","","","","","","","",""
"image-keyboard-response","191","553071","0.0-3.0-6.0-1.0-0.18","64332b93d1cde024292baf53","6662009ae78f21dd82fcd179","66620d77570836b974b9ecfa","465","","j","","","","","","","","./tasks/HMM-beads/Images/NewTrialWC.png","lowH","1","18","1","1","1","1","true","",""
"image-keyboard-response","192","553386","0.0-3.0-6.0-1.0-1.18","64332b93d1cde024292baf53","6662009ae78f21dd82fcd179","66620d77570836b974b9ecfa","null","","null","","","","","","","","./tasks/HMM-beads/Images/WhiteBeadChoice.png","","","","","","","","","",""
"image-keyboard-response","193","553900","0.0-3.0-6.0-1.0-2.18","64332b93d1cde024292baf53","6662009ae78f21dd82fcd179","66620d77570836b974b9ecfa","null","","null","","","","","","","","./tasks/HMM-beads/Images/WhiteBeadChoiceCorrect.png","","","","","","","","","",""
"image-keyboard-response","194","554719","0.0-3.0-6.0-1.0-0.19","64332b93d1cde024292baf53","6662009ae78f21dd82fcd179","66620d77570836b974b9ecfa","817","","f","","","","","","","","./tasks/HMM-beads/Images/NewTrialWC.png","lowH","1","19","1","1","1","0","false","",""
"image-keyboard-response","195","555030","0.0-3.0-6.0-1.0-1.19","64332b93d1cde024292baf53","6662009ae78f21dd82fcd179","66620d77570836b974b9ecfa","null","","null","","","","","","","","./tasks/HMM-beads/Images/BlackBeadChoice.png","","","","","","","","","",""
"image-keyboard-response","196","555546","0.0-3.0-6.0-1.0-2.19","64332b93d1cde024292baf53","6662009ae78f21dd82fcd179","66620d77570836b974b9ecfa","null","","null","","","","","","","","./tasks/HMM-beads/Images/BlackBeadChoiceWrong.png","","","","","","","","","",""
"image-keyboard-response","197","556142","0.0-3.0-6.0-1.0-0.20","64332b93d1cde024292baf53","6662009ae78f21dd82fcd179","66620d77570836b974b9ecfa","595","","j","","","","","","","","./tasks/HMM-beads/Images/NewTrialWC.png","lowH","1","20","1","1","1","1","true","",""
"image-keyboard-response","198","556449","0.0-3.0-6.0-1.0-1.20","64332b93d1cde024292baf53","6662009ae78f21dd82fcd179","66620d77570836b974b9ecfa","null","","null","","","","","","","","./tasks/HMM-beads/Images/WhiteBeadChoice.png","","","","","","","","","",""
"image-keyboard-response","199","556956","0.0-3.0-6.0-1.0-2.20","64332b93d1cde024292baf53","6662009ae78f21dd82fcd179","66620d77570836b974b9ecfa","null","","null","","","","","","","","./tasks/HMM-beads/Images/WhiteBeadChoiceCorrect.png","","","","","","","","","",""
"image-keyboard-response","200","557351","0.0-3.0-6.0-1.0-0.21","64332b93d1cde024292baf53","6662009ae78f21dd82fcd179","66620d77570836b974b9ecfa","393","","j","","","","","","","","./tasks/HMM-beads/Images/NewTrialWC.png","lowH","1","21","1","1","1","1","true","",""
"image-keyboard-response","201","557667","0.0-3.0-6.0-1.0-1.21","64332b93d1cde024292baf53","6662009ae78f21dd82fcd179","66620d77570836b974b9ecfa","null","","null","","","","","","","","./tasks/HMM-beads/Images/WhiteBeadChoice.png","","","","","","","","","",""
"image-keyboard-response","202","558175","0.0-3.0-6.0-1.0-2.21","64332b93d1cde024292baf53","6662009ae78f21dd82fcd179","66620d77570836b974b9ecfa","null","","null","","","","","","","","./tasks/HMM-beads/Images/WhiteBeadChoiceCorrect.png","","","","","","","","","",""
"image-keyboard-response","203","558511","0.0-3.0-6.0-1.0-0.22","64332b93d1cde024292baf53","6662009ae78f21dd82fcd179","66620d77570836b974b9ecfa","335","","j","","","","","","","","./tasks/HMM-beads/Images/NewTrialWC.png","lowH","1","22","1","1","1","1","true","",""
"image-keyboard-response","204","558815","0.0-3.0-6.0-1.0-1.22","64332b93d1cde024292baf53","6662009ae78f21dd82fcd179","66620d77570836b974b9ecfa","null","","null","","","","","","","","./tasks/HMM-beads/Images/WhiteBeadChoice.png","","","","","","","","","",""
"image-keyboard-response","205","559325","0.0-3.0-6.0-1.0-2.22","64332b93d1cde024292baf53","6662009ae78f21dd82fcd179","66620d77570836b974b9ecfa","null","","null","","","","","","","","./tasks/HMM-beads/Images/WhiteBeadChoiceCorrect.png","","","","","","","","","",""
"image-keyboard-response","206","559767","0.0-3.0-6.0-1.0-0.23","64332b93d1cde024292baf53","6662009ae78f21dd82fcd179","66620d77570836b974b9ecfa","441","","j","","","","","","","","./tasks/HMM-beads/Images/NewTrialWC.png","lowH","1","23","1","1","1","1","true","",""
"image-keyboard-response","207","560084","0.0-3.0-6.0-1.0-1.23","64332b93d1cde024292baf53","6662009ae78f21dd82fcd179","66620d77570836b974b9ecfa","null","","null","","","","","","","","./tasks/HMM-beads/Images/WhiteBeadChoice.png","","","","","","","","","",""
"image-keyboard-response","208","560588","0.0-3.0-6.0-1.0-2.23","64332b93d1cde024292baf53","6662009ae78f21dd82fcd179","66620d77570836b974b9ecfa","null","","null","","","","","","","","./tasks/HMM-beads/Images/WhiteBeadChoiceCorrect.png","","","","","","","","","",""
"image-keyboard-response","209","561255","0.0-3.0-6.0-1.0-0.24","64332b93d1cde024292baf53","6662009ae78f21dd82fcd179","66620d77570836b974b9ecfa","665","","j","","","","","","","","./tasks/HMM-beads/Images/NewTrialWC.png","lowH","1","24","1","0","1","1","false","",""
"image-keyboard-response","210","561568","0.0-3.0-6.0-1.0-1.24","64332b93d1cde024292baf53","6662009ae78f21dd82fcd179","66620d77570836b974b9ecfa","null","","null","","","","","","","","./tasks/HMM-beads/Images/WhiteBeadChoice.png","","","","","","","","","",""
"image-keyboard-response","211","562074","0.0-3.0-6.0-1.0-2.24","64332b93d1cde024292baf53","6662009ae78f21dd82fcd179","66620d77570836b974b9ecfa","null","","null","","","","","","","","./tasks/HMM-beads/Images/WhiteBeadChoiceWrong.png","","","","","","","","","",""
"image-keyboard-response","212","562959","0.0-3.0-6.0-1.0-0.25","64332b93d1cde024292baf53","6662009ae78f21dd82fcd179","66620d77570836b974b9ecfa","884","","f","","","","","","","","./tasks/HMM-beads/Images/NewTrialBC.png","lowH","1","25","1","1","0","0","false","",""
"image-keyboard-response","213","563267","0.0-3.0-6.0-1.0-1.25","64332b93d1cde024292baf53","6662009ae78f21dd82fcd179","66620d77570836b974b9ecfa","null","","null","","","","","","","","./tasks/HMM-beads/Images/BlackBeadChoice.png","","","","","","","","","",""
"image-keyboard-response","214","563783","0.0-3.0-6.0-1.0-2.25","64332b93d1cde024292baf53","6662009ae78f21dd82fcd179","66620d77570836b974b9ecfa","null","","null","","","","","","","","./tasks/HMM-beads/Images/BlackBeadChoiceWrong.png","","","","","","","","","",""
"image-keyboard-response","215","564158","0.0-3.0-6.0-1.0-0.26","64332b93d1cde024292baf53","6662009ae78f21dd82fcd179","66620d77570836b974b9ecfa","374","","j","","","","","","","","./tasks/HMM-beads/Images/NewTrialWC.png","lowH","1","26","1","0","1","1","false","",""
"image-keyboard-response","216","564466","0.0-3.0-6.0-1.0-1.26","64332b93d1cde024292baf53","6662009ae78f21dd82fcd179","66620d77570836b974b9ecfa","null","","null","","","","","","","","./tasks/HMM-beads/Images/WhiteBeadChoice.png","","","","","","","","","",""
"image-keyboard-response","217","564970","0.0-3.0-6.0-1.0-2.26","64332b93d1cde024292baf53","6662009ae78f21dd82fcd179","66620d77570836b974b9ecfa","null","","null","","","","","","","","./tasks/HMM-beads/Images/WhiteBeadChoiceWrong.png","","","","","","","","","",""
"image-keyboard-response","218","565455","0.0-3.0-6.0-1.0-0.27","64332b93d1cde024292baf53","6662009ae78f21dd82fcd179","66620d77570836b974b9ecfa","484","","f","","","","","","","","./tasks/HMM-beads/Images/NewTrialBC.png","lowH","1","27","1","1","0","0","false","",""
"image-keyboard-response","219","565766","0.0-3.0-6.0-1.0-1.27","64332b93d1cde024292baf53","6662009ae78f21dd82fcd179","66620d77570836b974b9ecfa","null","","null","","","","","","","","./tasks/HMM-beads/Images/BlackBeadChoice.png","","","","","","","","","",""
"image-keyboard-response","220","566285","0.0-3.0-6.0-1.0-2.27","64332b93d1cde024292baf53","6662009ae78f21dd82fcd179","66620d77570836b974b9ecfa","null","","null","","","","","","","","./tasks/HMM-beads/Images/BlackBeadChoiceWrong.png","","","","","","","","","",""
"image-keyboard-response","221","566479","0.0-3.0-6.0-1.0-0.28","64332b93d1cde024292baf53","6662009ae78f21dd82fcd179","66620d77570836b974b9ecfa","192","","j","","","","","","","","./tasks/HMM-beads/Images/NewTrialWC.png","lowH","1","28","1","1","1","1","true","",""
"image-keyboard-response","222","566786","0.0-3.0-6.0-1.0-1.28","64332b93d1cde024292baf53","6662009ae78f21dd82fcd179","66620d77570836b974b9ecfa","null","","null","","","","","","","","./tasks/HMM-beads/Images/WhiteBeadChoice.png","","","","","","","","","",""
"image-keyboard-response","223","567287","0.0-3.0-6.0-1.0-2.28","64332b93d1cde024292baf53","6662009ae78f21dd82fcd179","66620d77570836b974b9ecfa","null","","null","","","","","","","","./tasks/HMM-beads/Images/WhiteBeadChoiceCorrect.png","","","","","","","","","",""
"image-keyboard-response","224","567350","0.0-3.0-6.0-1.0-0.29","64332b93d1cde024292baf53","6662009ae78f21dd82fcd179","66620d77570836b974b9ecfa","62","","j","","","","","","","","./tasks/HMM-beads/Images/NewTrialWC.png","lowH","1","29","1","1","1","1","true","",""
"image-keyboard-response","225","567665","0.0-3.0-6.0-1.0-1.29","64332b93d1cde024292baf53","6662009ae78f21dd82fcd179","66620d77570836b974b9ecfa","null","","null","","","","","","","","./tasks/HMM-beads/Images/WhiteBeadChoice.png","","","","","","","","","",""
"image-keyboard-response","226","568174","0.0-3.0-6.0-1.0-2.29","64332b93d1cde024292baf53","6662009ae78f21dd82fcd179","66620d77570836b974b9ecfa","null","","null","","","","","","","","./tasks/HMM-beads/Images/WhiteBeadChoiceCorrect.png","","","","","","","","","",""
"image-keyboard-response","227","568495","0.0-3.0-6.0-1.0-0.30","64332b93d1cde024292baf53","6662009ae78f21dd82fcd179","66620d77570836b974b9ecfa","319","","j","","","","","","","","./tasks/HMM-beads/Images/NewTrialWC.png","lowH","1","30","1","1","1","1","true","",""
"image-keyboard-response","228","568800","0.0-3.0-6.0-1.0-1.30","64332b93d1cde024292baf53","6662009ae78f21dd82fcd179","66620d77570836b974b9ecfa","null","","null","","","","","","","","./tasks/HMM-beads/Images/WhiteBeadChoice.png","","","","","","","","","",""
"image-keyboard-response","229","569303","0.0-3.0-6.0-1.0-2.30","64332b93d1cde024292baf53","6662009ae78f21dd82fcd179","66620d77570836b974b9ecfa","null","","null","","","","","","","","./tasks/HMM-beads/Images/WhiteBeadChoiceCorrect.png","","","","","","","","","",""
"image-keyboard-response","230","569590","0.0-3.0-6.0-1.0-0.31","64332b93d1cde024292baf53","6662009ae78f21dd82fcd179","66620d77570836b974b9ecfa","287","","j","","","","","","","","./tasks/HMM-beads/Images/NewTrialWC.png","lowH","1","31","1","1","1","1","true","",""
"image-keyboard-response","231","569898","0.0-3.0-6.0-1.0-1.31","64332b93d1cde024292baf53","6662009ae78f21dd82fcd179","66620d77570836b974b9ecfa","null","","null","","","","","","","","./tasks/HMM-beads/Images/WhiteBeadChoice.png","","","","","","","","","",""
"image-keyboard-response","232","570402","0.0-3.0-6.0-1.0-2.31","64332b93d1cde024292baf53","6662009ae78f21dd82fcd179","66620d77570836b974b9ecfa","null","","null","","","","","","","","./tasks/HMM-beads/Images/WhiteBeadChoiceCorrect.png","","","","","","","","","",""
"image-keyboard-response","233","570711","0.0-3.0-6.0-1.0-0.32","64332b93d1cde024292baf53","6662009ae78f21dd82fcd179","66620d77570836b974b9ecfa","307","","j","","","","","","","","./tasks/HMM-beads/Images/NewTrialWC.png","lowH","1","32","1","1","1","1","true","",""
"image-keyboard-response","234","571016","0.0-3.0-6.0-1.0-1.32","64332b93d1cde024292baf53","6662009ae78f21dd82fcd179","66620d77570836b974b9ecfa","null","","null","","","","","","","","./tasks/HMM-beads/Images/WhiteBeadChoice.png","","","","","","","","","",""
"image-keyboard-response","235","571519","0.0-3.0-6.0-1.0-2.32","64332b93d1cde024292baf53","6662009ae78f21dd82fcd179","66620d77570836b974b9ecfa","null","","null","","","","","","","","./tasks/HMM-beads/Images/WhiteBeadChoiceCorrect.png","","","","","","","","","",""
"image-keyboard-response","236","571862","0.0-3.0-6.0-1.0-0.33","64332b93d1cde024292baf53","6662009ae78f21dd82fcd179","66620d77570836b974b9ecfa","342","","j","","","","","","","","./tasks/HMM-beads/Images/NewTrialWC.png","lowH","1","33","1","1","1","1","true","",""
"image-keyboard-response","237","572168","0.0-3.0-6.0-1.0-1.33","64332b93d1cde024292baf53","6662009ae78f21dd82fcd179","66620d77570836b974b9ecfa","null","","null","","","","","","","","./tasks/HMM-beads/Images/WhiteBeadChoice.png","","","","","","","","","",""
"image-keyboard-response","238","572676","0.0-3.0-6.0-1.0-2.33","64332b93d1cde024292baf53","6662009ae78f21dd82fcd179","66620d77570836b974b9ecfa","null","","null","","","","","","","","./tasks/HMM-beads/Images/WhiteBeadChoiceCorrect.png","","","","","","","","","",""
"image-keyboard-response","239","572998","0.0-3.0-6.0-1.0-0.34","64332b93d1cde024292baf53","6662009ae78f21dd82fcd179","66620d77570836b974b9ecfa","322","","j","","","","","","","","./tasks/HMM-beads/Images/NewTrialWC.png","lowH","1","34","1","1","1","1","true","",""
"image-keyboard-response","240","573315","0.0-3.0-6.0-1.0-1.34","64332b93d1cde024292baf53","6662009ae78f21dd82fcd179","66620d77570836b974b9ecfa","null","","null","","","","","","","","./tasks/HMM-beads/Images/WhiteBeadChoice.png","","","","","","","","","",""
"image-keyboard-response","241","573830","0.0-3.0-6.0-1.0-2.34","64332b93d1cde024292baf53","6662009ae78f21dd82fcd179","66620d77570836b974b9ecfa","null","","null","","","","","","","","./tasks/HMM-beads/Images/WhiteBeadChoiceCorrect.png","","","","","","","","","",""
"image-keyboard-response","242","574367","0.0-3.0-6.0-1.0-0.35","64332b93d1cde024292baf53","6662009ae78f21dd82fcd179","66620d77570836b974b9ecfa","535","","j","","","","","","","","./tasks/HMM-beads/Images/NewTrialWC.png","lowH","1","35","1","1","1","1","true","",""
"image-keyboard-response","243","574681","0.0-3.0-6.0-1.0-1.35","64332b93d1cde024292baf53","6662009ae78f21dd82fcd179","66620d77570836b974b9ecfa","null","","null","","","","","","","","./tasks/HMM-beads/Images/WhiteBeadChoice.png","","","","","","","","","",""
"image-keyboard-response","244","575186","0.0-3.0-6.0-1.0-2.35","64332b93d1cde024292baf53","6662009ae78f21dd82fcd179","66620d77570836b974b9ecfa","null","","null","","","","","","","","./tasks/HMM-beads/Images/WhiteBeadChoiceCorrect.png","","","","","","","","","",""
"image-keyboard-response","245","575559","0.0-3.0-6.0-1.0-0.36","64332b93d1cde024292baf53","6662009ae78f21dd82fcd179","66620d77570836b974b9ecfa","372","","j","","","","","","","","./tasks/HMM-beads/Images/NewTrialWC.png","lowH","1","36","1","1","1","1","true","",""
"image-keyboard-response","246","575880","0.0-3.0-6.0-1.0-1.36","64332b93d1cde024292baf53","6662009ae78f21dd82fcd179","66620d77570836b974b9ecfa","null","","null","","","","","","","","./tasks/HMM-beads/Images/WhiteBeadChoice.png","","","","","","","","","",""
"image-keyboard-response","247","576383","0.0-3.0-6.0-1.0-2.36","64332b93d1cde024292baf53","6662009ae78f21dd82fcd179","66620d77570836b974b9ecfa","null","","null","","","","","","","","./tasks/HMM-beads/Images/WhiteBeadChoiceCorrect.png","","","","","","","","","",""
"image-keyboard-response","248","577630","0.0-3.0-6.0-1.0-0.37","64332b93d1cde024292baf53","6662009ae78f21dd82fcd179","66620d77570836b974b9ecfa","1247","","f","","","","","","","","./tasks/HMM-beads/Images/NewTrialWC.png","lowH","1","37","1","1","1","0","false","",""
"image-keyboard-response","249","577935","0.0-3.0-6.0-1.0-1.37","64332b93d1cde024292baf53","6662009ae78f21dd82fcd179","66620d77570836b974b9ecfa","null","","null","","","","","","","","./tasks/HMM-beads/Images/BlackBeadChoice.png","","","","","","","","","",""
"image-keyboard-response","250","578450","0.0-3.0-6.0-1.0-2.37","64332b93d1cde024292baf53","6662009ae78f21dd82fcd179","66620d77570836b974b9ecfa","null","","null","","","","","","","","./tasks/HMM-beads/Images/BlackBeadChoiceWrong.png","","","","","","","","","",""
"image-keyboard-response","251","578814","0.0-3.0-6.0-1.0-0.38","64332b93d1cde024292baf53","6662009ae78f21dd82fcd179","66620d77570836b974b9ecfa","364","","j","","","","","","","","./tasks/HMM-beads/Images/NewTrialWC.png","lowH","1","38","1","1","1","1","true","",""
"image-keyboard-response","252","579130","0.0-3.0-6.0-1.0-1.38","64332b93d1cde024292baf53","6662009ae78f21dd82fcd179","66620d77570836b974b9ecfa","null","","null","","","","","","","","./tasks/HMM-beads/Images/WhiteBeadChoice.png","","","","","","","","","",""
"image-keyboard-response","253","579634","0.0-3.0-6.0-1.0-2.38","64332b93d1cde024292baf53","6662009ae78f21dd82fcd179","66620d77570836b974b9ecfa","null","","null","","","","","","","","./tasks/HMM-beads/Images/WhiteBeadChoiceCorrect.png","","","","","","","","","",""
"image-keyboard-response","254","579919","0.0-3.0-6.0-1.0-0.39","64332b93d1cde024292baf53","6662009ae78f21dd82fcd179","66620d77570836b974b9ecfa","283","","j","","","","","","","","./tasks/HMM-beads/Images/NewTrialWC.png","lowH","1","39","1","1","1","1","true","",""
"image-keyboard-response","255","580230","0.0-3.0-6.0-1.0-1.39","64332b93d1cde024292baf53","6662009ae78f21dd82fcd179","66620d77570836b974b9ecfa","null","","null","","","","","","","","./tasks/HMM-beads/Images/WhiteBeadChoice.png","","","","","","","","","",""
"image-keyboard-response","256","580734","0.0-3.0-6.0-1.0-2.39","64332b93d1cde024292baf53","6662009ae78f21dd82fcd179","66620d77570836b974b9ecfa","null","","null","","","","","","","","./tasks/HMM-beads/Images/WhiteBeadChoiceCorrect.png","","","","","","","","","",""
"image-keyboard-response","257","581014","0.0-3.0-6.0-1.0-0.40","64332b93d1cde024292baf53","6662009ae78f21dd82fcd179","66620d77570836b974b9ecfa","279","","j","","","","","","","","./tasks/HMM-beads/Images/NewTrialWC.png","lowH","1","40","1","1","1","1","true","",""
"image-keyboard-response","258","581330","0.0-3.0-6.0-1.0-1.40","64332b93d1cde024292baf53","6662009ae78f21dd82fcd179","66620d77570836b974b9ecfa","null","","null","","","","","","","","./tasks/HMM-beads/Images/WhiteBeadChoice.png","","","","","","","","","",""
"image-keyboard-response","259","581849","0.0-3.0-6.0-1.0-2.40","64332b93d1cde024292baf53","6662009ae78f21dd82fcd179","66620d77570836b974b9ecfa","null","","null","","","","","","","","./tasks/HMM-beads/Images/WhiteBeadChoiceCorrect.png","","","","","","","","","",""
"image-keyboard-response","260","582287","0.0-3.0-6.0-1.0-0.41","64332b93d1cde024292baf53","6662009ae78f21dd82fcd179","66620d77570836b974b9ecfa","437","","j","","","","","","","","./tasks/HMM-beads/Images/NewTrialWC.png","lowH","1","41","1","1","1","1","true","",""
"image-keyboard-response","261","582598","0.0-3.0-6.0-1.0-1.41","64332b93d1cde024292baf53","6662009ae78f21dd82fcd179","66620d77570836b974b9ecfa","null","","null","","","","","","","","./tasks/HMM-beads/Images/WhiteBeadChoice.png","","","","","","","","","",""
"image-keyboard-response","262","583107","0.0-3.0-6.0-1.0-2.41","64332b93d1cde024292baf53","6662009ae78f21dd82fcd179","66620d77570836b974b9ecfa","null","","null","","","","","","","","./tasks/HMM-beads/Images/WhiteBeadChoiceCorrect.png","","","","","","","","","",""
"image-keyboard-response","263","583414","0.0-3.0-6.0-1.0-0.42","64332b93d1cde024292baf53","6662009ae78f21dd82fcd179","66620d77570836b974b9ecfa","307","","j","","","","","","","","./tasks/HMM-beads/Images/NewTrialWC.png","lowH","1","42","1","1","1","1","true","",""
"image-keyboard-response","264","583729","0.0-3.0-6.0-1.0-1.42","64332b93d1cde024292baf53","6662009ae78f21dd82fcd179","66620d77570836b974b9ecfa","null","","null","","","","","","","","./tasks/HMM-beads/Images/WhiteBeadChoice.png","","","","","","","","","",""
"image-keyboard-response","265","584233","0.0-3.0-6.0-1.0-2.42","64332b93d1cde024292baf53","6662009ae78f21dd82fcd179","66620d77570836b974b9ecfa","null","","null","","","","","","","","./tasks/HMM-beads/Images/WhiteBeadChoiceCorrect.png","","","","","","","","","",""
"image-keyboard-response","266","584735","0.0-3.0-6.0-1.0-0.43","64332b93d1cde024292baf53","6662009ae78f21dd82fcd179","66620d77570836b974b9ecfa","500","","j","","","","","","","","./tasks/HMM-beads/Images/NewTrialWC.png","lowH","1","43","1","1","1","1","true","",""
"image-keyboard-response","267","585046","0.0-3.0-6.0-1.0-1.43","64332b93d1cde024292baf53","6662009ae78f21dd82fcd179","66620d77570836b974b9ecfa","null","","null","","","","","","","","./tasks/HMM-beads/Images/WhiteBeadChoice.png","","","","","","","","","",""
"image-keyboard-response","268","585563","0.0-3.0-6.0-1.0-2.43","64332b93d1cde024292baf53","6662009ae78f21dd82fcd179","66620d77570836b974b9ecfa","null","","null","","","","","","","","./tasks/HMM-beads/Images/WhiteBeadChoiceCorrect.png","","","","","","","","","",""
"image-keyboard-response","269","586063","0.0-3.0-6.0-1.0-0.44","64332b93d1cde024292baf53","6662009ae78f21dd82fcd179","66620d77570836b974b9ecfa","499","","j","","","","","","","","./tasks/HMM-beads/Images/NewTrialWC.png","lowH","1","44","1","1","1","1","true","",""
"image-keyboard-response","270","586375","0.0-3.0-6.0-1.0-1.44","64332b93d1cde024292baf53","6662009ae78f21dd82fcd179","66620d77570836b974b9ecfa","null","","null","","","","","","","","./tasks/HMM-beads/Images/WhiteBeadChoice.png","","","","","","","","","",""
"image-keyboard-response","271","586884","0.0-3.0-6.0-1.0-2.44","64332b93d1cde024292baf53","6662009ae78f21dd82fcd179","66620d77570836b974b9ecfa","null","","null","","","","","","","","./tasks/HMM-beads/Images/WhiteBeadChoiceCorrect.png","","","","","","","","","",""
"image-keyboard-response","272","587368","0.0-3.0-6.0-1.0-0.45","64332b93d1cde024292baf53","6662009ae78f21dd82fcd179","66620d77570836b974b9ecfa","482","","j","","","","","","","","./tasks/HMM-beads/Images/NewTrialWC.png","lowH","1","45","1","1","1","1","true","",""
"image-keyboard-response","273","587677","0.0-3.0-6.0-1.0-1.45","64332b93d1cde024292baf53","6662009ae78f21dd82fcd179","66620d77570836b974b9ecfa","null","","null","","","","","","","","./tasks/HMM-beads/Images/WhiteBeadChoice.png","","","","","","","","","",""
"image-keyboard-response","274","588191","0.0-3.0-6.0-1.0-2.45","64332b93d1cde024292baf53","6662009ae78f21dd82fcd179","66620d77570836b974b9ecfa","null","","null","","","","","","","","./tasks/HMM-beads/Images/WhiteBeadChoiceCorrect.png","","","","","","","","","",""
"image-keyboard-response","275","588550","0.0-3.0-6.0-1.0-0.46","64332b93d1cde024292baf53","6662009ae78f21dd82fcd179","66620d77570836b974b9ecfa","357","","j","","","","","","","","./tasks/HMM-beads/Images/NewTrialWC.png","lowH","1","46","1","1","1","1","true","",""
"image-keyboard-response","276","588862","0.0-3.0-6.0-1.0-1.46","64332b93d1cde024292baf53","6662009ae78f21dd82fcd179","66620d77570836b974b9ecfa","null","","null","","","","","","","","./tasks/HMM-beads/Images/WhiteBeadChoice.png","","","","","","","","","",""
"image-keyboard-response","277","589366","0.0-3.0-6.0-1.0-2.46","64332b93d1cde024292baf53","6662009ae78f21dd82fcd179","66620d77570836b974b9ecfa","null","","null","","","","","","","","./tasks/HMM-beads/Images/WhiteBeadChoiceCorrect.png","","","","","","","","","",""
"image-keyboard-response","278","589799","0.0-3.0-6.0-1.0-0.47","64332b93d1cde024292baf53","6662009ae78f21dd82fcd179","66620d77570836b974b9ecfa","432","","j","","","","","","","","./tasks/HMM-beads/Images/NewTrialWC.png","lowH","1","47","1","0","1","1","false","",""
"image-keyboard-response","279","590111","0.0-3.0-6.0-1.0-1.47","64332b93d1cde024292baf53","6662009ae78f21dd82fcd179","66620d77570836b974b9ecfa","null","","null","","","","","","","","./tasks/HMM-beads/Images/WhiteBeadChoice.png","","","","","","","","","",""
"image-keyboard-response","280","590615","0.0-3.0-6.0-1.0-2.47","64332b93d1cde024292baf53","6662009ae78f21dd82fcd179","66620d77570836b974b9ecfa","null","","null","","","","","","","","./tasks/HMM-beads/Images/WhiteBeadChoiceWrong.png","","","","","","","","","",""
"image-keyboard-response","281","591095","0.0-3.0-6.0-1.0-0.48","64332b93d1cde024292baf53","6662009ae78f21dd82fcd179","66620d77570836b974b9ecfa","479","","f","","","","","","","","./tasks/HMM-beads/Images/NewTrialBC.png","lowH","1","48","1","0","0","0","true","",""
"image-keyboard-response","282","591410","0.0-3.0-6.0-1.0-1.48","64332b93d1cde024292baf53","6662009ae78f21dd82fcd179","66620d77570836b974b9ecfa","null","","null","","","","","","","","./tasks/HMM-beads/Images/BlackBeadChoice.png","","","","","","","","","",""
"image-keyboard-response","283","591917","0.0-3.0-6.0-1.0-2.48","64332b93d1cde024292baf53","6662009ae78f21dd82fcd179","66620d77570836b974b9ecfa","null","","null","","","","","","","","./tasks/HMM-beads/Images/BlackBeadChoiceCorrect.png","","","","","","","","","",""
"image-keyboard-response","284","592639","0.0-3.0-6.0-1.0-0.49","64332b93d1cde024292baf53","6662009ae78f21dd82fcd179","66620d77570836b974b9ecfa","721","","f","","","","","","","","./tasks/HMM-beads/Images/NewTrialBC.png","lowH","1","49","1","0","0","0","true","",""
"image-keyboard-response","285","592948","0.0-3.0-6.0-1.0-1.49","64332b93d1cde024292baf53","6662009ae78f21dd82fcd179","66620d77570836b974b9ecfa","null","","null","","","","","","","","./tasks/HMM-beads/Images/BlackBeadChoice.png","","","","","","","","","",""
"image-keyboard-response","286","593460","0.0-3.0-6.0-1.0-2.49","64332b93d1cde024292baf53","6662009ae78f21dd82fcd179","66620d77570836b974b9ecfa","null","","null","","","","","","","","./tasks/HMM-beads/Images/BlackBeadChoiceCorrect.png","","","","","","","","","",""
"image-keyboard-response","287","593919","0.0-3.0-6.0-1.0-0.50","64332b93d1cde024292baf53","6662009ae78f21dd82fcd179","66620d77570836b974b9ecfa","458","","f","","","","","","","","./tasks/HMM-beads/Images/NewTrialBC.png","lowH","1","50","1","1","0","0","false","",""
"image-keyboard-response","288","594232","0.0-3.0-6.0-1.0-1.50","64332b93d1cde024292baf53","6662009ae78f21dd82fcd179","66620d77570836b974b9ecfa","null","","null","","","","","","","","./tasks/HMM-beads/Images/BlackBeadChoice.png","","","","","","","","","",""
"image-keyboard-response","289","594747","0.0-3.0-6.0-1.0-2.50","64332b93d1cde024292baf53","6662009ae78f21dd82fcd179","66620d77570836b974b9ecfa","null","","null","","","","","","","","./tasks/HMM-beads/Images/BlackBeadChoiceWrong.png","","","","","","","","","",""
"image-keyboard-response","290","594965","0.0-3.0-6.0-1.0-0.51","64332b93d1cde024292baf53","6662009ae78f21dd82fcd179","66620d77570836b974b9ecfa","217","","j","","","","","","","","./tasks/HMM-beads/Images/NewTrialWC.png","lowH","1","51","1","1","1","1","true","",""
"image-keyboard-response","291","595277","0.0-3.0-6.0-1.0-1.51","64332b93d1cde024292baf53","6662009ae78f21dd82fcd179","66620d77570836b974b9ecfa","null","","null","","","","","","","","./tasks/HMM-beads/Images/WhiteBeadChoice.png","","","","","","","","","",""
"image-keyboard-response","292","595784","0.0-3.0-6.0-1.0-2.51","64332b93d1cde024292baf53","6662009ae78f21dd82fcd179","66620d77570836b974b9ecfa","null","","null","","","","","","","","./tasks/HMM-beads/Images/WhiteBeadChoiceCorrect.png","","","","","","","","","",""
"image-keyboard-response","293","596087","0.0-3.0-6.0-1.0-0.52","64332b93d1cde024292baf53","6662009ae78f21dd82fcd179","66620d77570836b974b9ecfa","302","","j","","","","","","","","./tasks/HMM-beads/Images/NewTrialWC.png","lowH","1","52","1","1","1","1","true","",""
"image-keyboard-response","294","596398","0.0-3.0-6.0-1.0-1.52","64332b93d1cde024292baf53","6662009ae78f21dd82fcd179","66620d77570836b974b9ecfa","null","","null","","","","","","","","./tasks/HMM-beads/Images/WhiteBeadChoice.png","","","","","","","","","",""
"image-keyboard-response","295","596906","0.0-3.0-6.0-1.0-2.52","64332b93d1cde024292baf53","6662009ae78f21dd82fcd179","66620d77570836b974b9ecfa","null","","null","","","","","","","","./tasks/HMM-beads/Images/WhiteBeadChoiceCorrect.png","","","","","","","","","",""
"image-keyboard-response","296","597262","0.0-3.0-6.0-1.0-0.53","64332b93d1cde024292baf53","6662009ae78f21dd82fcd179","66620d77570836b974b9ecfa","355","","j","","","","","","","","./tasks/HMM-beads/Images/NewTrialWC.png","lowH","1","53","1","1","1","1","true","",""
"image-keyboard-response","297","597577","0.0-3.0-6.0-1.0-1.53","64332b93d1cde024292baf53","6662009ae78f21dd82fcd179","66620d77570836b974b9ecfa","null","","null","","","","","","","","./tasks/HMM-beads/Images/WhiteBeadChoice.png","","","","","","","","","",""
"image-keyboard-response","298","598097","0.0-3.0-6.0-1.0-2.53","64332b93d1cde024292baf53","6662009ae78f21dd82fcd179","66620d77570836b974b9ecfa","null","","null","","","","","","","","./tasks/HMM-beads/Images/WhiteBeadChoiceCorrect.png","","","","","","","","","",""
"image-keyboard-response","299","598406","0.0-3.0-6.0-1.0-0.54","64332b93d1cde024292baf53","6662009ae78f21dd82fcd179","66620d77570836b974b9ecfa","309","","j","","","","","","","","./tasks/HMM-beads/Images/NewTrialWC.png","lowH","1","54","1","1","1","1","true","",""
"image-keyboard-response","300","598711","0.0-3.0-6.0-1.0-1.54","64332b93d1cde024292baf53","6662009ae78f21dd82fcd179","66620d77570836b974b9ecfa","null","","null","","","","","","","","./tasks/HMM-beads/Images/WhiteBeadChoice.png","","","","","","","","","",""
"image-keyboard-response","301","599217","0.0-3.0-6.0-1.0-2.54","64332b93d1cde024292baf53","6662009ae78f21dd82fcd179","66620d77570836b974b9ecfa","null","","null","","","","","","","","./tasks/HMM-beads/Images/WhiteBeadChoiceCorrect.png","","","","","","","","","",""
"image-keyboard-response","302","600631","0.0-3.0-6.0-1.0-0.55","64332b93d1cde024292baf53","6662009ae78f21dd82fcd179","66620d77570836b974b9ecfa","1413","","j","","","","","","","","./tasks/HMM-beads/Images/NewTrialWC.png","lowH","1","55","1","1","1","1","true","",""
"image-keyboard-response","303","600945","0.0-3.0-6.0-1.0-1.55","64332b93d1cde024292baf53","6662009ae78f21dd82fcd179","66620d77570836b974b9ecfa","null","","null","","","","","","","","./tasks/HMM-beads/Images/WhiteBeadChoice.png","","","","","","","","","",""
"image-keyboard-response","304","601461","0.0-3.0-6.0-1.0-2.55","64332b93d1cde024292baf53","6662009ae78f21dd82fcd179","66620d77570836b974b9ecfa","null","","null","","","","","","","","./tasks/HMM-beads/Images/WhiteBeadChoiceCorrect.png","","","","","","","","","",""
"image-keyboard-response","305","601702","0.0-3.0-6.0-1.0-0.56","64332b93d1cde024292baf53","6662009ae78f21dd82fcd179","66620d77570836b974b9ecfa","241","","j","","","","","","","","./tasks/HMM-beads/Images/NewTrialWC.png","lowH","1","56","1","1","1","1","true","",""
"image-keyboard-response","306","602011","0.0-3.0-6.0-1.0-1.56","64332b93d1cde024292baf53","6662009ae78f21dd82fcd179","66620d77570836b974b9ecfa","null","","null","","","","","","","","./tasks/HMM-beads/Images/WhiteBeadChoice.png","","","","","","","","","",""
"image-keyboard-response","307","602514","0.0-3.0-6.0-1.0-2.56","64332b93d1cde024292baf53","6662009ae78f21dd82fcd179","66620d77570836b974b9ecfa","null","","null","","","","","","","","./tasks/HMM-beads/Images/WhiteBeadChoiceCorrect.png","","","","","","","","","",""
"image-keyboard-response","308","602798","0.0-3.0-6.0-1.0-0.57","64332b93d1cde024292baf53","6662009ae78f21dd82fcd179","66620d77570836b974b9ecfa","283","","j","","","","","","","","./tasks/HMM-beads/Images/NewTrialWC.png","lowH","1","57","1","1","1","1","true","",""
"image-keyboard-response","309","603115","0.0-3.0-6.0-1.0-1.57","64332b93d1cde024292baf53","6662009ae78f21dd82fcd179","66620d77570836b974b9ecfa","null","","null","","","","","","","","./tasks/HMM-beads/Images/WhiteBeadChoice.png","","","","","","","","","",""
"image-keyboard-response","310","603622","0.0-3.0-6.0-1.0-2.57","64332b93d1cde024292baf53","6662009ae78f21dd82fcd179","66620d77570836b974b9ecfa","null","","null","","","","","","","","./tasks/HMM-beads/Images/WhiteBeadChoiceCorrect.png","","","","","","","","","",""
"image-keyboard-response","311","603878","0.0-3.0-6.0-1.0-0.58","64332b93d1cde024292baf53","6662009ae78f21dd82fcd179","66620d77570836b974b9ecfa","255","","j","","","","","","","","./tasks/HMM-beads/Images/NewTrialWC.png","lowH","1","58","1","1","1","1","true","",""
"image-keyboard-response","312","604193","0.0-3.0-6.0-1.0-1.58","64332b93d1cde024292baf53","6662009ae78f21dd82fcd179","66620d77570836b974b9ecfa","null","","null","","","","","","","","./tasks/HMM-beads/Images/WhiteBeadChoice.png","","","","","","","","","",""
"image-keyboard-response","313","604696","0.0-3.0-6.0-1.0-2.58","64332b93d1cde024292baf53","6662009ae78f21dd82fcd179","66620d77570836b974b9ecfa","null","","null","","","","","","","","./tasks/HMM-beads/Images/WhiteBeadChoiceCorrect.png","","","","","","","","","",""
"image-keyboard-response","314","604886","0.0-3.0-6.0-1.0-0.59","64332b93d1cde024292baf53","6662009ae78f21dd82fcd179","66620d77570836b974b9ecfa","189","","j","","","","","","","","./tasks/HMM-beads/Images/NewTrialWC.png","lowH","1","59","1","0","1","1","false","",""
"image-keyboard-response","315","605192","0.0-3.0-6.0-1.0-1.59","64332b93d1cde024292baf53","6662009ae78f21dd82fcd179","66620d77570836b974b9ecfa","null","","null","","","","","","","","./tasks/HMM-beads/Images/WhiteBeadChoice.png","","","","","","","","","",""
"image-keyboard-response","316","605693","0.0-3.0-6.0-1.0-2.59","64332b93d1cde024292baf53","6662009ae78f21dd82fcd179","66620d77570836b974b9ecfa","null","","null","","","","","","","","./tasks/HMM-beads/Images/WhiteBeadChoiceWrong.png","","","","","","","","","",""
"image-keyboard-response","317","606103","0.0-3.0-6.0-1.0-0.60","64332b93d1cde024292baf53","6662009ae78f21dd82fcd179","66620d77570836b974b9ecfa","409","","f","","","","","","","","./tasks/HMM-beads/Images/NewTrialBC.png","lowH","1","60","1","1","0","0","false","",""
"image-keyboard-response","318","606413","0.0-3.0-6.0-1.0-1.60","64332b93d1cde024292baf53","6662009ae78f21dd82fcd179","66620d77570836b974b9ecfa","null","","null","","","","","","","","./tasks/HMM-beads/Images/BlackBeadChoice.png","","","","","","","","","",""
"image-keyboard-response","319","606929","0.0-3.0-6.0-1.0-2.60","64332b93d1cde024292baf53","6662009ae78f21dd82fcd179","66620d77570836b974b9ecfa","null","","null","","","","","","","","./tasks/HMM-beads/Images/BlackBeadChoiceWrong.png","","","","","","","","","",""
"image-keyboard-response","320","607582","0.0-3.0-6.0-1.0-0.61","64332b93d1cde024292baf53","6662009ae78f21dd82fcd179","66620d77570836b974b9ecfa","652","","j","","","","","","","","./tasks/HMM-beads/Images/NewTrialWC.png","lowH","1","61","1","1","1","1","true","",""
"image-keyboard-response","321","607891","0.0-3.0-6.0-1.0-1.61","64332b93d1cde024292baf53","6662009ae78f21dd82fcd179","66620d77570836b974b9ecfa","null","","null","","","","","","","","./tasks/HMM-beads/Images/WhiteBeadChoice.png","","","","","","","","","",""
"image-keyboard-response","322","608395","0.0-3.0-6.0-1.0-2.61","64332b93d1cde024292baf53","6662009ae78f21dd82fcd179","66620d77570836b974b9ecfa","null","","null","","","","","","","","./tasks/HMM-beads/Images/WhiteBeadChoiceCorrect.png","","","","","","","","","",""
"image-keyboard-response","323","608631","0.0-3.0-6.0-1.0-0.62","64332b93d1cde024292baf53","6662009ae78f21dd82fcd179","66620d77570836b974b9ecfa","235","","j","","","","","","","","./tasks/HMM-beads/Images/NewTrialWC.png","lowH","1","62","1","0","1","1","false","",""
"image-keyboard-response","324","608942","0.0-3.0-6.0-1.0-1.62","64332b93d1cde024292baf53","6662009ae78f21dd82fcd179","66620d77570836b974b9ecfa","null","","null","","","","","","","","./tasks/HMM-beads/Images/WhiteBeadChoice.png","","","","","","","","","",""
"image-keyboard-response","325","609446","0.0-3.0-6.0-1.0-2.62","64332b93d1cde024292baf53","6662009ae78f21dd82fcd179","66620d77570836b974b9ecfa","null","","null","","","","","","","","./tasks/HMM-beads/Images/WhiteBeadChoiceWrong.png","","","","","","","","","",""
"image-keyboard-response","326","610039","0.0-3.0-6.0-1.0-0.63","64332b93d1cde024292baf53","6662009ae78f21dd82fcd179","66620d77570836b974b9ecfa","592","","f","","","","","","","","./tasks/HMM-beads/Images/NewTrialBC.png","lowH","1","63","1","1","0","0","false","",""
"image-keyboard-response","327","610351","0.0-3.0-6.0-1.0-1.63","64332b93d1cde024292baf53","6662009ae78f21dd82fcd179","66620d77570836b974b9ecfa","null","","null","","","","","","","","./tasks/HMM-beads/Images/BlackBeadChoice.png","","","","","","","","","",""
"image-keyboard-response","328","610862","0.0-3.0-6.0-1.0-2.63","64332b93d1cde024292baf53","6662009ae78f21dd82fcd179","66620d77570836b974b9ecfa","null","","null","","","","","","","","./tasks/HMM-beads/Images/BlackBeadChoiceWrong.png","","","","","","","","","",""
"image-keyboard-response","329","611022","0.0-3.0-6.0-1.0-0.64","64332b93d1cde024292baf53","6662009ae78f21dd82fcd179","66620d77570836b974b9ecfa","159","","j","","","","","","","","./tasks/HMM-beads/Images/NewTrialWC.png","lowH","1","64","1","1","1","1","true","",""
"image-keyboard-response","330","611327","0.0-3.0-6.0-1.0-1.64","64332b93d1cde024292baf53","6662009ae78f21dd82fcd179","66620d77570836b974b9ecfa","null","","null","","","","","","","","./tasks/HMM-beads/Images/WhiteBeadChoice.png","","","","","","","","","",""
"image-keyboard-response","331","611843","0.0-3.0-6.0-1.0-2.64","64332b93d1cde024292baf53","6662009ae78f21dd82fcd179","66620d77570836b974b9ecfa","null","","null","","","","","","","","./tasks/HMM-beads/Images/WhiteBeadChoiceCorrect.png","","","","","","","","","",""
"image-keyboard-response","332","612310","0.0-3.0-6.0-1.0-0.65","64332b93d1cde024292baf53","6662009ae78f21dd82fcd179","66620d77570836b974b9ecfa","466","","j","","","","","","","","./tasks/HMM-beads/Images/NewTrialWC.png","lowH","1","65","1","1","1","1","true","",""
"image-keyboard-response","333","612625","0.0-3.0-6.0-1.0-1.65","64332b93d1cde024292baf53","6662009ae78f21dd82fcd179","66620d77570836b974b9ecfa","null","","null","","","","","","","","./tasks/HMM-beads/Images/WhiteBeadChoice.png","","","","","","","","","",""
"image-keyboard-response","334","613135","0.0-3.0-6.0-1.0-2.65","64332b93d1cde024292baf53","6662009ae78f21dd82fcd179","66620d77570836b974b9ecfa","null","","null","","","","","","","","./tasks/HMM-beads/Images/WhiteBeadChoiceCorrect.png","","","","","","","","","",""
"image-keyboard-response","335","613638","0.0-3.0-6.0-1.0-0.66","64332b93d1cde024292baf53","6662009ae78f21dd82fcd179","66620d77570836b974b9ecfa","502","","f","","","","","","","","./tasks/HMM-beads/Images/NewTrialWC.png","lowH","1","66","1","1","1","0","false","",""
"image-keyboard-response","336","613943","0.0-3.0-6.0-1.0-1.66","64332b93d1cde024292baf53","6662009ae78f21dd82fcd179","66620d77570836b974b9ecfa","null","","null","","","","","","","","./tasks/HMM-beads/Images/BlackBeadChoice.png","","","","","","","","","",""
"image-keyboard-response","337","614463","0.0-3.0-6.0-1.0-2.66","64332b93d1cde024292baf53","6662009ae78f21dd82fcd179","66620d77570836b974b9ecfa","null","","null","","","","","","","","./tasks/HMM-beads/Images/BlackBeadChoiceWrong.png","","","","","","","","","",""
"image-keyboard-response","338","614838","0.0-3.0-6.0-1.0-0.67","64332b93d1cde024292baf53","6662009ae78f21dd82fcd179","66620d77570836b974b9ecfa","374","","j","","","","","","","","./tasks/HMM-beads/Images/NewTrialWC.png","lowH","1","67","1","0","1","1","false","",""
"image-keyboard-response","339","615142","0.0-3.0-6.0-1.0-1.67","64332b93d1cde024292baf53","6662009ae78f21dd82fcd179","66620d77570836b974b9ecfa","null","","null","","","","","","","","./tasks/HMM-beads/Images/WhiteBeadChoice.png","","","","","","","","","",""
"image-keyboard-response","340","615654","0.0-3.0-6.0-1.0-2.67","64332b93d1cde024292baf53","6662009ae78f21dd82fcd179","66620d77570836b974b9ecfa","null","","null","","","","","","","","./tasks/HMM-beads/Images/WhiteBeadChoiceWrong.png","","","","","","","","","",""
"image-keyboard-response","341","617055","0.0-3.0-6.0-1.0-0.68","64332b93d1cde024292baf53","6662009ae78f21dd82fcd179","66620d77570836b974b9ecfa","1401","","j","","","","","","","","./tasks/HMM-beads/Images/NewTrialBC.png","lowH","1","68","1","1","0","1","true","",""
"image-keyboard-response","342","617359","0.0-3.0-6.0-1.0-1.68","64332b93d1cde024292baf53","6662009ae78f21dd82fcd179","66620d77570836b974b9ecfa","null","","null","","","","","","","","./tasks/HMM-beads/Images/WhiteBeadChoice.png","","","","","","","","","",""
"image-keyboard-response","343","617868","0.0-3.0-6.0-1.0-2.68","64332b93d1cde024292baf53","6662009ae78f21dd82fcd179","66620d77570836b974b9ecfa","null","","null","","","","","","","","./tasks/HMM-beads/Images/WhiteBeadChoiceCorrect.png","","","","","","","","","",""
"image-keyboard-response","344","618319","0.0-3.0-6.0-1.0-0.69","64332b93d1cde024292baf53","6662009ae78f21dd82fcd179","66620d77570836b974b9ecfa","450","","f","","","","","","","","./tasks/HMM-beads/Images/NewTrialWC.png","lowH","1","69","0","1","1","0","false","",""
"image-keyboard-response","345","618632","0.0-3.0-6.0-1.0-1.69","64332b93d1cde024292baf53","6662009ae78f21dd82fcd179","66620d77570836b974b9ecfa","null","","null","","","","","","","","./tasks/HMM-beads/Images/BlackBeadChoice.png","","","","","","","","","",""
"image-keyboard-response","346","619134","0.0-3.0-6.0-1.0-2.69","64332b93d1cde024292baf53","6662009ae78f21dd82fcd179","66620d77570836b974b9ecfa","null","","null","","","","","","","","./tasks/HMM-beads/Images/BlackBeadChoiceWrong.png","","","","","","","","","",""
"image-keyboard-response","347","619646","0.0-3.0-6.0-1.0-0.70","64332b93d1cde024292baf53","6662009ae78f21dd82fcd179","66620d77570836b974b9ecfa","511","","j","","","","","","","","./tasks/HMM-beads/Images/NewTrialWC.png","lowH","1","70","0","1","1","1","true","",""
"image-keyboard-response","348","619959","0.0-3.0-6.0-1.0-1.70","64332b93d1cde024292baf53","6662009ae78f21dd82fcd179","66620d77570836b974b9ecfa","null","","null","","","","","","","","./tasks/HMM-beads/Images/WhiteBeadChoice.png","","","","","","","","","",""
"image-keyboard-response","349","620461","0.0-3.0-6.0-1.0-2.70","64332b93d1cde024292baf53","6662009ae78f21dd82fcd179","66620d77570836b974b9ecfa","null","","null","","","","","","","","./tasks/HMM-beads/Images/WhiteBeadChoiceCorrect.png","","","","","","","","","",""
"image-keyboard-response","350","620919","0.0-3.0-6.0-1.0-0.71","64332b93d1cde024292baf53","6662009ae78f21dd82fcd179","66620d77570836b974b9ecfa","456","","j","","","","","","","","./tasks/HMM-beads/Images/NewTrialWC.png","lowH","1","71","0","0","1","1","false","",""
"image-keyboard-response","351","621225","0.0-3.0-6.0-1.0-1.71","64332b93d1cde024292baf53","6662009ae78f21dd82fcd179","66620d77570836b974b9ecfa","null","","null","","","","","","","","./tasks/HMM-beads/Images/WhiteBeadChoice.png","","","","","","","","","",""
"image-keyboard-response","352","621735","0.0-3.0-6.0-1.0-2.71","64332b93d1cde024292baf53","6662009ae78f21dd82fcd179","66620d77570836b974b9ecfa","null","","null","","","","","","","","./tasks/HMM-beads/Images/WhiteBeadChoiceWrong.png","","","","","","","","","",""
"image-keyboard-response","353","623191","0.0-3.0-6.0-1.0-0.72","64332b93d1cde024292baf53","6662009ae78f21dd82fcd179","66620d77570836b974b9ecfa","1455","","j","","","","","","","","./tasks/HMM-beads/Images/NewTrialBC.png","lowH","1","72","0","0","0","1","false","",""
"image-keyboard-response","354","623507","0.0-3.0-6.0-1.0-1.72","64332b93d1cde024292baf53","6662009ae78f21dd82fcd179","66620d77570836b974b9ecfa","null","","null","","","","","","","","./tasks/HMM-beads/Images/WhiteBeadChoice.png","","","","","","","","","",""
"image-keyboard-response","355","624010","0.0-3.0-6.0-1.0-2.72","64332b93d1cde024292baf53","6662009ae78f21dd82fcd179","66620d77570836b974b9ecfa","null","","null","","","","","","","","./tasks/HMM-beads/Images/WhiteBeadChoiceWrong.png","","","","","","","","","",""
"image-keyboard-response","356","625064","0.0-3.0-6.0-1.0-0.73","64332b93d1cde024292baf53","6662009ae78f21dd82fcd179","66620d77570836b974b9ecfa","1067","","f","","","","","","","","./tasks/HMM-beads/Images/NewTrialBC.png","lowH","1","73","0","1","0","0","false","",""
"image-keyboard-response","357","625377","0.0-3.0-6.0-1.0-1.73","64332b93d1cde024292baf53","6662009ae78f21dd82fcd179","66620d77570836b974b9ecfa","null","","null","","","","","","","","./tasks/HMM-beads/Images/BlackBeadChoice.png","","","","","","","","","",""
"image-keyboard-response","358","625892","0.0-3.0-6.0-1.0-2.73","64332b93d1cde024292baf53","6662009ae78f21dd82fcd179","66620d77570836b974b9ecfa","null","","null","","","","","","","","./tasks/HMM-beads/Images/BlackBeadChoiceWrong.png","","","","","","","","","",""
"image-keyboard-response","359","626809","0.0-3.0-6.0-1.0-0.74","64332b93d1cde024292baf53","6662009ae78f21dd82fcd179","66620d77570836b974b9ecfa","915","","j","","","","","","","","./tasks/HMM-beads/Images/NewTrialWC.png","lowH","1","74","0","0","1","1","false","",""
"image-keyboard-response","360","627124","0.0-3.0-6.0-1.0-1.74","64332b93d1cde024292baf53","6662009ae78f21dd82fcd179","66620d77570836b974b9ecfa","null","","null","","","","","","","","./tasks/HMM-beads/Images/WhiteBeadChoice.png","","","","","","","","","",""
"image-keyboard-response","361","627639","0.0-3.0-6.0-1.0-2.74","64332b93d1cde024292baf53","6662009ae78f21dd82fcd179","66620d77570836b974b9ecfa","null","","null","","","","","","","","./tasks/HMM-beads/Images/WhiteBeadChoiceWrong.png","","","","","","","","","",""
"image-keyboard-response","362","628073","0.0-3.0-6.0-1.0-0.75","64332b93d1cde024292baf53","6662009ae78f21dd82fcd179","66620d77570836b974b9ecfa","433","","f","","","","","","","","./tasks/HMM-beads/Images/NewTrialBC.png","lowH","1","75","0","1","0","0","false","",""
"image-keyboard-response","363","628393","0.0-3.0-6.0-1.0-1.75","64332b93d1cde024292baf53","6662009ae78f21dd82fcd179","66620d77570836b974b9ecfa","null","","null","","","","","","","","./tasks/HMM-beads/Images/BlackBeadChoice.png","","","","","","","","","",""
"image-keyboard-response","364","628894","0.0-3.0-6.0-1.0-2.75","64332b93d1cde024292baf53","6662009ae78f21dd82fcd179","66620d77570836b974b9ecfa","null","","null","","","","","","","","./tasks/HMM-beads/Images/BlackBeadChoiceWrong.png","","","","","","","","","",""
"image-keyboard-response","365","628993","0.0-3.0-6.0-1.0-0.76","64332b93d1cde024292baf53","6662009ae78f21dd82fcd179","66620d77570836b974b9ecfa","98","","j","","","","","","","","./tasks/HMM-beads/Images/NewTrialWC.png","lowH","1","76","0","1","1","1","true","",""
"image-keyboard-response","366","629300","0.0-3.0-6.0-1.0-1.76","64332b93d1cde024292baf53","6662009ae78f21dd82fcd179","66620d77570836b974b9ecfa","null","","null","","","","","","","","./tasks/HMM-beads/Images/WhiteBeadChoice.png","","","","","","","","","",""
"image-keyboard-response","367","629803","0.0-3.0-6.0-1.0-2.76","64332b93d1cde024292baf53","6662009ae78f21dd82fcd179","66620d77570836b974b9ecfa","null","","null","","","","","","","","./tasks/HMM-beads/Images/WhiteBeadChoiceCorrect.png","","","","","","","","","",""
"image-keyboard-response","368","630041","0.0-3.0-6.0-1.0-0.77","64332b93d1cde024292baf53","6662009ae78f21dd82fcd179","66620d77570836b974b9ecfa","237","","f","","","","","","","","./tasks/HMM-beads/Images/NewTrialWC.png","lowH","1","77","0","0","1","0","true","",""
"image-keyboard-response","369","630343","0.0-3.0-6.0-1.0-1.77","64332b93d1cde024292baf53","6662009ae78f21dd82fcd179","66620d77570836b974b9ecfa","null","","null","","","","","","","","./tasks/HMM-beads/Images/BlackBeadChoice.png","","","","","","","","","",""
"image-keyboard-response","370","630845","0.0-3.0-6.0-1.0-2.77","64332b93d1cde024292baf53","6662009ae78f21dd82fcd179","66620d77570836b974b9ecfa","null","","null","","","","","","","","./tasks/HMM-beads/Images/BlackBeadChoiceCorrect.png","","","","","","","","","",""
"image-keyboard-response","371","631386","0.0-3.0-6.0-1.0-0.78","64332b93d1cde024292baf53","6662009ae78f21dd82fcd179","66620d77570836b974b9ecfa","540","","j","","","","","","","","./tasks/HMM-beads/Images/NewTrialBC.png","lowH","1","78","0","0","0","1","false","",""
"image-keyboard-response","372","631691","0.0-3.0-6.0-1.0-1.78","64332b93d1cde024292baf53","6662009ae78f21dd82fcd179","66620d77570836b974b9ecfa","null","","null","","","","","","","","./tasks/HMM-beads/Images/WhiteBeadChoice.png","","","","","","","","","",""
"image-keyboard-response","373","632197","0.0-3.0-6.0-1.0-2.78","64332b93d1cde024292baf53","6662009ae78f21dd82fcd179","66620d77570836b974b9ecfa","null","","null","","","","","","","","./tasks/HMM-beads/Images/WhiteBeadChoiceWrong.png","","","","","","","","","",""
"image-keyboard-response","374","632985","0.0-3.0-6.0-1.0-0.79","64332b93d1cde024292baf53","6662009ae78f21dd82fcd179","66620d77570836b974b9ecfa","786","","j","","","","","","","","./tasks/HMM-beads/Images/NewTrialBC.png","lowH","1","79","0","0","0","1","false","",""
