"trial_type","trial_index","time_elapsed","internal_node_id","subject_id","study_id","session_id","rt","url","response","question_order","view_history","success","timeout","failed_images","failed_audio","failed_video","stimulus","block","block_rep","trial_number","jar","bead","previous_bead","choice","correct","lowH_score","total_bonus"
"pavlovia","0","1770","0.0-0.0","65cccdae9209d332a4d29bca","6662009ae78f21dd82fcd179","66620b840daabf601f4aa9b6","","","","","","","","","","","","","","","","","","","","",""
"external-html","1","12578","0.0-1.0-0.0","65cccdae9209d332a4d29bca","6662009ae78f21dd82fcd179","66620b840daabf601f4aa9b6","10540","new_consent.html","","","","","","","","","","","","","","","","","","",""
"survey-multi-choice","2","18744","0.0-1.0-1.0","65cccdae9209d332a4d29bca","6662009ae78f21dd82fcd179","66620b840daabf601f4aa9b6","6163","","{""Q0"":""Female"",""Q1"":""Asian""}","[0,1]","","","","","","","","","","","","","","","","",""
"survey-text","3","20524","0.0-1.0-2.0","65cccdae9209d332a4d29bca","6662009ae78f21dd82fcd179","66620b840daabf601f4aa9b6","1777","","{""Q0"":""32""}","","","","","","","","","","","","","","","","","",""
"instructions","4","21806","0.0-2.0","65cccdae9209d332a4d29bca","6662009ae78f21dd82fcd179","66620b840daabf601f4aa9b6","1168","","","","[{""page_index"":0,""viewing_time"":1168}]","","","","","","","","","","","","","","","",""
"preload","5","26823","0.0-3.0-0.0","65cccdae9209d332a4d29bca","6662009ae78f21dd82fcd179","66620b840daabf601f4aa9b6","","","","","","true","false","[]","[]","[]","","","","","","","","","","",""
"instructions","6","84249","0.0-3.0-1.0","65cccdae9209d332a4d29bca","6662009ae78f21dd82fcd179","66620b840daabf601f4aa9b6","57424","","","","[{""page_index"":0,""viewing_time"":2337},{""page_index"":1,""viewing_time"":3800},{""page_index"":2,""viewing_time"":2892},{""page_index"":3,""viewing_time"":800},{""page_index"":4,""viewing_time"":5552},{""page_index"":5,""viewing_time"":3412},{""page_index"":6,""viewing_time"":3832},{""page_index"":7,""viewing_time"":9532},{""page_index"":8,""viewing_time"":4559},{""page_index"":9,""viewing_time"":17514},{""page_index"":10,""viewing_time"":2579},{""page_index"":11,""viewing_time"":615}]","","","","","","","","","","","","","","","",""
"html-button-response","7","88053","0.0-3.0-2.0-0.0-0.0","65cccdae9209d332a4d29bca","6662009ae78f21dd82fcd179","66620b840daabf601f4aa9b6","3803","","1","","","","","","","","<div align=center>Your goal is to predict…?<br><br></div>","","","","","","","","","",""
"html-button-response","8","94237","0.0-3.0-2.0-1.0-0.0","65cccdae9209d332a4d29bca","6662009ae78f21dd82fcd179","66620b840daabf601f4aa9b6","4842","","2","","","","","","","","<div align=center>In the jar with mostly white beads, there are ___% white beads and ___% black beads?<br><br></div>","","","","","","","","","",""
"html-button-response","9","99035","0.0-3.0-2.0-2.0-0.0","65cccdae9209d332a4d29bca","6662009ae78f21dd82fcd179","66620b840daabf601f4aa9b6","3995","","1","","","","","","","","<div align=center>When there is a 1% probability that the jars will switch, the next bead will most likely be drawn from the…<br><br></div>","","","","","","","","","",""
"html-button-response","10","100989","0.0-3.0-2.0-2.1-0.1","65cccdae9209d332a4d29bca","6662009ae78f21dd82fcd179","66620b840daabf601f4aa9b6","482","","0","","","","","","","","<div align=center>When there is a 1% probability that the jars will switch, the next bead will most likely be drawn from the…<br><br></div>","","","","","","","","","",""
"html-button-response","11","106369","0.0-3.0-2.0-3.0-0.0","65cccdae9209d332a4d29bca","6662009ae78f21dd82fcd179","66620b840daabf601f4aa9b6","4362","","0","","","","","","","","<div align=center>When there is a 99% probability that the jars will switch, the next bead will most likely be drawn from the…<br><br></div>","","","","","","","","","",""
"html-button-response","12","107639","0.0-3.0-2.0-3.1-0.1","65cccdae9209d332a4d29bca","6662009ae78f21dd82fcd179","66620b840daabf601f4aa9b6","507","","0","","","","","","","","<div align=center>When there is a 99% probability that the jars will switch, the next bead will most likely be drawn from the…<br><br></div>","","","","","","","","","",""
"html-button-response","13","108829","0.0-3.0-2.0-3.2-0.2","65cccdae9209d332a4d29bca","6662009ae78f21dd82fcd179","66620b840daabf601f4aa9b6","416","","1","","","","","","","","<div align=center>When there is a 99% probability that the jars will switch, the next bead will most likely be drawn from the…<br><br></div>","","","","","","","","","",""
"instructions","14","110891","0.0-3.0-3.0","65cccdae9209d332a4d29bca","6662009ae78f21dd82fcd179","66620b840daabf601f4aa9b6","1469","","","","[{""page_index"":0,""viewing_time"":1469}]","","","","","","","","","","","","","","","",""
"html-keyboard-response","15","117330","0.0-3.0-4.0-0.0","65cccdae9209d332a4d29bca","6662009ae78f21dd82fcd179","66620b840daabf601f4aa9b6","6438",""," ","","","","","","","","<div align=center>In this practice block, there will be a <b>1% chance</b> that the jar on the next trial will be different from the jar on the current trial.<br><br></div>","","","","","","","","","",""
"image-keyboard-response","16","120945","0.0-3.0-4.0-1.0-0.0","65cccdae9209d332a4d29bca","6662009ae78f21dd82fcd179","66620b840daabf601f4aa9b6","3605","","f","","","","","","","","./tasks/HMM-beads/Images/NoChoice.png","practice","0","0","0","0","9","0","true","",""
"image-keyboard-response","17","121259","0.0-3.0-4.0-1.0-1.0","65cccdae9209d332a4d29bca","6662009ae78f21dd82fcd179","66620b840daabf601f4aa9b6","null","","null","","","","","","","","./tasks/HMM-beads/Images/BlackBeadChoice.png","","","","","","","","","",""
"image-keyboard-response","18","121777","0.0-3.0-4.0-1.0-2.0","65cccdae9209d332a4d29bca","6662009ae78f21dd82fcd179","66620b840daabf601f4aa9b6","null","","null","","","","","","","","./tasks/HMM-beads/Images/BlackBeadChoiceCorrect.png","","","","","","","","","",""
"image-keyboard-response","19","123121","0.0-3.0-4.0-1.0-0.1","65cccdae9209d332a4d29bca","6662009ae78f21dd82fcd179","66620b840daabf601f4aa9b6","1333","","f","","","","","","","","./tasks/HMM-beads/Images/NewTrialBC.png","practice","0","1","0","0","0","0","true","",""
"image-keyboard-response","20","123456","0.0-3.0-4.0-1.0-1.1","65cccdae9209d332a4d29bca","6662009ae78f21dd82fcd179","66620b840daabf601f4aa9b6","null","","null","","","","","","","","./tasks/HMM-beads/Images/BlackBeadChoice.png","","","","","","","","","",""
"image-keyboard-response","21","123958","0.0-3.0-4.0-1.0-2.1","65cccdae9209d332a4d29bca","6662009ae78f21dd82fcd179","66620b840daabf601f4aa9b6","null","","null","","","","","","","","./tasks/HMM-beads/Images/BlackBeadChoiceCorrect.png","","","","","","","","","",""
"image-keyboard-response","22","125705","0.0-3.0-4.0-1.0-0.2","65cccdae9209d332a4d29bca","6662009ae78f21dd82fcd179","66620b840daabf601f4aa9b6","1746","","f","","","","","","","","./tasks/HMM-beads/Images/NewTrialBC.png","practice","0","2","0","1","0","0","false","",""
"image-keyboard-response","23","126014","0.0-3.0-4.0-1.0-1.2","65cccdae9209d332a4d29bca","6662009ae78f21dd82fcd179","66620b840daabf601f4aa9b6","null","","null","","","","","","","","./tasks/HMM-beads/Images/BlackBeadChoice.png","","","","","","","","","",""
"image-keyboard-response","24","126531","0.0-3.0-4.0-1.0-2.2","65cccdae9209d332a4d29bca","6662009ae78f21dd82fcd179","66620b840daabf601f4aa9b6","null","","null","","","","","","","","./tasks/HMM-beads/Images/BlackBeadChoiceWrong.png","","","","","","","","","",""
"image-keyboard-response","25","127697","0.0-3.0-4.0-1.0-0.3","65cccdae9209d332a4d29bca","6662009ae78f21dd82fcd179","66620b840daabf601f4aa9b6","1156","","j","","","","","","","","./tasks/HMM-beads/Images/NewTrialWC.png","practice","0","3","0","0","1","1","false","",""
"image-keyboard-response","26","128008","0.0-3.0-4.0-1.0-1.3","65cccdae9209d332a4d29bca","6662009ae78f21dd82fcd179","66620b840daabf601f4aa9b6","null","","null","","","","","","","","./tasks/HMM-beads/Images/WhiteBeadChoice.png","","","","","","","","","",""
"image-keyboard-response","27","128525","0.0-3.0-4.0-1.0-2.3","65cccdae9209d332a4d29bca","6662009ae78f21dd82fcd179","66620b840daabf601f4aa9b6","null","","null","","","","","","","","./tasks/HMM-beads/Images/WhiteBeadChoiceWrong.png","","","","","","","","","",""
"image-keyboard-response","28","129489","0.0-3.0-4.0-1.0-0.4","65cccdae9209d332a4d29bca","6662009ae78f21dd82fcd179","66620b840daabf601f4aa9b6","963","","f","","","","","","","","./tasks/HMM-beads/Images/NewTrialBC.png","practice","0","4","0","0","0","0","true","",""
"image-keyboard-response","29","129796","0.0-3.0-4.0-1.0-1.4","65cccdae9209d332a4d29bca","6662009ae78f21dd82fcd179","66620b840daabf601f4aa9b6","null","","null","","","","","","","","./tasks/HMM-beads/Images/BlackBeadChoice.png","","","","","","","","","",""
"image-keyboard-response","30","130298","0.0-3.0-4.0-1.0-2.4","65cccdae9209d332a4d29bca","6662009ae78f21dd82fcd179","66620b840daabf601f4aa9b6","null","","null","","","","","","","","./tasks/HMM-beads/Images/BlackBeadChoiceCorrect.png","","","","","","","","","",""
"image-keyboard-response","31","130322","0.0-3.0-4.0-1.0-0.5","65cccdae9209d332a4d29bca","6662009ae78f21dd82fcd179","66620b840daabf601f4aa9b6","22","","f","","","","","","","","./tasks/HMM-beads/Images/NewTrialBC.png","practice","0","5","0","1","0","0","false","",""
"image-keyboard-response","32","130628","0.0-3.0-4.0-1.0-1.5","65cccdae9209d332a4d29bca","6662009ae78f21dd82fcd179","66620b840daabf601f4aa9b6","null","","null","","","","","","","","./tasks/HMM-beads/Images/BlackBeadChoice.png","","","","","","","","","",""
"image-keyboard-response","33","131130","0.0-3.0-4.0-1.0-2.5","65cccdae9209d332a4d29bca","6662009ae78f21dd82fcd179","66620b840daabf601f4aa9b6","null","","null","","","","","","","","./tasks/HMM-beads/Images/BlackBeadChoiceWrong.png","","","","","","","","","",""
"image-keyboard-response","34","133136","0.0-3.0-4.0-1.0-0.6","65cccdae9209d332a4d29bca","6662009ae78f21dd82fcd179","66620b840daabf601f4aa9b6","2005","","f","","","","","","","","./tasks/HMM-beads/Images/NewTrialWC.png","practice","0","6","0","0","1","0","true","",""
"image-keyboard-response","35","133452","0.0-3.0-4.0-1.0-1.6","65cccdae9209d332a4d29bca","6662009ae78f21dd82fcd179","66620b840daabf601f4aa9b6","null","","null","","","","","","","","./tasks/HMM-beads/Images/BlackBeadChoice.png","","","","","","","","","",""
"image-keyboard-response","36","133955","0.0-3.0-4.0-1.0-2.6","65cccdae9209d332a4d29bca","6662009ae78f21dd82fcd179","66620b840daabf601f4aa9b6","null","","null","","","","","","","","./tasks/HMM-beads/Images/BlackBeadChoiceCorrect.png","","","","","","","","","",""
"image-keyboard-response","37","133960","0.0-3.0-4.0-1.0-0.7","65cccdae9209d332a4d29bca","6662009ae78f21dd82fcd179","66620b840daabf601f4aa9b6","6","","f","","","","","","","","./tasks/HMM-beads/Images/NewTrialBC.png","practice","0","7","0","0","0","0","true","",""
"image-keyboard-response","38","134270","0.0-3.0-4.0-1.0-1.7","65cccdae9209d332a4d29bca","6662009ae78f21dd82fcd179","66620b840daabf601f4aa9b6","null","","null","","","","","","","","./tasks/HMM-beads/Images/BlackBeadChoice.png","","","","","","","","","",""
"image-keyboard-response","39","134787","0.0-3.0-4.0-1.0-2.7","65cccdae9209d332a4d29bca","6662009ae78f21dd82fcd179","66620b840daabf601f4aa9b6","null","","null","","","","","","","","./tasks/HMM-beads/Images/BlackBeadChoiceCorrect.png","","","","","","","","","",""
"image-keyboard-response","40","135601","0.0-3.0-4.0-1.0-0.8","65cccdae9209d332a4d29bca","6662009ae78f21dd82fcd179","66620b840daabf601f4aa9b6","813","","f","","","","","","","","./tasks/HMM-beads/Images/NewTrialBC.png","practice","0","8","0","0","0","0","true","",""
"image-keyboard-response","41","135903","0.0-3.0-4.0-1.0-1.8","65cccdae9209d332a4d29bca","6662009ae78f21dd82fcd179","66620b840daabf601f4aa9b6","null","","null","","","","","","","","./tasks/HMM-beads/Images/BlackBeadChoice.png","","","","","","","","","",""
"image-keyboard-response","42","136418","0.0-3.0-4.0-1.0-2.8","65cccdae9209d332a4d29bca","6662009ae78f21dd82fcd179","66620b840daabf601f4aa9b6","null","","null","","","","","","","","./tasks/HMM-beads/Images/BlackBeadChoiceCorrect.png","","","","","","","","","",""
"image-keyboard-response","43","136945","0.0-3.0-4.0-1.0-0.9","65cccdae9209d332a4d29bca","6662009ae78f21dd82fcd179","66620b840daabf601f4aa9b6","524","","f","","","","","","","","./tasks/HMM-beads/Images/NewTrialBC.png","practice","0","9","0","1","0","0","false","",""
"image-keyboard-response","44","137249","0.0-3.0-4.0-1.0-1.9","65cccdae9209d332a4d29bca","6662009ae78f21dd82fcd179","66620b840daabf601f4aa9b6","null","","null","","","","","","","","./tasks/HMM-beads/Images/BlackBeadChoice.png","","","","","","","","","",""
"image-keyboard-response","45","137753","0.0-3.0-4.0-1.0-2.9","65cccdae9209d332a4d29bca","6662009ae78f21dd82fcd179","66620b840daabf601f4aa9b6","null","","null","","","","","","","","./tasks/HMM-beads/Images/BlackBeadChoiceWrong.png","","","","","","","","","",""
"image-keyboard-response","46","138218","0.0-3.0-4.0-1.0-0.10","65cccdae9209d332a4d29bca","6662009ae78f21dd82fcd179","66620b840daabf601f4aa9b6","462","","j","","","","","","","","./tasks/HMM-beads/Images/NewTrialWC.png","practice","0","10","0","0","1","1","false","",""
"image-keyboard-response","47","138522","0.0-3.0-4.0-1.0-1.10","65cccdae9209d332a4d29bca","6662009ae78f21dd82fcd179","66620b840daabf601f4aa9b6","null","","null","","","","","","","","./tasks/HMM-beads/Images/WhiteBeadChoice.png","","","","","","","","","",""
"image-keyboard-response","48","139025","0.0-3.0-4.0-1.0-2.10","65cccdae9209d332a4d29bca","6662009ae78f21dd82fcd179","66620b840daabf601f4aa9b6","null","","null","","","","","","","","./tasks/HMM-beads/Images/WhiteBeadChoiceWrong.png","","","","","","","","","",""
"image-keyboard-response","49","139177","0.0-3.0-4.0-1.0-0.11","65cccdae9209d332a4d29bca","6662009ae78f21dd82fcd179","66620b840daabf601f4aa9b6","151","","f","","","","","","","","./tasks/HMM-beads/Images/NewTrialBC.png","practice","0","11","0","1","0","0","false","",""
"image-keyboard-response","50","139479","0.0-3.0-4.0-1.0-1.11","65cccdae9209d332a4d29bca","6662009ae78f21dd82fcd179","66620b840daabf601f4aa9b6","null","","null","","","","","","","","./tasks/HMM-beads/Images/BlackBeadChoice.png","","","","","","","","","",""
"image-keyboard-response","51","139980","0.0-3.0-4.0-1.0-2.11","65cccdae9209d332a4d29bca","6662009ae78f21dd82fcd179","66620b840daabf601f4aa9b6","null","","null","","","","","","","","./tasks/HMM-beads/Images/BlackBeadChoiceWrong.png","","","","","","","","","",""
"image-keyboard-response","52","140473","0.0-3.0-4.0-1.0-0.12","65cccdae9209d332a4d29bca","6662009ae78f21dd82fcd179","66620b840daabf601f4aa9b6","490","","f","","","","","","","","./tasks/HMM-beads/Images/NewTrialWC.png","practice","0","12","0","0","1","0","true","",""
"image-keyboard-response","53","140784","0.0-3.0-4.0-1.0-1.12","65cccdae9209d332a4d29bca","6662009ae78f21dd82fcd179","66620b840daabf601f4aa9b6","null","","null","","","","","","","","./tasks/HMM-beads/Images/BlackBeadChoice.png","","","","","","","","","",""
"image-keyboard-response","54","141345","0.0-3.0-4.0-1.0-2.12","65cccdae9209d332a4d29bca","6662009ae78f21dd82fcd179","66620b840daabf601f4aa9b6","null","","null","","","","","","","","./tasks/HMM-beads/Images/BlackBeadChoiceCorrect.png","","","","","","","","","",""
"image-keyboard-response","55","141841","0.0-3.0-4.0-1.0-0.13","65cccdae9209d332a4d29bca","6662009ae78f21dd82fcd179","66620b840daabf601f4aa9b6","495","","f","","","","","","","","./tasks/HMM-beads/Images/NewTrialBC.png","practice","0","13","0","0","0","0","true","",""
"image-keyboard-response","56","142146","0.0-3.0-4.0-1.0-1.13","65cccdae9209d332a4d29bca","6662009ae78f21dd82fcd179","66620b840daabf601f4aa9b6","null","","null","","","","","","","","./tasks/HMM-beads/Images/BlackBeadChoice.png","","","","","","","","","",""
"image-keyboard-response","57","142665","0.0-3.0-4.0-1.0-2.13","65cccdae9209d332a4d29bca","6662009ae78f21dd82fcd179","66620b840daabf601f4aa9b6","null","","null","","","","","","","","./tasks/HMM-beads/Images/BlackBeadChoiceCorrect.png","","","","","","","","","",""
"image-keyboard-response","58","143842","0.0-3.0-4.0-1.0-0.14","65cccdae9209d332a4d29bca","6662009ae78f21dd82fcd179","66620b840daabf601f4aa9b6","1175","","f","","","","","","","","./tasks/HMM-beads/Images/NewTrialBC.png","practice","0","14","0","0","0","0","true","",""
"image-keyboard-response","59","144154","0.0-3.0-4.0-1.0-1.14","65cccdae9209d332a4d29bca","6662009ae78f21dd82fcd179","66620b840daabf601f4aa9b6","null","","null","","","","","","","","./tasks/HMM-beads/Images/BlackBeadChoice.png","","","","","","","","","",""
"image-keyboard-response","60","144689","0.0-3.0-4.0-1.0-2.14","65cccdae9209d332a4d29bca","6662009ae78f21dd82fcd179","66620b840daabf601f4aa9b6","null","","null","","","","","","","","./tasks/HMM-beads/Images/BlackBeadChoiceCorrect.png","","","","","","","","","",""
"image-keyboard-response","61","145120","0.0-3.0-4.0-1.0-0.15","65cccdae9209d332a4d29bca","6662009ae78f21dd82fcd179","66620b840daabf601f4aa9b6","430","","f","","","","","","","","./tasks/HMM-beads/Images/NewTrialBC.png","practice","0","15","0","0","0","0","true","",""
"image-keyboard-response","62","145428","0.0-3.0-4.0-1.0-1.15","65cccdae9209d332a4d29bca","6662009ae78f21dd82fcd179","66620b840daabf601f4aa9b6","null","","null","","","","","","","","./tasks/HMM-beads/Images/BlackBeadChoice.png","","","","","","","","","",""
"image-keyboard-response","63","145929","0.0-3.0-4.0-1.0-2.15","65cccdae9209d332a4d29bca","6662009ae78f21dd82fcd179","66620b840daabf601f4aa9b6","null","","null","","","","","","","","./tasks/HMM-beads/Images/BlackBeadChoiceCorrect.png","","","","","","","","","",""
"image-keyboard-response","64","146105","0.0-3.0-4.0-1.0-0.16","65cccdae9209d332a4d29bca","6662009ae78f21dd82fcd179","66620b840daabf601f4aa9b6","176","","f","","","","","","","","./tasks/HMM-beads/Images/NewTrialBC.png","practice","0","16","0","0","0","0","true","",""
"image-keyboard-response","65","146414","0.0-3.0-4.0-1.0-1.16","65cccdae9209d332a4d29bca","6662009ae78f21dd82fcd179","66620b840daabf601f4aa9b6","null","","null","","","","","","","","./tasks/HMM-beads/Images/BlackBeadChoice.png","","","","","","","","","",""
"image-keyboard-response","66","146918","0.0-3.0-4.0-1.0-2.16","65cccdae9209d332a4d29bca","6662009ae78f21dd82fcd179","66620b840daabf601f4aa9b6","null","","null","","","","","","","","./tasks/HMM-beads/Images/BlackBeadChoiceCorrect.png","","","","","","","","","",""
"image-keyboard-response","67","147609","0.0-3.0-4.0-1.0-0.17","65cccdae9209d332a4d29bca","6662009ae78f21dd82fcd179","66620b840daabf601f4aa9b6","690","","f","","","","","","","","./tasks/HMM-beads/Images/NewTrialBC.png","practice","0","17","0","0","0","0","true","",""
"image-keyboard-response","68","147923","0.0-3.0-4.0-1.0-1.17","65cccdae9209d332a4d29bca","6662009ae78f21dd82fcd179","66620b840daabf601f4aa9b6","null","","null","","","","","","","","./tasks/HMM-beads/Images/BlackBeadChoice.png","","","","","","","","","",""
"image-keyboard-response","69","148440","0.0-3.0-4.0-1.0-2.17","65cccdae9209d332a4d29bca","6662009ae78f21dd82fcd179","66620b840daabf601f4aa9b6","null","","null","","","","","","","","./tasks/HMM-beads/Images/BlackBeadChoiceCorrect.png","","","","","","","","","",""
"image-keyboard-response","70","148577","0.0-3.0-4.0-1.0-0.18","65cccdae9209d332a4d29bca","6662009ae78f21dd82fcd179","66620b840daabf601f4aa9b6","136","","f","","","","","","","","./tasks/HMM-beads/Images/NewTrialBC.png","practice","0","18","0","1","0","0","false","",""
"image-keyboard-response","71","148893","0.0-3.0-4.0-1.0-1.18","65cccdae9209d332a4d29bca","6662009ae78f21dd82fcd179","66620b840daabf601f4aa9b6","null","","null","","","","","","","","./tasks/HMM-beads/Images/BlackBeadChoice.png","","","","","","","","","",""
"image-keyboard-response","72","149396","0.0-3.0-4.0-1.0-2.18","65cccdae9209d332a4d29bca","6662009ae78f21dd82fcd179","66620b840daabf601f4aa9b6","null","","null","","","","","","","","./tasks/HMM-beads/Images/BlackBeadChoiceWrong.png","","","","","","","","","",""
"image-keyboard-response","73","150073","0.0-3.0-4.0-1.0-0.19","65cccdae9209d332a4d29bca","6662009ae78f21dd82fcd179","66620b840daabf601f4aa9b6","676","","f","","","","","","","","./tasks/HMM-beads/Images/NewTrialWC.png","practice","0","19","0","0","1","0","true","",""
"image-keyboard-response","74","150387","0.0-3.0-4.0-1.0-1.19","65cccdae9209d332a4d29bca","6662009ae78f21dd82fcd179","66620b840daabf601f4aa9b6","null","","null","","","","","","","","./tasks/HMM-beads/Images/BlackBeadChoice.png","","","","","","","","","",""
"image-keyboard-response","75","150903","0.0-3.0-4.0-1.0-2.19","65cccdae9209d332a4d29bca","6662009ae78f21dd82fcd179","66620b840daabf601f4aa9b6","null","","null","","","","","","","","./tasks/HMM-beads/Images/BlackBeadChoiceCorrect.png","","","","","","","","","",""
"image-keyboard-response","76","151232","0.0-3.0-4.0-1.0-0.20","65cccdae9209d332a4d29bca","6662009ae78f21dd82fcd179","66620b840daabf601f4aa9b6","327","","j","","","","","","","","./tasks/HMM-beads/Images/NewTrialBC.png","practice","0","20","0","0","0","1","false","",""
"image-keyboard-response","77","151564","0.0-3.0-4.0-1.0-1.20","65cccdae9209d332a4d29bca","6662009ae78f21dd82fcd179","66620b840daabf601f4aa9b6","null","","null","","","","","","","","./tasks/HMM-beads/Images/WhiteBeadChoice.png","","","","","","","","","",""
"image-keyboard-response","78","152080","0.0-3.0-4.0-1.0-2.20","65cccdae9209d332a4d29bca","6662009ae78f21dd82fcd179","66620b840daabf601f4aa9b6","null","","null","","","","","","","","./tasks/HMM-beads/Images/WhiteBeadChoiceWrong.png","","","","","","","","","",""
"image-keyboard-response","79","152377","0.0-3.0-4.0-1.0-0.21","65cccdae9209d332a4d29bca","6662009ae78f21dd82fcd179","66620b840daabf601f4aa9b6","297","","f","","","","","","","","./tasks/HMM-beads/Images/NewTrialBC.png","practice","0","21","0","1","0","0","false","",""
"image-keyboard-response","80","152693","0.0-3.0-4.0-1.0-1.21","65cccdae9209d332a4d29bca","6662009ae78f21dd82fcd179","66620b840daabf601f4aa9b6","null","","null","","","","","","","","./tasks/HMM-beads/Images/BlackBeadChoice.png","","","","","","","","","",""
"image-keyboard-response","81","153198","0.0-3.0-4.0-1.0-2.21","65cccdae9209d332a4d29bca","6662009ae78f21dd82fcd179","66620b840daabf601f4aa9b6","null","","null","","","","","","","","./tasks/HMM-beads/Images/BlackBeadChoiceWrong.png","","","","","","","","","",""
"image-keyboard-response","82","153521","0.0-3.0-4.0-1.0-0.22","65cccdae9209d332a4d29bca","6662009ae78f21dd82fcd179","66620b840daabf601f4aa9b6","323","","f","","","","","","","","./tasks/HMM-beads/Images/NewTrialWC.png","practice","0","22","1","1","1","0","false","",""
"image-keyboard-response","83","153824","0.0-3.0-4.0-1.0-1.22","65cccdae9209d332a4d29bca","6662009ae78f21dd82fcd179","66620b840daabf601f4aa9b6","null","","null","","","","","","","","./tasks/HMM-beads/Images/BlackBeadChoice.png","","","","","","","","","",""
"image-keyboard-response","84","154326","0.0-3.0-4.0-1.0-2.22","65cccdae9209d332a4d29bca","6662009ae78f21dd82fcd179","66620b840daabf601f4aa9b6","null","","null","","","","","","","","./tasks/HMM-beads/Images/BlackBeadChoiceWrong.png","","","","","","","","","",""
"image-keyboard-response","85","154570","0.0-3.0-4.0-1.0-0.23","65cccdae9209d332a4d29bca","6662009ae78f21dd82fcd179","66620b840daabf601f4aa9b6","243","","f","","","","","","","","./tasks/HMM-beads/Images/NewTrialWC.png","practice","0","23","1","0","1","0","true","",""
"image-keyboard-response","86","154875","0.0-3.0-4.0-1.0-1.23","65cccdae9209d332a4d29bca","6662009ae78f21dd82fcd179","66620b840daabf601f4aa9b6","null","","null","","","","","","","","./tasks/HMM-beads/Images/BlackBeadChoice.png","","","","","","","","","",""
"image-keyboard-response","87","155377","0.0-3.0-4.0-1.0-2.23","65cccdae9209d332a4d29bca","6662009ae78f21dd82fcd179","66620b840daabf601f4aa9b6","null","","null","","","","","","","","./tasks/HMM-beads/Images/BlackBeadChoiceCorrect.png","","","","","","","","","",""
"image-keyboard-response","88","155626","0.0-3.0-4.0-1.0-0.24","65cccdae9209d332a4d29bca","6662009ae78f21dd82fcd179","66620b840daabf601f4aa9b6","248","","f","","","","","","","","./tasks/HMM-beads/Images/NewTrialBC.png","practice","0","24","1","1","0","0","false","",""
"image-keyboard-response","89","155941","0.0-3.0-4.0-1.0-1.24","65cccdae9209d332a4d29bca","6662009ae78f21dd82fcd179","66620b840daabf601f4aa9b6","null","","null","","","","","","","","./tasks/HMM-beads/Images/BlackBeadChoice.png","","","","","","","","","",""
"image-keyboard-response","90","156458","0.0-3.0-4.0-1.0-2.24","65cccdae9209d332a4d29bca","6662009ae78f21dd82fcd179","66620b840daabf601f4aa9b6","null","","null","","","","","","","","./tasks/HMM-beads/Images/BlackBeadChoiceWrong.png","","","","","","","","","",""
"image-keyboard-response","91","156969","0.0-3.0-4.0-1.0-0.25","65cccdae9209d332a4d29bca","6662009ae78f21dd82fcd179","66620b840daabf601f4aa9b6","511","","j","","","","","","","","./tasks/HMM-beads/Images/NewTrialWC.png","practice","0","25","1","1","1","1","true","",""
"image-keyboard-response","92","157274","0.0-3.0-4.0-1.0-1.25","65cccdae9209d332a4d29bca","6662009ae78f21dd82fcd179","66620b840daabf601f4aa9b6","null","","null","","","","","","","","./tasks/HMM-beads/Images/WhiteBeadChoice.png","","","","","","","","","",""
"image-keyboard-response","93","157806","0.0-3.0-4.0-1.0-2.25","65cccdae9209d332a4d29bca","6662009ae78f21dd82fcd179","66620b840daabf601f4aa9b6","null","","null","","","","","","","","./tasks/HMM-beads/Images/WhiteBeadChoiceCorrect.png","","","","","","","","","",""
"image-keyboard-response","94","158578","0.0-3.0-4.0-1.0-0.26","65cccdae9209d332a4d29bca","6662009ae78f21dd82fcd179","66620b840daabf601f4aa9b6","769","","f","","","","","","","","./tasks/HMM-beads/Images/NewTrialWC.png","practice","0","26","1","1","1","0","false","",""
"image-keyboard-response","95","158891","0.0-3.0-4.0-1.0-1.26","65cccdae9209d332a4d29bca","6662009ae78f21dd82fcd179","66620b840daabf601f4aa9b6","null","","null","","","","","","","","./tasks/HMM-beads/Images/BlackBeadChoice.png","","","","","","","","","",""
"image-keyboard-response","96","159393","0.0-3.0-4.0-1.0-2.26","65cccdae9209d332a4d29bca","6662009ae78f21dd82fcd179","66620b840daabf601f4aa9b6","null","","null","","","","","","","","./tasks/HMM-beads/Images/BlackBeadChoiceWrong.png","","","","","","","","","",""
"image-keyboard-response","97","160377","0.0-3.0-4.0-1.0-0.27","65cccdae9209d332a4d29bca","6662009ae78f21dd82fcd179","66620b840daabf601f4aa9b6","982","","f","","","","","","","","./tasks/HMM-beads/Images/NewTrialWC.png","practice","0","27","1","1","1","0","false","",""
"image-keyboard-response","98","160681","0.0-3.0-4.0-1.0-1.27","65cccdae9209d332a4d29bca","6662009ae78f21dd82fcd179","66620b840daabf601f4aa9b6","null","","null","","","","","","","","./tasks/HMM-beads/Images/BlackBeadChoice.png","","","","","","","","","",""
"image-keyboard-response","99","161182","0.0-3.0-4.0-1.0-2.27","65cccdae9209d332a4d29bca","6662009ae78f21dd82fcd179","66620b840daabf601f4aa9b6","null","","null","","","","","","","","./tasks/HMM-beads/Images/BlackBeadChoiceWrong.png","","","","","","","","","",""
"image-keyboard-response","100","161416","0.0-3.0-4.0-1.0-0.28","65cccdae9209d332a4d29bca","6662009ae78f21dd82fcd179","66620b840daabf601f4aa9b6","233","","f","","","","","","","","./tasks/HMM-beads/Images/NewTrialWC.png","practice","0","28","1","0","1","0","true","",""
"image-keyboard-response","101","161731","0.0-3.0-4.0-1.0-1.28","65cccdae9209d332a4d29bca","6662009ae78f21dd82fcd179","66620b840daabf601f4aa9b6","null","","null","","","","","","","","./tasks/HMM-beads/Images/BlackBeadChoice.png","","","","","","","","","",""
"image-keyboard-response","102","162233","0.0-3.0-4.0-1.0-2.28","65cccdae9209d332a4d29bca","6662009ae78f21dd82fcd179","66620b840daabf601f4aa9b6","null","","null","","","","","","","","./tasks/HMM-beads/Images/BlackBeadChoiceCorrect.png","","","","","","","","","",""
"image-keyboard-response","103","162777","0.0-3.0-4.0-1.0-0.29","65cccdae9209d332a4d29bca","6662009ae78f21dd82fcd179","66620b840daabf601f4aa9b6","542","","f","","","","","","","","./tasks/HMM-beads/Images/NewTrialBC.png","practice","0","29","1","1","0","0","false","",""
"image-keyboard-response","104","163080","0.0-3.0-4.0-1.0-1.29","65cccdae9209d332a4d29bca","6662009ae78f21dd82fcd179","66620b840daabf601f4aa9b6","null","","null","","","","","","","","./tasks/HMM-beads/Images/BlackBeadChoice.png","","","","","","","","","",""
"image-keyboard-response","105","163597","0.0-3.0-4.0-1.0-2.29","65cccdae9209d332a4d29bca","6662009ae78f21dd82fcd179","66620b840daabf601f4aa9b6","null","","null","","","","","","","","./tasks/HMM-beads/Images/BlackBeadChoiceWrong.png","","","","","","","","","",""
"image-keyboard-response","106","163905","0.0-3.0-4.0-1.0-0.30","65cccdae9209d332a4d29bca","6662009ae78f21dd82fcd179","66620b840daabf601f4aa9b6","305","","j","","","","","","","","./tasks/HMM-beads/Images/NewTrialWC.png","practice","0","30","1","0","1","1","false","",""
"image-keyboard-response","107","164210","0.0-3.0-4.0-1.0-1.30","65cccdae9209d332a4d29bca","6662009ae78f21dd82fcd179","66620b840daabf601f4aa9b6","null","","null","","","","","","","","./tasks/HMM-beads/Images/WhiteBeadChoice.png","","","","","","","","","",""
"image-keyboard-response","108","164713","0.0-3.0-4.0-1.0-2.30","65cccdae9209d332a4d29bca","6662009ae78f21dd82fcd179","66620b840daabf601f4aa9b6","null","","null","","","","","","","","./tasks/HMM-beads/Images/WhiteBeadChoiceWrong.png","","","","","","","","","",""
"image-keyboard-response","109","164794","0.0-3.0-4.0-1.0-0.31","65cccdae9209d332a4d29bca","6662009ae78f21dd82fcd179","66620b840daabf601f4aa9b6","80","","f","","","","","","","","./tasks/HMM-beads/Images/NewTrialBC.png","practice","0","31","1","1","0","0","false","",""
"image-keyboard-response","110","165106","0.0-3.0-4.0-1.0-1.31","65cccdae9209d332a4d29bca","6662009ae78f21dd82fcd179","66620b840daabf601f4aa9b6","null","","null","","","","","","","","./tasks/HMM-beads/Images/BlackBeadChoice.png","","","","","","","","","",""
"image-keyboard-response","111","165607","0.0-3.0-4.0-1.0-2.31","65cccdae9209d332a4d29bca","6662009ae78f21dd82fcd179","66620b840daabf601f4aa9b6","null","","null","","","","","","","","./tasks/HMM-beads/Images/BlackBeadChoiceWrong.png","","","","","","","","","",""
"image-keyboard-response","112","166106","0.0-3.0-4.0-1.0-0.32","65cccdae9209d332a4d29bca","6662009ae78f21dd82fcd179","66620b840daabf601f4aa9b6","496","","j","","","","","","","","./tasks/HMM-beads/Images/NewTrialWC.png","practice","0","32","1","1","1","1","true","",""
"image-keyboard-response","113","166407","0.0-3.0-4.0-1.0-1.32","65cccdae9209d332a4d29bca","6662009ae78f21dd82fcd179","66620b840daabf601f4aa9b6","null","","null","","","","","","","","./tasks/HMM-beads/Images/WhiteBeadChoice.png","","","","","","","","","",""
"image-keyboard-response","114","166910","0.0-3.0-4.0-1.0-2.32","65cccdae9209d332a4d29bca","6662009ae78f21dd82fcd179","66620b840daabf601f4aa9b6","null","","null","","","","","","","","./tasks/HMM-beads/Images/WhiteBeadChoiceCorrect.png","","","","","","","","","",""
"image-keyboard-response","115","167097","0.0-3.0-4.0-1.0-0.33","65cccdae9209d332a4d29bca","6662009ae78f21dd82fcd179","66620b840daabf601f4aa9b6","184","","j","","","","","","","","./tasks/HMM-beads/Images/NewTrialWC.png","practice","0","33","1","1","1","1","true","",""
"image-keyboard-response","116","167412","0.0-3.0-4.0-1.0-1.33","65cccdae9209d332a4d29bca","6662009ae78f21dd82fcd179","66620b840daabf601f4aa9b6","null","","null","","","","","","","","./tasks/HMM-beads/Images/WhiteBeadChoice.png","","","","","","","","","",""
"image-keyboard-response","117","167913","0.0-3.0-4.0-1.0-2.33","65cccdae9209d332a4d29bca","6662009ae78f21dd82fcd179","66620b840daabf601f4aa9b6","null","","null","","","","","","","","./tasks/HMM-beads/Images/WhiteBeadChoiceCorrect.png","","","","","","","","","",""
"image-keyboard-response","118","168354","0.0-3.0-4.0-1.0-0.34","65cccdae9209d332a4d29bca","6662009ae78f21dd82fcd179","66620b840daabf601f4aa9b6","439","","j","","","","","","","","./tasks/HMM-beads/Images/NewTrialWC.png","practice","0","34","1","1","1","1","true","",""
"image-keyboard-response","119","168668","0.0-3.0-4.0-1.0-1.34","65cccdae9209d332a4d29bca","6662009ae78f21dd82fcd179","66620b840daabf601f4aa9b6","null","","null","","","","","","","","./tasks/HMM-beads/Images/WhiteBeadChoice.png","","","","","","","","","",""
"image-keyboard-response","120","169169","0.0-3.0-4.0-1.0-2.34","65cccdae9209d332a4d29bca","6662009ae78f21dd82fcd179","66620b840daabf601f4aa9b6","null","","null","","","","","","","","./tasks/HMM-beads/Images/WhiteBeadChoiceCorrect.png","","","","","","","","","",""
"image-keyboard-response","121","169385","0.0-3.0-4.0-1.0-0.35","65cccdae9209d332a4d29bca","6662009ae78f21dd82fcd179","66620b840daabf601f4aa9b6","215","","j","","","","","","","","./tasks/HMM-beads/Images/NewTrialWC.png","practice","0","35","1","1","1","1","true","",""
"image-keyboard-response","122","169689","0.0-3.0-4.0-1.0-1.35","65cccdae9209d332a4d29bca","6662009ae78f21dd82fcd179","66620b840daabf601f4aa9b6","null","","null","","","","","","","","./tasks/HMM-beads/Images/WhiteBeadChoice.png","","","","","","","","","",""
"image-keyboard-response","123","170205","0.0-3.0-4.0-1.0-2.35","65cccdae9209d332a4d29bca","6662009ae78f21dd82fcd179","66620b840daabf601f4aa9b6","null","","null","","","","","","","","./tasks/HMM-beads/Images/WhiteBeadChoiceCorrect.png","","","","","","","","","",""
"image-keyboard-response","124","170433","0.0-3.0-4.0-1.0-0.36","65cccdae9209d332a4d29bca","6662009ae78f21dd82fcd179","66620b840daabf601f4aa9b6","227","","j","","","","","","","","./tasks/HMM-beads/Images/NewTrialWC.png","practice","0","36","1","0","1","1","false","",""
"image-keyboard-response","125","170739","0.0-3.0-4.0-1.0-1.36","65cccdae9209d332a4d29bca","6662009ae78f21dd82fcd179","66620b840daabf601f4aa9b6","null","","null","","","","","","","","./tasks/HMM-beads/Images/WhiteBeadChoice.png","","","","","","","","","",""
"image-keyboard-response","126","171241","0.0-3.0-4.0-1.0-2.36","65cccdae9209d332a4d29bca","6662009ae78f21dd82fcd179","66620b840daabf601f4aa9b6","null","","null","","","","","","","","./tasks/HMM-beads/Images/WhiteBeadChoiceWrong.png","","","","","","","","","",""
"image-keyboard-response","127","171569","0.0-3.0-4.0-1.0-0.37","65cccdae9209d332a4d29bca","6662009ae78f21dd82fcd179","66620b840daabf601f4aa9b6","324","","j","","","","","","","","./tasks/HMM-beads/Images/NewTrialBC.png","practice","0","37","1","1","0","1","true","",""
"image-keyboard-response","128","171871","0.0-3.0-4.0-1.0-1.37","65cccdae9209d332a4d29bca","6662009ae78f21dd82fcd179","66620b840daabf601f4aa9b6","null","","null","","","","","","","","./tasks/HMM-beads/Images/WhiteBeadChoice.png","","","","","","","","","",""
"image-keyboard-response","129","172387","0.0-3.0-4.0-1.0-2.37","65cccdae9209d332a4d29bca","6662009ae78f21dd82fcd179","66620b840daabf601f4aa9b6","null","","null","","","","","","","","./tasks/HMM-beads/Images/WhiteBeadChoiceCorrect.png","","","","","","","","","",""
"image-keyboard-response","130","172553","0.0-3.0-4.0-1.0-0.38","65cccdae9209d332a4d29bca","6662009ae78f21dd82fcd179","66620b840daabf601f4aa9b6","164","","j","","","","","","","","./tasks/HMM-beads/Images/NewTrialWC.png","practice","0","38","1","1","1","1","true","",""
"image-keyboard-response","131","172857","0.0-3.0-4.0-1.0-1.38","65cccdae9209d332a4d29bca","6662009ae78f21dd82fcd179","66620b840daabf601f4aa9b6","null","","null","","","","","","","","./tasks/HMM-beads/Images/WhiteBeadChoice.png","","","","","","","","","",""
"image-keyboard-response","132","173359","0.0-3.0-4.0-1.0-2.38","65cccdae9209d332a4d29bca","6662009ae78f21dd82fcd179","66620b840daabf601f4aa9b6","null","","null","","","","","","","","./tasks/HMM-beads/Images/WhiteBeadChoiceCorrect.png","","","","","","","","","",""
"image-keyboard-response","133","173464","0.0-3.0-4.0-1.0-0.39","65cccdae9209d332a4d29bca","6662009ae78f21dd82fcd179","66620b840daabf601f4aa9b6","105","","j","","","","","","","","./tasks/HMM-beads/Images/NewTrialWC.png","practice","0","39","1","1","1","1","true","",""
"image-keyboard-response","134","173768","0.0-3.0-4.0-1.0-1.39","65cccdae9209d332a4d29bca","6662009ae78f21dd82fcd179","66620b840daabf601f4aa9b6","null","","null","","","","","","","","./tasks/HMM-beads/Images/WhiteBeadChoice.png","","","","","","","","","",""
"image-keyboard-response","135","174270","0.0-3.0-4.0-1.0-2.39","65cccdae9209d332a4d29bca","6662009ae78f21dd82fcd179","66620b840daabf601f4aa9b6","null","","null","","","","","","","","./tasks/HMM-beads/Images/WhiteBeadChoiceCorrect.png","","","","","","","","","",""
"html-keyboard-response","136","177186","0.0-3.0-4.0-2.0","65cccdae9209d332a4d29bca","6662009ae78f21dd82fcd179","66620b840daabf601f4aa9b6","2916",""," ","","","","","","","","","","","","","","","","","",""
"instructions","137","182210","0.0-3.0-5.0","65cccdae9209d332a4d29bca","6662009ae78f21dd82fcd179","66620b840daabf601f4aa9b6","5021","","","","[{""page_index"":0,""viewing_time"":3065},{""page_index"":1,""viewing_time"":1956}]","","","","","","","","","","","","","","","",""
"html-keyboard-response","138","186393","0.0-3.0-6.0-0.0","65cccdae9209d332a4d29bca","6662009ae78f21dd82fcd179","66620b840daabf601f4aa9b6","4182",""," ","","","","","","","","<div align=center>In this block, there will be a <b>1% chance</b> that the jar on the next trial will be different from the jar on the current trial.<br><br></div>","","","","","","","","","",""
"image-keyboard-response","139","189690","0.0-3.0-6.0-1.0-0.0","65cccdae9209d332a4d29bca","6662009ae78f21dd82fcd179","66620b840daabf601f4aa9b6","3295","","f","","","","","","","","./tasks/HMM-beads/Images/NoChoice.png","lowH","1","0","1","0","9","0","true","",""
"image-keyboard-response","140","189994","0.0-3.0-6.0-1.0-1.0","65cccdae9209d332a4d29bca","6662009ae78f21dd82fcd179","66620b840daabf601f4aa9b6","null","","null","","","","","","","","./tasks/HMM-beads/Images/BlackBeadChoice.png","","","","","","","","","",""
"image-keyboard-response","141","190497","0.0-3.0-6.0-1.0-2.0","65cccdae9209d332a4d29bca","6662009ae78f21dd82fcd179","66620b840daabf601f4aa9b6","null","","null","","","","","","","","./tasks/HMM-beads/Images/BlackBeadChoiceCorrect.png","","","","","","","","","",""
"image-keyboard-response","142","191313","0.0-3.0-6.0-1.0-0.1","65cccdae9209d332a4d29bca","6662009ae78f21dd82fcd179","66620b840daabf601f4aa9b6","815","","f","","","","","","","","./tasks/HMM-beads/Images/NewTrialBC.png","lowH","1","1","1","1","0","0","false","",""
"image-keyboard-response","143","191626","0.0-3.0-6.0-1.0-1.1","65cccdae9209d332a4d29bca","6662009ae78f21dd82fcd179","66620b840daabf601f4aa9b6","null","","null","","","","","","","","./tasks/HMM-beads/Images/BlackBeadChoice.png","","","","","","","","","",""
"image-keyboard-response","144","192143","0.0-3.0-6.0-1.0-2.1","65cccdae9209d332a4d29bca","6662009ae78f21dd82fcd179","66620b840daabf601f4aa9b6","null","","null","","","","","","","","./tasks/HMM-beads/Images/BlackBeadChoiceWrong.png","","","","","","","","","",""
"image-keyboard-response","145","193177","0.0-3.0-6.0-1.0-0.2","65cccdae9209d332a4d29bca","6662009ae78f21dd82fcd179","66620b840daabf601f4aa9b6","1032","","f","","","","","","","","./tasks/HMM-beads/Images/NewTrialWC.png","lowH","1","2","1","1","1","0","false","",""
"image-keyboard-response","146","193478","0.0-3.0-6.0-1.0-1.2","65cccdae9209d332a4d29bca","6662009ae78f21dd82fcd179","66620b840daabf601f4aa9b6","null","","null","","","","","","","","./tasks/HMM-beads/Images/BlackBeadChoice.png","","","","","","","","","",""
"image-keyboard-response","147","193979","0.0-3.0-6.0-1.0-2.2","65cccdae9209d332a4d29bca","6662009ae78f21dd82fcd179","66620b840daabf601f4aa9b6","null","","null","","","","","","","","./tasks/HMM-beads/Images/BlackBeadChoiceWrong.png","","","","","","","","","",""
"image-keyboard-response","148","194688","0.0-3.0-6.0-1.0-0.3","65cccdae9209d332a4d29bca","6662009ae78f21dd82fcd179","66620b840daabf601f4aa9b6","707","","j","","","","","","","","./tasks/HMM-beads/Images/NewTrialWC.png","lowH","1","3","1","1","1","1","true","",""
"image-keyboard-response","149","195000","0.0-3.0-6.0-1.0-1.3","65cccdae9209d332a4d29bca","6662009ae78f21dd82fcd179","66620b840daabf601f4aa9b6","null","","null","","","","","","","","./tasks/HMM-beads/Images/WhiteBeadChoice.png","","","","","","","","","",""
"image-keyboard-response","150","195502","0.0-3.0-6.0-1.0-2.3","65cccdae9209d332a4d29bca","6662009ae78f21dd82fcd179","66620b840daabf601f4aa9b6","null","","null","","","","","","","","./tasks/HMM-beads/Images/WhiteBeadChoiceCorrect.png","","","","","","","","","",""
"image-keyboard-response","151","195841","0.0-3.0-6.0-1.0-0.4","65cccdae9209d332a4d29bca","6662009ae78f21dd82fcd179","66620b840daabf601f4aa9b6","338","","j","","","","","","","","./tasks/HMM-beads/Images/NewTrialWC.png","lowH","1","4","1","1","1","1","true","",""
"image-keyboard-response","152","196145","0.0-3.0-6.0-1.0-1.4","65cccdae9209d332a4d29bca","6662009ae78f21dd82fcd179","66620b840daabf601f4aa9b6","null","","null","","","","","","","","./tasks/HMM-beads/Images/WhiteBeadChoice.png","","","","","","","","","",""
"image-keyboard-response","153","196647","0.0-3.0-6.0-1.0-2.4","65cccdae9209d332a4d29bca","6662009ae78f21dd82fcd179","66620b840daabf601f4aa9b6","null","","null","","","","","","","","./tasks/HMM-beads/Images/WhiteBeadChoiceCorrect.png","","","","","","","","","",""
"image-keyboard-response","154","196962","0.0-3.0-6.0-1.0-0.5","65cccdae9209d332a4d29bca","6662009ae78f21dd82fcd179","66620b840daabf601f4aa9b6","313","","j","","","","","","","","./tasks/HMM-beads/Images/NewTrialWC.png","lowH","1","5","1","1","1","1","true","",""
"image-keyboard-response","155","197311","0.0-3.0-6.0-1.0-1.5","65cccdae9209d332a4d29bca","6662009ae78f21dd82fcd179","66620b840daabf601f4aa9b6","null","","null","","","","","","","","./tasks/HMM-beads/Images/WhiteBeadChoice.png","","","","","","","","","",""
"image-keyboard-response","156","197825","0.0-3.0-6.0-1.0-2.5","65cccdae9209d332a4d29bca","6662009ae78f21dd82fcd179","66620b840daabf601f4aa9b6","null","","null","","","","","","","","./tasks/HMM-beads/Images/WhiteBeadChoiceCorrect.png","","","","","","","","","",""
"image-keyboard-response","157","198001","0.0-3.0-6.0-1.0-0.6","65cccdae9209d332a4d29bca","6662009ae78f21dd82fcd179","66620b840daabf601f4aa9b6","175","","j","","","","","","","","./tasks/HMM-beads/Images/NewTrialWC.png","lowH","1","6","1","0","1","1","false","",""
"image-keyboard-response","158","198314","0.0-3.0-6.0-1.0-1.6","65cccdae9209d332a4d29bca","6662009ae78f21dd82fcd179","66620b840daabf601f4aa9b6","null","","null","","","","","","","","./tasks/HMM-beads/Images/WhiteBeadChoice.png","","","","","","","","","",""
"image-keyboard-response","159","198829","0.0-3.0-6.0-1.0-2.6","65cccdae9209d332a4d29bca","6662009ae78f21dd82fcd179","66620b840daabf601f4aa9b6","null","","null","","","","","","","","./tasks/HMM-beads/Images/WhiteBeadChoiceWrong.png","","","","","","","","","",""
"image-keyboard-response","160","199554","0.0-3.0-6.0-1.0-0.7","65cccdae9209d332a4d29bca","6662009ae78f21dd82fcd179","66620b840daabf601f4aa9b6","722","","j","","","","","","","","./tasks/HMM-beads/Images/NewTrialBC.png","lowH","1","7","1","1","0","1","true","",""
"image-keyboard-response","161","199866","0.0-3.0-6.0-1.0-1.7","65cccdae9209d332a4d29bca","6662009ae78f21dd82fcd179","66620b840daabf601f4aa9b6","null","","null","","","","","","","","./tasks/HMM-beads/Images/WhiteBeadChoice.png","","","","","","","","","",""
"image-keyboard-response","162","200381","0.0-3.0-6.0-1.0-2.7","65cccdae9209d332a4d29bca","6662009ae78f21dd82fcd179","66620b840daabf601f4aa9b6","null","","null","","","","","","","","./tasks/HMM-beads/Images/WhiteBeadChoiceCorrect.png","","","","","","","","","",""
"image-keyboard-response","163","200673","0.0-3.0-6.0-1.0-0.8","65cccdae9209d332a4d29bca","6662009ae78f21dd82fcd179","66620b840daabf601f4aa9b6","290","","j","","","","","","","","./tasks/HMM-beads/Images/NewTrialWC.png","lowH","1","8","1","1","1","1","true","",""
"image-keyboard-response","164","200982","0.0-3.0-6.0-1.0-1.8","65cccdae9209d332a4d29bca","6662009ae78f21dd82fcd179","66620b840daabf601f4aa9b6","null","","null","","","","","","","","./tasks/HMM-beads/Images/WhiteBeadChoice.png","","","","","","","","","",""
"image-keyboard-response","165","201497","0.0-3.0-6.0-1.0-2.8","65cccdae9209d332a4d29bca","6662009ae78f21dd82fcd179","66620b840daabf601f4aa9b6","null","","null","","","","","","","","./tasks/HMM-beads/Images/WhiteBeadChoiceCorrect.png","","","","","","","","","",""
"image-keyboard-response","166","201674","0.0-3.0-6.0-1.0-0.9","65cccdae9209d332a4d29bca","6662009ae78f21dd82fcd179","66620b840daabf601f4aa9b6","175","","j","","","","","","","","./tasks/HMM-beads/Images/NewTrialWC.png","lowH","1","9","1","1","1","1","true","",""
"image-keyboard-response","167","201983","0.0-3.0-6.0-1.0-1.9","65cccdae9209d332a4d29bca","6662009ae78f21dd82fcd179","66620b840daabf601f4aa9b6","null","","null","","","","","","","","./tasks/HMM-beads/Images/WhiteBeadChoice.png","","","","","","","","","",""
"image-keyboard-response","168","202485","0.0-3.0-6.0-1.0-2.9","65cccdae9209d332a4d29bca","6662009ae78f21dd82fcd179","66620b840daabf601f4aa9b6","null","","null","","","","","","","","./tasks/HMM-beads/Images/WhiteBeadChoiceCorrect.png","","","","","","","","","",""
"image-keyboard-response","169","202625","0.0-3.0-6.0-1.0-0.10","65cccdae9209d332a4d29bca","6662009ae78f21dd82fcd179","66620b840daabf601f4aa9b6","139","","j","","","","","","","","./tasks/HMM-beads/Images/NewTrialWC.png","lowH","1","10","1","1","1","1","true","",""
"image-keyboard-response","170","202940","0.0-3.0-6.0-1.0-1.10","65cccdae9209d332a4d29bca","6662009ae78f21dd82fcd179","66620b840daabf601f4aa9b6","null","","null","","","","","","","","./tasks/HMM-beads/Images/WhiteBeadChoice.png","","","","","","","","","",""
"image-keyboard-response","171","203443","0.0-3.0-6.0-1.0-2.10","65cccdae9209d332a4d29bca","6662009ae78f21dd82fcd179","66620b840daabf601f4aa9b6","null","","null","","","","","","","","./tasks/HMM-beads/Images/WhiteBeadChoiceCorrect.png","","","","","","","","","",""
"image-keyboard-response","172","203601","0.0-3.0-6.0-1.0-0.11","65cccdae9209d332a4d29bca","6662009ae78f21dd82fcd179","66620b840daabf601f4aa9b6","158","","j","","","","","","","","./tasks/HMM-beads/Images/NewTrialWC.png","lowH","1","11","1","1","1","1","true","",""
"image-keyboard-response","173","203914","0.0-3.0-6.0-1.0-1.11","65cccdae9209d332a4d29bca","6662009ae78f21dd82fcd179","66620b840daabf601f4aa9b6","null","","null","","","","","","","","./tasks/HMM-beads/Images/WhiteBeadChoice.png","","","","","","","","","",""
"image-keyboard-response","174","204430","0.0-3.0-6.0-1.0-2.11","65cccdae9209d332a4d29bca","6662009ae78f21dd82fcd179","66620b840daabf601f4aa9b6","null","","null","","","","","","","","./tasks/HMM-beads/Images/WhiteBeadChoiceCorrect.png","","","","","","","","","",""
"image-keyboard-response","175","204505","0.0-3.0-6.0-1.0-0.12","65cccdae9209d332a4d29bca","6662009ae78f21dd82fcd179","66620b840daabf601f4aa9b6","74","","j","","","","","","","","./tasks/HMM-beads/Images/NewTrialWC.png","lowH","1","12","1","1","1","1","true","",""
"image-keyboard-response","176","204807","0.0-3.0-6.0-1.0-1.12","65cccdae9209d332a4d29bca","6662009ae78f21dd82fcd179","66620b840daabf601f4aa9b6","null","","null","","","","","","","","./tasks/HMM-beads/Images/WhiteBeadChoice.png","","","","","","","","","",""
"image-keyboard-response","177","205308","0.0-3.0-6.0-1.0-2.12","65cccdae9209d332a4d29bca","6662009ae78f21dd82fcd179","66620b840daabf601f4aa9b6","null","","null","","","","","","","","./tasks/HMM-beads/Images/WhiteBeadChoiceCorrect.png","","","","","","","","","",""
"image-keyboard-response","178","205346","0.0-3.0-6.0-1.0-0.13","65cccdae9209d332a4d29bca","6662009ae78f21dd82fcd179","66620b840daabf601f4aa9b6","35","","j","","","","","","","","./tasks/HMM-beads/Images/NewTrialWC.png","lowH","1","13","1","0","1","1","false","",""
"image-keyboard-response","179","205685","0.0-3.0-6.0-1.0-1.13","65cccdae9209d332a4d29bca","6662009ae78f21dd82fcd179","66620b840daabf601f4aa9b6","null","","null","","","","","","","","./tasks/HMM-beads/Images/WhiteBeadChoice.png","","","","","","","","","",""
"image-keyboard-response","180","206188","0.0-3.0-6.0-1.0-2.13","65cccdae9209d332a4d29bca","6662009ae78f21dd82fcd179","66620b840daabf601f4aa9b6","null","","null","","","","","","","","./tasks/HMM-beads/Images/WhiteBeadChoiceWrong.png","","","","","","","","","",""
"image-keyboard-response","181","206481","0.0-3.0-6.0-1.0-0.14","65cccdae9209d332a4d29bca","6662009ae78f21dd82fcd179","66620b840daabf601f4aa9b6","292","","j","","","","","","","","./tasks/HMM-beads/Images/NewTrialBC.png","lowH","1","14","1","0","0","1","false","",""
"image-keyboard-response","182","206785","0.0-3.0-6.0-1.0-1.14","65cccdae9209d332a4d29bca","6662009ae78f21dd82fcd179","66620b840daabf601f4aa9b6","null","","null","","","","","","","","./tasks/HMM-beads/Images/WhiteBeadChoice.png","","","","","","","","","",""
"image-keyboard-response","183","207318","0.0-3.0-6.0-1.0-2.14","65cccdae9209d332a4d29bca","6662009ae78f21dd82fcd179","66620b840daabf601f4aa9b6","null","","null","","","","","","","","./tasks/HMM-beads/Images/WhiteBeadChoiceWrong.png","","","","","","","","","",""
"image-keyboard-response","184","208328","0.0-3.0-6.0-1.0-0.15","65cccdae9209d332a4d29bca","6662009ae78f21dd82fcd179","66620b840daabf601f4aa9b6","1010","","f","","","","","","","","./tasks/HMM-beads/Images/NewTrialBC.png","lowH","1","15","1","1","0","0","false","",""
"image-keyboard-response","185","208652","0.0-3.0-6.0-1.0-1.15","65cccdae9209d332a4d29bca","6662009ae78f21dd82fcd179","66620b840daabf601f4aa9b6","null","","null","","","","","","","","./tasks/HMM-beads/Images/BlackBeadChoice.png","","","","","","","","","",""
"image-keyboard-response","186","209169","0.0-3.0-6.0-1.0-2.15","65cccdae9209d332a4d29bca","6662009ae78f21dd82fcd179","66620b840daabf601f4aa9b6","null","","null","","","","","","","","./tasks/HMM-beads/Images/BlackBeadChoiceWrong.png","","","","","","","","","",""
"image-keyboard-response","187","209513","0.0-3.0-6.0-1.0-0.16","65cccdae9209d332a4d29bca","6662009ae78f21dd82fcd179","66620b840daabf601f4aa9b6","343","","f","","","","","","","","./tasks/HMM-beads/Images/NewTrialWC.png","lowH","1","16","1","1","1","0","false","",""
"image-keyboard-response","188","209828","0.0-3.0-6.0-1.0-1.16","65cccdae9209d332a4d29bca","6662009ae78f21dd82fcd179","66620b840daabf601f4aa9b6","null","","null","","","","","","","","./tasks/HMM-beads/Images/BlackBeadChoice.png","","","","","","","","","",""
"image-keyboard-response","189","210331","0.0-3.0-6.0-1.0-2.16","65cccdae9209d332a4d29bca","6662009ae78f21dd82fcd179","66620b840daabf601f4aa9b6","null","","null","","","","","","","","./tasks/HMM-beads/Images/BlackBeadChoiceWrong.png","","","","","","","","","",""
"image-keyboard-response","190","210353","0.0-3.0-6.0-1.0-0.17","65cccdae9209d332a4d29bca","6662009ae78f21dd82fcd179","66620b840daabf601f4aa9b6","20","","j","","","","","","","","./tasks/HMM-beads/Images/NewTrialWC.png","lowH","1","17","1","1","1","1","true","",""
"image-keyboard-response","191","210662","0.0-3.0-6.0-1.0-1.17","65cccdae9209d332a4d29bca","6662009ae78f21dd82fcd179","66620b840daabf601f4aa9b6","null","","null","","","","","","","","./tasks/HMM-beads/Images/WhiteBeadChoice.png","","","","","","","","","",""
"image-keyboard-response","192","211164","0.0-3.0-6.0-1.0-2.17","65cccdae9209d332a4d29bca","6662009ae78f21dd82fcd179","66620b840daabf601f4aa9b6","null","","null","","","","","","","","./tasks/HMM-beads/Images/WhiteBeadChoiceCorrect.png","","","","","","","","","",""
"image-keyboard-response","193","211361","0.0-3.0-6.0-1.0-0.18","65cccdae9209d332a4d29bca","6662009ae78f21dd82fcd179","66620b840daabf601f4aa9b6","197","","j","","","","","","","","./tasks/HMM-beads/Images/NewTrialWC.png","lowH","1","18","1","1","1","1","true","",""
"image-keyboard-response","194","211667","0.0-3.0-6.0-1.0-1.18","65cccdae9209d332a4d29bca","6662009ae78f21dd82fcd179","66620b840daabf601f4aa9b6","null","","null","","","","","","","","./tasks/HMM-beads/Images/WhiteBeadChoice.png","","","","","","","","","",""
"image-keyboard-response","195","212184","0.0-3.0-6.0-1.0-2.18","65cccdae9209d332a4d29bca","6662009ae78f21dd82fcd179","66620b840daabf601f4aa9b6","null","","null","","","","","","","","./tasks/HMM-beads/Images/WhiteBeadChoiceCorrect.png","","","","","","","","","",""
"image-keyboard-response","196","212305","0.0-3.0-6.0-1.0-0.19","65cccdae9209d332a4d29bca","6662009ae78f21dd82fcd179","66620b840daabf601f4aa9b6","119","","j","","","","","","","","./tasks/HMM-beads/Images/NewTrialWC.png","lowH","1","19","1","1","1","1","true","",""
"image-keyboard-response","197","212607","0.0-3.0-6.0-1.0-1.19","65cccdae9209d332a4d29bca","6662009ae78f21dd82fcd179","66620b840daabf601f4aa9b6","null","","null","","","","","","","","./tasks/HMM-beads/Images/WhiteBeadChoice.png","","","","","","","","","",""
"image-keyboard-response","198","213109","0.0-3.0-6.0-1.0-2.19","65cccdae9209d332a4d29bca","6662009ae78f21dd82fcd179","66620b840daabf601f4aa9b6","null","","null","","","","","","","","./tasks/HMM-beads/Images/WhiteBeadChoiceCorrect.png","","","","","","","","","",""
"image-keyboard-response","199","213177","0.0-3.0-6.0-1.0-0.20","65cccdae9209d332a4d29bca","6662009ae78f21dd82fcd179","66620b840daabf601f4aa9b6","67","","j","","","","","","","","./tasks/HMM-beads/Images/NewTrialWC.png","lowH","1","20","1","1","1","1","true","",""
"image-keyboard-response","200","213487","0.0-3.0-6.0-1.0-1.20","65cccdae9209d332a4d29bca","6662009ae78f21dd82fcd179","66620b840daabf601f4aa9b6","null","","null","","","","","","","","./tasks/HMM-beads/Images/WhiteBeadChoice.png","","","","","","","","","",""
"image-keyboard-response","201","213988","0.0-3.0-6.0-1.0-2.20","65cccdae9209d332a4d29bca","6662009ae78f21dd82fcd179","66620b840daabf601f4aa9b6","null","","null","","","","","","","","./tasks/HMM-beads/Images/WhiteBeadChoiceCorrect.png","","","","","","","","","",""
"image-keyboard-response","202","214042","0.0-3.0-6.0-1.0-0.21","65cccdae9209d332a4d29bca","6662009ae78f21dd82fcd179","66620b840daabf601f4aa9b6","49","","j","","","","","","","","./tasks/HMM-beads/Images/NewTrialWC.png","lowH","1","21","1","1","1","1","true","",""
"image-keyboard-response","203","214350","0.0-3.0-6.0-1.0-1.21","65cccdae9209d332a4d29bca","6662009ae78f21dd82fcd179","66620b840daabf601f4aa9b6","null","","null","","","","","","","","./tasks/HMM-beads/Images/WhiteBeadChoice.png","","","","","","","","","",""
"image-keyboard-response","204","214853","0.0-3.0-6.0-1.0-2.21","65cccdae9209d332a4d29bca","6662009ae78f21dd82fcd179","66620b840daabf601f4aa9b6","null","","null","","","","","","","","./tasks/HMM-beads/Images/WhiteBeadChoiceCorrect.png","","","","","","","","","",""
"image-keyboard-response","205","215273","0.0-3.0-6.0-1.0-0.22","65cccdae9209d332a4d29bca","6662009ae78f21dd82fcd179","66620b840daabf601f4aa9b6","419","","j","","","","","","","","./tasks/HMM-beads/Images/NewTrialWC.png","lowH","1","22","1","1","1","1","true","",""
"image-keyboard-response","206","215588","0.0-3.0-6.0-1.0-1.22","65cccdae9209d332a4d29bca","6662009ae78f21dd82fcd179","66620b840daabf601f4aa9b6","null","","null","","","","","","","","./tasks/HMM-beads/Images/WhiteBeadChoice.png","","","","","","","","","",""
"image-keyboard-response","207","216092","0.0-3.0-6.0-1.0-2.22","65cccdae9209d332a4d29bca","6662009ae78f21dd82fcd179","66620b840daabf601f4aa9b6","null","","null","","","","","","","","./tasks/HMM-beads/Images/WhiteBeadChoiceCorrect.png","","","","","","","","","",""
"image-keyboard-response","208","216121","0.0-3.0-6.0-1.0-0.23","65cccdae9209d332a4d29bca","6662009ae78f21dd82fcd179","66620b840daabf601f4aa9b6","28","","j","","","","","","","","./tasks/HMM-beads/Images/NewTrialWC.png","lowH","1","23","1","1","1","1","true","",""
"image-keyboard-response","209","216437","0.0-3.0-6.0-1.0-1.23","65cccdae9209d332a4d29bca","6662009ae78f21dd82fcd179","66620b840daabf601f4aa9b6","null","","null","","","","","","","","./tasks/HMM-beads/Images/WhiteBeadChoice.png","","","","","","","","","",""
"image-keyboard-response","210","216938","0.0-3.0-6.0-1.0-2.23","65cccdae9209d332a4d29bca","6662009ae78f21dd82fcd179","66620b840daabf601f4aa9b6","null","","null","","","","","","","","./tasks/HMM-beads/Images/WhiteBeadChoiceCorrect.png","","","","","","","","","",""
"image-keyboard-response","211","217017","0.0-3.0-6.0-1.0-0.24","65cccdae9209d332a4d29bca","6662009ae78f21dd82fcd179","66620b840daabf601f4aa9b6","77","","j","","","","","","","","./tasks/HMM-beads/Images/NewTrialWC.png","lowH","1","24","1","0","1","1","false","",""
"image-keyboard-response","212","217362","0.0-3.0-6.0-1.0-1.24","65cccdae9209d332a4d29bca","6662009ae78f21dd82fcd179","66620b840daabf601f4aa9b6","null","","null","","","","","","","","./tasks/HMM-beads/Images/WhiteBeadChoice.png","","","","","","","","","",""
"image-keyboard-response","213","217864","0.0-3.0-6.0-1.0-2.24","65cccdae9209d332a4d29bca","6662009ae78f21dd82fcd179","66620b840daabf601f4aa9b6","null","","null","","","","","","","","./tasks/HMM-beads/Images/WhiteBeadChoiceWrong.png","","","","","","","","","",""
"image-keyboard-response","214","218689","0.0-3.0-6.0-1.0-0.25","65cccdae9209d332a4d29bca","6662009ae78f21dd82fcd179","66620b840daabf601f4aa9b6","823","","f","","","","","","","","./tasks/HMM-beads/Images/NewTrialBC.png","lowH","1","25","1","1","0","0","false","",""
"image-keyboard-response","215","218996","0.0-3.0-6.0-1.0-1.25","65cccdae9209d332a4d29bca","6662009ae78f21dd82fcd179","66620b840daabf601f4aa9b6","null","","null","","","","","","","","./tasks/HMM-beads/Images/BlackBeadChoice.png","","","","","","","","","",""
"image-keyboard-response","216","219510","0.0-3.0-6.0-1.0-2.25","65cccdae9209d332a4d29bca","6662009ae78f21dd82fcd179","66620b840daabf601f4aa9b6","null","","null","","","","","","","","./tasks/HMM-beads/Images/BlackBeadChoiceWrong.png","","","","","","","","","",""
"image-keyboard-response","217","219841","0.0-3.0-6.0-1.0-0.26","65cccdae9209d332a4d29bca","6662009ae78f21dd82fcd179","66620b840daabf601f4aa9b6","329","","f","","","","","","","","./tasks/HMM-beads/Images/NewTrialWC.png","lowH","1","26","1","0","1","0","true","",""
"image-keyboard-response","218","220157","0.0-3.0-6.0-1.0-1.26","65cccdae9209d332a4d29bca","6662009ae78f21dd82fcd179","66620b840daabf601f4aa9b6","null","","null","","","","","","","","./tasks/HMM-beads/Images/BlackBeadChoice.png","","","","","","","","","",""
"image-keyboard-response","219","220659","0.0-3.0-6.0-1.0-2.26","65cccdae9209d332a4d29bca","6662009ae78f21dd82fcd179","66620b840daabf601f4aa9b6","null","","null","","","","","","","","./tasks/HMM-beads/Images/BlackBeadChoiceCorrect.png","","","","","","","","","",""
"image-keyboard-response","220","220849","0.0-3.0-6.0-1.0-0.27","65cccdae9209d332a4d29bca","6662009ae78f21dd82fcd179","66620b840daabf601f4aa9b6","187","","f","","","","","","","","./tasks/HMM-beads/Images/NewTrialBC.png","lowH","1","27","1","1","0","0","false","",""
"image-keyboard-response","221","221159","0.0-3.0-6.0-1.0-1.27","65cccdae9209d332a4d29bca","6662009ae78f21dd82fcd179","66620b840daabf601f4aa9b6","null","","null","","","","","","","","./tasks/HMM-beads/Images/BlackBeadChoice.png","","","","","","","","","",""
"image-keyboard-response","222","221661","0.0-3.0-6.0-1.0-2.27","65cccdae9209d332a4d29bca","6662009ae78f21dd82fcd179","66620b840daabf601f4aa9b6","null","","null","","","","","","","","./tasks/HMM-beads/Images/BlackBeadChoiceWrong.png","","","","","","","","","",""
"image-keyboard-response","223","221794","0.0-3.0-6.0-1.0-0.28","65cccdae9209d332a4d29bca","6662009ae78f21dd82fcd179","66620b840daabf601f4aa9b6","129","","j","","","","","","","","./tasks/HMM-beads/Images/NewTrialWC.png","lowH","1","28","1","1","1","1","true","",""
"image-keyboard-response","224","222100","0.0-3.0-6.0-1.0-1.28","65cccdae9209d332a4d29bca","6662009ae78f21dd82fcd179","66620b840daabf601f4aa9b6","null","","null","","","","","","","","./tasks/HMM-beads/Images/WhiteBeadChoice.png","","","","","","","","","",""
"image-keyboard-response","225","222604","0.0-3.0-6.0-1.0-2.28","65cccdae9209d332a4d29bca","6662009ae78f21dd82fcd179","66620b840daabf601f4aa9b6","null","","null","","","","","","","","./tasks/HMM-beads/Images/WhiteBeadChoiceCorrect.png","","","","","","","","","",""
"image-keyboard-response","226","222841","0.0-3.0-6.0-1.0-0.29","65cccdae9209d332a4d29bca","6662009ae78f21dd82fcd179","66620b840daabf601f4aa9b6","234","","j","","","","","","","","./tasks/HMM-beads/Images/NewTrialWC.png","lowH","1","29","1","1","1","1","true","",""
"image-keyboard-response","227","223169","0.0-3.0-6.0-1.0-1.29","65cccdae9209d332a4d29bca","6662009ae78f21dd82fcd179","66620b840daabf601f4aa9b6","null","","null","","","","","","","","./tasks/HMM-beads/Images/WhiteBeadChoice.png","","","","","","","","","",""
"image-keyboard-response","228","223685","0.0-3.0-6.0-1.0-2.29","65cccdae9209d332a4d29bca","6662009ae78f21dd82fcd179","66620b840daabf601f4aa9b6","null","","null","","","","","","","","./tasks/HMM-beads/Images/WhiteBeadChoiceCorrect.png","","","","","","","","","",""
"image-keyboard-response","229","223729","0.0-3.0-6.0-1.0-0.30","65cccdae9209d332a4d29bca","6662009ae78f21dd82fcd179","66620b840daabf601f4aa9b6","43","","j","","","","","","","","./tasks/HMM-beads/Images/NewTrialWC.png","lowH","1","30","1","1","1","1","true","",""
"image-keyboard-response","230","224030","0.0-3.0-6.0-1.0-1.30","65cccdae9209d332a4d29bca","6662009ae78f21dd82fcd179","66620b840daabf601f4aa9b6","null","","null","","","","","","","","./tasks/HMM-beads/Images/WhiteBeadChoice.png","","","","","","","","","",""
"image-keyboard-response","231","224547","0.0-3.0-6.0-1.0-2.30","65cccdae9209d332a4d29bca","6662009ae78f21dd82fcd179","66620b840daabf601f4aa9b6","null","","null","","","","","","","","./tasks/HMM-beads/Images/WhiteBeadChoiceCorrect.png","","","","","","","","","",""
"image-keyboard-response","232","224689","0.0-3.0-6.0-1.0-0.31","65cccdae9209d332a4d29bca","6662009ae78f21dd82fcd179","66620b840daabf601f4aa9b6","142","","j","","","","","","","","./tasks/HMM-beads/Images/NewTrialWC.png","lowH","1","31","1","1","1","1","true","",""
"image-keyboard-response","233","225004","0.0-3.0-6.0-1.0-1.31","65cccdae9209d332a4d29bca","6662009ae78f21dd82fcd179","66620b840daabf601f4aa9b6","null","","null","","","","","","","","./tasks/HMM-beads/Images/WhiteBeadChoice.png","","","","","","","","","",""
"image-keyboard-response","234","225506","0.0-3.0-6.0-1.0-2.31","65cccdae9209d332a4d29bca","6662009ae78f21dd82fcd179","66620b840daabf601f4aa9b6","null","","null","","","","","","","","./tasks/HMM-beads/Images/WhiteBeadChoiceCorrect.png","","","","","","","","","",""
"image-keyboard-response","235","227305","0.0-3.0-6.0-1.0-0.32","65cccdae9209d332a4d29bca","6662009ae78f21dd82fcd179","66620b840daabf601f4aa9b6","1798","","j","","","","","","","","./tasks/HMM-beads/Images/NewTrialWC.png","lowH","1","32","1","1","1","1","true","",""
"image-keyboard-response","236","227611","0.0-3.0-6.0-1.0-1.32","65cccdae9209d332a4d29bca","6662009ae78f21dd82fcd179","66620b840daabf601f4aa9b6","null","","null","","","","","","","","./tasks/HMM-beads/Images/WhiteBeadChoice.png","","","","","","","","","",""
"image-keyboard-response","237","228115","0.0-3.0-6.0-1.0-2.32","65cccdae9209d332a4d29bca","6662009ae78f21dd82fcd179","66620b840daabf601f4aa9b6","null","","null","","","","","","","","./tasks/HMM-beads/Images/WhiteBeadChoiceCorrect.png","","","","","","","","","",""
"image-keyboard-response","238","228137","0.0-3.0-6.0-1.0-0.33","65cccdae9209d332a4d29bca","6662009ae78f21dd82fcd179","66620b840daabf601f4aa9b6","21","","j","","","","","","","","./tasks/HMM-beads/Images/NewTrialWC.png","lowH","1","33","1","1","1","1","true","",""
"image-keyboard-response","239","228441","0.0-3.0-6.0-1.0-1.33","65cccdae9209d332a4d29bca","6662009ae78f21dd82fcd179","66620b840daabf601f4aa9b6","null","","null","","","","","","","","./tasks/HMM-beads/Images/WhiteBeadChoice.png","","","","","","","","","",""
"image-keyboard-response","240","228943","0.0-3.0-6.0-1.0-2.33","65cccdae9209d332a4d29bca","6662009ae78f21dd82fcd179","66620b840daabf601f4aa9b6","null","","null","","","","","","","","./tasks/HMM-beads/Images/WhiteBeadChoiceCorrect.png","","","","","","","","","",""
"image-keyboard-response","241","229433","0.0-3.0-6.0-1.0-0.34","65cccdae9209d332a4d29bca","6662009ae78f21dd82fcd179","66620b840daabf601f4aa9b6","489","","j","","","","","","","","./tasks/HMM-beads/Images/NewTrialWC.png","lowH","1","34","1","1","1","1","true","",""
"image-keyboard-response","242","229743","0.0-3.0-6.0-1.0-1.34","65cccdae9209d332a4d29bca","6662009ae78f21dd82fcd179","66620b840daabf601f4aa9b6","null","","null","","","","","","","","./tasks/HMM-beads/Images/WhiteBeadChoice.png","","","","","","","","","",""
"image-keyboard-response","243","230247","0.0-3.0-6.0-1.0-2.34","65cccdae9209d332a4d29bca","6662009ae78f21dd82fcd179","66620b840daabf601f4aa9b6","null","","null","","","","","","","","./tasks/HMM-beads/Images/WhiteBeadChoiceCorrect.png","","","","","","","","","",""
"image-keyboard-response","244","230777","0.0-3.0-6.0-1.0-0.35","65cccdae9209d332a4d29bca","6662009ae78f21dd82fcd179","66620b840daabf601f4aa9b6","529","","f","","","","","","","","./tasks/HMM-beads/Images/NewTrialWC.png","lowH","1","35","1","1","1","0","false","",""
"image-keyboard-response","245","231093","0.0-3.0-6.0-1.0-1.35","65cccdae9209d332a4d29bca","6662009ae78f21dd82fcd179","66620b840daabf601f4aa9b6","null","","null","","","","","","","","./tasks/HMM-beads/Images/BlackBeadChoice.png","","","","","","","","","",""
"image-keyboard-response","246","231611","0.0-3.0-6.0-1.0-2.35","65cccdae9209d332a4d29bca","6662009ae78f21dd82fcd179","66620b840daabf601f4aa9b6","null","","null","","","","","","","","./tasks/HMM-beads/Images/BlackBeadChoiceWrong.png","","","","","","","","","",""
"image-keyboard-response","247","231641","0.0-3.0-6.0-1.0-0.36","65cccdae9209d332a4d29bca","6662009ae78f21dd82fcd179","66620b840daabf601f4aa9b6","30","","j","","","","","","","","./tasks/HMM-beads/Images/NewTrialWC.png","lowH","1","36","1","1","1","1","true","",""
"image-keyboard-response","248","231943","0.0-3.0-6.0-1.0-1.36","65cccdae9209d332a4d29bca","6662009ae78f21dd82fcd179","66620b840daabf601f4aa9b6","null","","null","","","","","","","","./tasks/HMM-beads/Images/WhiteBeadChoice.png","","","","","","","","","",""
"image-keyboard-response","249","232460","0.0-3.0-6.0-1.0-2.36","65cccdae9209d332a4d29bca","6662009ae78f21dd82fcd179","66620b840daabf601f4aa9b6","null","","null","","","","","","","","./tasks/HMM-beads/Images/WhiteBeadChoiceCorrect.png","","","","","","","","","",""
"image-keyboard-response","250","232665","0.0-3.0-6.0-1.0-0.37","65cccdae9209d332a4d29bca","6662009ae78f21dd82fcd179","66620b840daabf601f4aa9b6","206","","j","","","","","","","","./tasks/HMM-beads/Images/NewTrialWC.png","lowH","1","37","1","1","1","1","true","",""
"image-keyboard-response","251","232978","0.0-3.0-6.0-1.0-1.37","65cccdae9209d332a4d29bca","6662009ae78f21dd82fcd179","66620b840daabf601f4aa9b6","null","","null","","","","","","","","./tasks/HMM-beads/Images/WhiteBeadChoice.png","","","","","","","","","",""
"image-keyboard-response","252","233493","0.0-3.0-6.0-1.0-2.37","65cccdae9209d332a4d29bca","6662009ae78f21dd82fcd179","66620b840daabf601f4aa9b6","null","","null","","","","","","","","./tasks/HMM-beads/Images/WhiteBeadChoiceCorrect.png","","","","","","","","","",""
"image-keyboard-response","253","233865","0.0-3.0-6.0-1.0-0.38","65cccdae9209d332a4d29bca","6662009ae78f21dd82fcd179","66620b840daabf601f4aa9b6","370","","j","","","","","","","","./tasks/HMM-beads/Images/NewTrialWC.png","lowH","1","38","1","1","1","1","true","",""
"image-keyboard-response","254","234169","0.0-3.0-6.0-1.0-1.38","65cccdae9209d332a4d29bca","6662009ae78f21dd82fcd179","66620b840daabf601f4aa9b6","null","","null","","","","","","","","./tasks/HMM-beads/Images/WhiteBeadChoice.png","","","","","","","","","",""
"image-keyboard-response","255","234671","0.0-3.0-6.0-1.0-2.38","65cccdae9209d332a4d29bca","6662009ae78f21dd82fcd179","66620b840daabf601f4aa9b6","null","","null","","","","","","","","./tasks/HMM-beads/Images/WhiteBeadChoiceCorrect.png","","","","","","","","","",""
"image-keyboard-response","256","234897","0.0-3.0-6.0-1.0-0.39","65cccdae9209d332a4d29bca","6662009ae78f21dd82fcd179","66620b840daabf601f4aa9b6","224","","j","","","","","","","","./tasks/HMM-beads/Images/NewTrialWC.png","lowH","1","39","1","1","1","1","true","",""
"image-keyboard-response","257","235205","0.0-3.0-6.0-1.0-1.39","65cccdae9209d332a4d29bca","6662009ae78f21dd82fcd179","66620b840daabf601f4aa9b6","null","","null","","","","","","","","./tasks/HMM-beads/Images/WhiteBeadChoice.png","","","","","","","","","",""
"image-keyboard-response","258","235722","0.0-3.0-6.0-1.0-2.39","65cccdae9209d332a4d29bca","6662009ae78f21dd82fcd179","66620b840daabf601f4aa9b6","null","","null","","","","","","","","./tasks/HMM-beads/Images/WhiteBeadChoiceCorrect.png","","","","","","","","","",""
"image-keyboard-response","259","235809","0.0-3.0-6.0-1.0-0.40","65cccdae9209d332a4d29bca","6662009ae78f21dd82fcd179","66620b840daabf601f4aa9b6","85","","j","","","","","","","","./tasks/HMM-beads/Images/NewTrialWC.png","lowH","1","40","1","1","1","1","true","",""
"image-keyboard-response","260","236115","0.0-3.0-6.0-1.0-1.40","65cccdae9209d332a4d29bca","6662009ae78f21dd82fcd179","66620b840daabf601f4aa9b6","null","","null","","","","","","","","./tasks/HMM-beads/Images/WhiteBeadChoice.png","","","","","","","","","",""
"image-keyboard-response","261","236632","0.0-3.0-6.0-1.0-2.40","65cccdae9209d332a4d29bca","6662009ae78f21dd82fcd179","66620b840daabf601f4aa9b6","null","","null","","","","","","","","./tasks/HMM-beads/Images/WhiteBeadChoiceCorrect.png","","","","","","","","","",""
"image-keyboard-response","262","236713","0.0-3.0-6.0-1.0-0.41","65cccdae9209d332a4d29bca","6662009ae78f21dd82fcd179","66620b840daabf601f4aa9b6","80","","j","","","","","","","","./tasks/HMM-beads/Images/NewTrialWC.png","lowH","1","41","1","1","1","1","true","",""
"image-keyboard-response","263","237025","0.0-3.0-6.0-1.0-1.41","65cccdae9209d332a4d29bca","6662009ae78f21dd82fcd179","66620b840daabf601f4aa9b6","null","","null","","","","","","","","./tasks/HMM-beads/Images/WhiteBeadChoice.png","","","","","","","","","",""
"image-keyboard-response","264","237528","0.0-3.0-6.0-1.0-2.41","65cccdae9209d332a4d29bca","6662009ae78f21dd82fcd179","66620b840daabf601f4aa9b6","null","","null","","","","","","","","./tasks/HMM-beads/Images/WhiteBeadChoiceCorrect.png","","","","","","","","","",""
"image-keyboard-response","265","237561","0.0-3.0-6.0-1.0-0.42","65cccdae9209d332a4d29bca","6662009ae78f21dd82fcd179","66620b840daabf601f4aa9b6","33","","j","","","","","","","","./tasks/HMM-beads/Images/NewTrialWC.png","lowH","1","42","1","1","1","1","true","",""
"image-keyboard-response","266","237871","0.0-3.0-6.0-1.0-1.42","65cccdae9209d332a4d29bca","6662009ae78f21dd82fcd179","66620b840daabf601f4aa9b6","null","","null","","","","","","","","./tasks/HMM-beads/Images/WhiteBeadChoice.png","","","","","","","","","",""
"image-keyboard-response","267","238374","0.0-3.0-6.0-1.0-2.42","65cccdae9209d332a4d29bca","6662009ae78f21dd82fcd179","66620b840daabf601f4aa9b6","null","","null","","","","","","","","./tasks/HMM-beads/Images/WhiteBeadChoiceCorrect.png","","","","","","","","","",""
"image-keyboard-response","268","238433","0.0-3.0-6.0-1.0-0.43","65cccdae9209d332a4d29bca","6662009ae78f21dd82fcd179","66620b840daabf601f4aa9b6","56","","j","","","","","","","","./tasks/HMM-beads/Images/NewTrialWC.png","lowH","1","43","1","1","1","1","true","",""
"image-keyboard-response","269","238736","0.0-3.0-6.0-1.0-1.43","65cccdae9209d332a4d29bca","6662009ae78f21dd82fcd179","66620b840daabf601f4aa9b6","null","","null","","","","","","","","./tasks/HMM-beads/Images/WhiteBeadChoice.png","","","","","","","","","",""
"image-keyboard-response","270","239241","0.0-3.0-6.0-1.0-2.43","65cccdae9209d332a4d29bca","6662009ae78f21dd82fcd179","66620b840daabf601f4aa9b6","null","","null","","","","","","","","./tasks/HMM-beads/Images/WhiteBeadChoiceCorrect.png","","","","","","","","","",""
"image-keyboard-response","271","239321","0.0-3.0-6.0-1.0-0.44","65cccdae9209d332a4d29bca","6662009ae78f21dd82fcd179","66620b840daabf601f4aa9b6","78","","j","","","","","","","","./tasks/HMM-beads/Images/NewTrialWC.png","lowH","1","44","1","1","1","1","true","",""
"image-keyboard-response","272","239630","0.0-3.0-6.0-1.0-1.44","65cccdae9209d332a4d29bca","6662009ae78f21dd82fcd179","66620b840daabf601f4aa9b6","null","","null","","","","","","","","./tasks/HMM-beads/Images/WhiteBeadChoice.png","","","","","","","","","",""
"image-keyboard-response","273","240147","0.0-3.0-6.0-1.0-2.44","65cccdae9209d332a4d29bca","6662009ae78f21dd82fcd179","66620b840daabf601f4aa9b6","null","","null","","","","","","","","./tasks/HMM-beads/Images/WhiteBeadChoiceCorrect.png","","","","","","","","","",""
"image-keyboard-response","274","240273","0.0-3.0-6.0-1.0-0.45","65cccdae9209d332a4d29bca","6662009ae78f21dd82fcd179","66620b840daabf601f4aa9b6","125","","j","","","","","","","","./tasks/HMM-beads/Images/NewTrialWC.png","lowH","1","45","1","1","1","1","true","",""
"image-keyboard-response","275","240587","0.0-3.0-6.0-1.0-1.45","65cccdae9209d332a4d29bca","6662009ae78f21dd82fcd179","66620b840daabf601f4aa9b6","null","","null","","","","","","","","./tasks/HMM-beads/Images/WhiteBeadChoice.png","","","","","","","","","",""
"image-keyboard-response","276","241104","0.0-3.0-6.0-1.0-2.45","65cccdae9209d332a4d29bca","6662009ae78f21dd82fcd179","66620b840daabf601f4aa9b6","null","","null","","","","","","","","./tasks/HMM-beads/Images/WhiteBeadChoiceCorrect.png","","","","","","","","","",""
"image-keyboard-response","277","241185","0.0-3.0-6.0-1.0-0.46","65cccdae9209d332a4d29bca","6662009ae78f21dd82fcd179","66620b840daabf601f4aa9b6","80","","j","","","","","","","","./tasks/HMM-beads/Images/NewTrialWC.png","lowH","1","46","1","1","1","1","true","",""
"image-keyboard-response","278","241512","0.0-3.0-6.0-1.0-1.46","65cccdae9209d332a4d29bca","6662009ae78f21dd82fcd179","66620b840daabf601f4aa9b6","null","","null","","","","","","","","./tasks/HMM-beads/Images/WhiteBeadChoice.png","","","","","","","","","",""
"image-keyboard-response","279","242029","0.0-3.0-6.0-1.0-2.46","65cccdae9209d332a4d29bca","6662009ae78f21dd82fcd179","66620b840daabf601f4aa9b6","null","","null","","","","","","","","./tasks/HMM-beads/Images/WhiteBeadChoiceCorrect.png","","","","","","","","","",""
"image-keyboard-response","280","242401","0.0-3.0-6.0-1.0-0.47","65cccdae9209d332a4d29bca","6662009ae78f21dd82fcd179","66620b840daabf601f4aa9b6","369","","j","","","","","","","","./tasks/HMM-beads/Images/NewTrialWC.png","lowH","1","47","1","0","1","1","false","",""
"image-keyboard-response","281","242705","0.0-3.0-6.0-1.0-1.47","65cccdae9209d332a4d29bca","6662009ae78f21dd82fcd179","66620b840daabf601f4aa9b6","null","","null","","","","","","","","./tasks/HMM-beads/Images/WhiteBeadChoice.png","","","","","","","","","",""
"image-keyboard-response","282","243254","0.0-3.0-6.0-1.0-2.47","65cccdae9209d332a4d29bca","6662009ae78f21dd82fcd179","66620b840daabf601f4aa9b6","null","","null","","","","","","","","./tasks/HMM-beads/Images/WhiteBeadChoiceWrong.png","","","","","","","","","",""
"image-keyboard-response","283","243657","0.0-3.0-6.0-1.0-0.48","65cccdae9209d332a4d29bca","6662009ae78f21dd82fcd179","66620b840daabf601f4aa9b6","402","","j","","","","","","","","./tasks/HMM-beads/Images/NewTrialBC.png","lowH","1","48","1","0","0","1","false","",""
"image-keyboard-response","284","243962","0.0-3.0-6.0-1.0-1.48","65cccdae9209d332a4d29bca","6662009ae78f21dd82fcd179","66620b840daabf601f4aa9b6","null","","null","","","","","","","","./tasks/HMM-beads/Images/WhiteBeadChoice.png","","","","","","","","","",""
"image-keyboard-response","285","244464","0.0-3.0-6.0-1.0-2.48","65cccdae9209d332a4d29bca","6662009ae78f21dd82fcd179","66620b840daabf601f4aa9b6","null","","null","","","","","","","","./tasks/HMM-beads/Images/WhiteBeadChoiceWrong.png","","","","","","","","","",""
"image-keyboard-response","286","245081","0.0-3.0-6.0-1.0-0.49","65cccdae9209d332a4d29bca","6662009ae78f21dd82fcd179","66620b840daabf601f4aa9b6","615","","f","","","","","","","","./tasks/HMM-beads/Images/NewTrialBC.png","lowH","1","49","1","0","0","0","true","",""
"image-keyboard-response","287","245389","0.0-3.0-6.0-1.0-1.49","65cccdae9209d332a4d29bca","6662009ae78f21dd82fcd179","66620b840daabf601f4aa9b6","null","","null","","","","","","","","./tasks/HMM-beads/Images/BlackBeadChoice.png","","","","","","","","","",""
"image-keyboard-response","288","245891","0.0-3.0-6.0-1.0-2.49","65cccdae9209d332a4d29bca","6662009ae78f21dd82fcd179","66620b840daabf601f4aa9b6","null","","null","","","","","","","","./tasks/HMM-beads/Images/BlackBeadChoiceCorrect.png","","","","","","","","","",""
"image-keyboard-response","289","246265","0.0-3.0-6.0-1.0-0.50","65cccdae9209d332a4d29bca","6662009ae78f21dd82fcd179","66620b840daabf601f4aa9b6","373","","f","","","","","","","","./tasks/HMM-beads/Images/NewTrialBC.png","lowH","1","50","1","1","0","0","false","",""
"image-keyboard-response","290","246583","0.0-3.0-6.0-1.0-1.50","65cccdae9209d332a4d29bca","6662009ae78f21dd82fcd179","66620b840daabf601f4aa9b6","null","","null","","","","","","","","./tasks/HMM-beads/Images/BlackBeadChoice.png","","","","","","","","","",""
"image-keyboard-response","291","247099","0.0-3.0-6.0-1.0-2.50","65cccdae9209d332a4d29bca","6662009ae78f21dd82fcd179","66620b840daabf601f4aa9b6","null","","null","","","","","","","","./tasks/HMM-beads/Images/BlackBeadChoiceWrong.png","","","","","","","","","",""
"image-keyboard-response","292","247609","0.0-3.0-6.0-1.0-0.51","65cccdae9209d332a4d29bca","6662009ae78f21dd82fcd179","66620b840daabf601f4aa9b6","509","","f","","","","","","","","./tasks/HMM-beads/Images/NewTrialWC.png","lowH","1","51","1","1","1","0","false","",""
"image-keyboard-response","293","247917","0.0-3.0-6.0-1.0-1.51","65cccdae9209d332a4d29bca","6662009ae78f21dd82fcd179","66620b840daabf601f4aa9b6","null","","null","","","","","","","","./tasks/HMM-beads/Images/BlackBeadChoice.png","","","","","","","","","",""
"image-keyboard-response","294","248433","0.0-3.0-6.0-1.0-2.51","65cccdae9209d332a4d29bca","6662009ae78f21dd82fcd179","66620b840daabf601f4aa9b6","null","","null","","","","","","","","./tasks/HMM-beads/Images/BlackBeadChoiceWrong.png","","","","","","","","","",""
"image-keyboard-response","295","248825","0.0-3.0-6.0-1.0-0.52","65cccdae9209d332a4d29bca","6662009ae78f21dd82fcd179","66620b840daabf601f4aa9b6","391","","f","","","","","","","","./tasks/HMM-beads/Images/NewTrialWC.png","lowH","1","52","1","1","1","0","false","",""
"image-keyboard-response","296","249141","0.0-3.0-6.0-1.0-1.52","65cccdae9209d332a4d29bca","6662009ae78f21dd82fcd179","66620b840daabf601f4aa9b6","null","","null","","","","","","","","./tasks/HMM-beads/Images/BlackBeadChoice.png","","","","","","","","","",""
"image-keyboard-response","297","249656","0.0-3.0-6.0-1.0-2.52","65cccdae9209d332a4d29bca","6662009ae78f21dd82fcd179","66620b840daabf601f4aa9b6","null","","null","","","","","","","","./tasks/HMM-beads/Images/BlackBeadChoiceWrong.png","","","","","","","","","",""
"image-keyboard-response","298","249881","0.0-3.0-6.0-1.0-0.53","65cccdae9209d332a4d29bca","6662009ae78f21dd82fcd179","66620b840daabf601f4aa9b6","223","","j","","","","","","","","./tasks/HMM-beads/Images/NewTrialWC.png","lowH","1","53","1","1","1","1","true","",""
"image-keyboard-response","299","250192","0.0-3.0-6.0-1.0-1.53","65cccdae9209d332a4d29bca","6662009ae78f21dd82fcd179","66620b840daabf601f4aa9b6","null","","null","","","","","","","","./tasks/HMM-beads/Images/WhiteBeadChoice.png","","","","","","","","","",""
"image-keyboard-response","300","250709","0.0-3.0-6.0-1.0-2.53","65cccdae9209d332a4d29bca","6662009ae78f21dd82fcd179","66620b840daabf601f4aa9b6","null","","null","","","","","","","","./tasks/HMM-beads/Images/WhiteBeadChoiceCorrect.png","","","","","","","","","",""
"image-keyboard-response","301","250865","0.0-3.0-6.0-1.0-0.54","65cccdae9209d332a4d29bca","6662009ae78f21dd82fcd179","66620b840daabf601f4aa9b6","155","","j","","","","","","","","./tasks/HMM-beads/Images/NewTrialWC.png","lowH","1","54","1","1","1","1","true","",""
"image-keyboard-response","302","251180","0.0-3.0-6.0-1.0-1.54","65cccdae9209d332a4d29bca","6662009ae78f21dd82fcd179","66620b840daabf601f4aa9b6","null","","null","","","","","","","","./tasks/HMM-beads/Images/WhiteBeadChoice.png","","","","","","","","","",""
"image-keyboard-response","303","251682","0.0-3.0-6.0-1.0-2.54","65cccdae9209d332a4d29bca","6662009ae78f21dd82fcd179","66620b840daabf601f4aa9b6","null","","null","","","","","","","","./tasks/HMM-beads/Images/WhiteBeadChoiceCorrect.png","","","","","","","","","",""
"image-keyboard-response","304","251777","0.0-3.0-6.0-1.0-0.55","65cccdae9209d332a4d29bca","6662009ae78f21dd82fcd179","66620b840daabf601f4aa9b6","94","","j","","","","","","","","./tasks/HMM-beads/Images/NewTrialWC.png","lowH","1","55","1","1","1","1","true","",""
"image-keyboard-response","305","252098","0.0-3.0-6.0-1.0-1.55","65cccdae9209d332a4d29bca","6662009ae78f21dd82fcd179","66620b840daabf601f4aa9b6","null","","null","","","","","","","","./tasks/HMM-beads/Images/WhiteBeadChoice.png","","","","","","","","","",""
"image-keyboard-response","306","252611","0.0-3.0-6.0-1.0-2.55","65cccdae9209d332a4d29bca","6662009ae78f21dd82fcd179","66620b840daabf601f4aa9b6","null","","null","","","","","","","","./tasks/HMM-beads/Images/WhiteBeadChoiceCorrect.png","","","","","","","","","",""
"image-keyboard-response","307","252616","0.0-3.0-6.0-1.0-0.56","65cccdae9209d332a4d29bca","6662009ae78f21dd82fcd179","66620b840daabf601f4aa9b6","4","","j","","","","","","","","./tasks/HMM-beads/Images/NewTrialWC.png","lowH","1","56","1","1","1","1","true","",""
"image-keyboard-response","308","252923","0.0-3.0-6.0-1.0-1.56","65cccdae9209d332a4d29bca","6662009ae78f21dd82fcd179","66620b840daabf601f4aa9b6","null","","null","","","","","","","","./tasks/HMM-beads/Images/WhiteBeadChoice.png","","","","","","","","","",""
"image-keyboard-response","309","253424","0.0-3.0-6.0-1.0-2.56","65cccdae9209d332a4d29bca","6662009ae78f21dd82fcd179","66620b840daabf601f4aa9b6","null","","null","","","","","","","","./tasks/HMM-beads/Images/WhiteBeadChoiceCorrect.png","","","","","","","","","",""
"image-keyboard-response","310","253585","0.0-3.0-6.0-1.0-0.57","65cccdae9209d332a4d29bca","6662009ae78f21dd82fcd179","66620b840daabf601f4aa9b6","162","","j","","","","","","","","./tasks/HMM-beads/Images/NewTrialWC.png","lowH","1","57","1","1","1","1","true","",""
"image-keyboard-response","311","253894","0.0-3.0-6.0-1.0-1.57","65cccdae9209d332a4d29bca","6662009ae78f21dd82fcd179","66620b840daabf601f4aa9b6","null","","null","","","","","","","","./tasks/HMM-beads/Images/WhiteBeadChoice.png","","","","","","","","","",""
"image-keyboard-response","312","254397","0.0-3.0-6.0-1.0-2.57","65cccdae9209d332a4d29bca","6662009ae78f21dd82fcd179","66620b840daabf601f4aa9b6","null","","null","","","","","","","","./tasks/HMM-beads/Images/WhiteBeadChoiceCorrect.png","","","","","","","","","",""
"image-keyboard-response","313","255154","0.0-3.0-6.0-1.0-0.58","65cccdae9209d332a4d29bca","6662009ae78f21dd82fcd179","66620b840daabf601f4aa9b6","753","","j","","","","","","","","./tasks/HMM-beads/Images/NewTrialWC.png","lowH","1","58","1","1","1","1","true","",""
"image-keyboard-response","314","255465","0.0-3.0-6.0-1.0-1.58","65cccdae9209d332a4d29bca","6662009ae78f21dd82fcd179","66620b840daabf601f4aa9b6","null","","null","","","","","","","","./tasks/HMM-beads/Images/WhiteBeadChoice.png","","","","","","","","","",""
"image-keyboard-response","315","255967","0.0-3.0-6.0-1.0-2.58","65cccdae9209d332a4d29bca","6662009ae78f21dd82fcd179","66620b840daabf601f4aa9b6","null","","null","","","","","","","","./tasks/HMM-beads/Images/WhiteBeadChoiceCorrect.png","","","","","","","","","",""
"image-keyboard-response","316","257401","0.0-3.0-6.0-1.0-0.59","65cccdae9209d332a4d29bca","6662009ae78f21dd82fcd179","66620b840daabf601f4aa9b6","1433","","j","","","","","","","","./tasks/HMM-beads/Images/NewTrialWC.png","lowH","1","59","1","0","1","1","false","",""
"image-keyboard-response","317","257708","0.0-3.0-6.0-1.0-1.59","65cccdae9209d332a4d29bca","6662009ae78f21dd82fcd179","66620b840daabf601f4aa9b6","null","","null","","","","","","","","./tasks/HMM-beads/Images/WhiteBeadChoice.png","","","","","","","","","",""
"image-keyboard-response","318","258211","0.0-3.0-6.0-1.0-2.59","65cccdae9209d332a4d29bca","6662009ae78f21dd82fcd179","66620b840daabf601f4aa9b6","null","","null","","","","","","","","./tasks/HMM-beads/Images/WhiteBeadChoiceWrong.png","","","","","","","","","",""
"image-keyboard-response","319","258770","0.0-3.0-6.0-1.0-0.60","65cccdae9209d332a4d29bca","6662009ae78f21dd82fcd179","66620b840daabf601f4aa9b6","558","","j","","","","","","","","./tasks/HMM-beads/Images/NewTrialBC.png","lowH","1","60","1","1","0","1","true","",""
"image-keyboard-response","320","259073","0.0-3.0-6.0-1.0-1.60","65cccdae9209d332a4d29bca","6662009ae78f21dd82fcd179","66620b840daabf601f4aa9b6","null","","null","","","","","","","","./tasks/HMM-beads/Images/WhiteBeadChoice.png","","","","","","","","","",""
"image-keyboard-response","321","259575","0.0-3.0-6.0-1.0-2.60","65cccdae9209d332a4d29bca","6662009ae78f21dd82fcd179","66620b840daabf601f4aa9b6","null","","null","","","","","","","","./tasks/HMM-beads/Images/WhiteBeadChoiceCorrect.png","","","","","","","","","",""
"image-keyboard-response","322","259826","0.0-3.0-6.0-1.0-0.61","65cccdae9209d332a4d29bca","6662009ae78f21dd82fcd179","66620b840daabf601f4aa9b6","247","","j","","","","","","","","./tasks/HMM-beads/Images/NewTrialWC.png","lowH","1","61","1","1","1","1","true","",""
"image-keyboard-response","323","260140","0.0-3.0-6.0-1.0-1.61","65cccdae9209d332a4d29bca","6662009ae78f21dd82fcd179","66620b840daabf601f4aa9b6","null","","null","","","","","","","","./tasks/HMM-beads/Images/WhiteBeadChoice.png","","","","","","","","","",""
"image-keyboard-response","324","260643","0.0-3.0-6.0-1.0-2.61","65cccdae9209d332a4d29bca","6662009ae78f21dd82fcd179","66620b840daabf601f4aa9b6","null","","null","","","","","","","","./tasks/HMM-beads/Images/WhiteBeadChoiceCorrect.png","","","","","","","","","",""
"image-keyboard-response","325","260689","0.0-3.0-6.0-1.0-0.62","65cccdae9209d332a4d29bca","6662009ae78f21dd82fcd179","66620b840daabf601f4aa9b6","45","","j","","","","","","","","./tasks/HMM-beads/Images/NewTrialWC.png","lowH","1","62","1","0","1","1","false","",""
"image-keyboard-response","326","261004","0.0-3.0-6.0-1.0-1.62","65cccdae9209d332a4d29bca","6662009ae78f21dd82fcd179","66620b840daabf601f4aa9b6","null","","null","","","","","","","","./tasks/HMM-beads/Images/WhiteBeadChoice.png","","","","","","","","","",""
"image-keyboard-response","327","261505","0.0-3.0-6.0-1.0-2.62","65cccdae9209d332a4d29bca","6662009ae78f21dd82fcd179","66620b840daabf601f4aa9b6","null","","null","","","","","","","","./tasks/HMM-beads/Images/WhiteBeadChoiceWrong.png","","","","","","","","","",""
"image-keyboard-response","328","261593","0.0-3.0-6.0-1.0-0.63","65cccdae9209d332a4d29bca","6662009ae78f21dd82fcd179","66620b840daabf601f4aa9b6","87","","j","","","","","","","","./tasks/HMM-beads/Images/NewTrialBC.png","lowH","1","63","1","1","0","1","true","",""
"image-keyboard-response","329","261898","0.0-3.0-6.0-1.0-1.63","65cccdae9209d332a4d29bca","6662009ae78f21dd82fcd179","66620b840daabf601f4aa9b6","null","","null","","","","","","","","./tasks/HMM-beads/Images/WhiteBeadChoice.png","","","","","","","","","",""
"image-keyboard-response","330","262399","0.0-3.0-6.0-1.0-2.63","65cccdae9209d332a4d29bca","6662009ae78f21dd82fcd179","66620b840daabf601f4aa9b6","null","","null","","","","","","","","./tasks/HMM-beads/Images/WhiteBeadChoiceCorrect.png","","","","","","","","","",""
"image-keyboard-response","331","262432","0.0-3.0-6.0-1.0-0.64","65cccdae9209d332a4d29bca","6662009ae78f21dd82fcd179","66620b840daabf601f4aa9b6","32","","j","","","","","","","","./tasks/HMM-beads/Images/NewTrialWC.png","lowH","1","64","1","1","1","1","true","",""
"image-keyboard-response","332","262745","0.0-3.0-6.0-1.0-1.64","65cccdae9209d332a4d29bca","6662009ae78f21dd82fcd179","66620b840daabf601f4aa9b6","null","","null","","","","","","","","./tasks/HMM-beads/Images/WhiteBeadChoice.png","","","","","","","","","",""
"image-keyboard-response","333","263262","0.0-3.0-6.0-1.0-2.64","65cccdae9209d332a4d29bca","6662009ae78f21dd82fcd179","66620b840daabf601f4aa9b6","null","","null","","","","","","","","./tasks/HMM-beads/Images/WhiteBeadChoiceCorrect.png","","","","","","","","","",""
"image-keyboard-response","334","263273","0.0-3.0-6.0-1.0-0.65","65cccdae9209d332a4d29bca","6662009ae78f21dd82fcd179","66620b840daabf601f4aa9b6","10","","j","","","","","","","","./tasks/HMM-beads/Images/NewTrialWC.png","lowH","1","65","1","1","1","1","true","",""
"image-keyboard-response","335","263593","0.0-3.0-6.0-1.0-1.65","65cccdae9209d332a4d29bca","6662009ae78f21dd82fcd179","66620b840daabf601f4aa9b6","null","","null","","","","","","","","./tasks/HMM-beads/Images/WhiteBeadChoice.png","","","","","","","","","",""
"image-keyboard-response","336","264095","0.0-3.0-6.0-1.0-2.65","65cccdae9209d332a4d29bca","6662009ae78f21dd82fcd179","66620b840daabf601f4aa9b6","null","","null","","","","","","","","./tasks/HMM-beads/Images/WhiteBeadChoiceCorrect.png","","","","","","","","","",""
"image-keyboard-response","337","264561","0.0-3.0-6.0-1.0-0.66","65cccdae9209d332a4d29bca","6662009ae78f21dd82fcd179","66620b840daabf601f4aa9b6","466","","j","","","","","","","","./tasks/HMM-beads/Images/NewTrialWC.png","lowH","1","66","1","1","1","1","true","",""
"image-keyboard-response","338","264863","0.0-3.0-6.0-1.0-1.66","65cccdae9209d332a4d29bca","6662009ae78f21dd82fcd179","66620b840daabf601f4aa9b6","null","","null","","","","","","","","./tasks/HMM-beads/Images/WhiteBeadChoice.png","","","","","","","","","",""
"image-keyboard-response","339","265366","0.0-3.0-6.0-1.0-2.66","65cccdae9209d332a4d29bca","6662009ae78f21dd82fcd179","66620b840daabf601f4aa9b6","null","","null","","","","","","","","./tasks/HMM-beads/Images/WhiteBeadChoiceCorrect.png","","","","","","","","","",""
"image-keyboard-response","340","265746","0.0-3.0-6.0-1.0-0.67","65cccdae9209d332a4d29bca","6662009ae78f21dd82fcd179","66620b840daabf601f4aa9b6","379","","j","","","","","","","","./tasks/HMM-beads/Images/NewTrialWC.png","lowH","1","67","1","0","1","1","false","",""
"image-keyboard-response","341","266057","0.0-3.0-6.0-1.0-1.67","65cccdae9209d332a4d29bca","6662009ae78f21dd82fcd179","66620b840daabf601f4aa9b6","null","","null","","","","","","","","./tasks/HMM-beads/Images/WhiteBeadChoice.png","","","","","","","","","",""
"image-keyboard-response","342","266575","0.0-3.0-6.0-1.0-2.67","65cccdae9209d332a4d29bca","6662009ae78f21dd82fcd179","66620b840daabf601f4aa9b6","null","","null","","","","","","","","./tasks/HMM-beads/Images/WhiteBeadChoiceWrong.png","","","","","","","","","",""
"image-keyboard-response","343","266818","0.0-3.0-6.0-1.0-0.68","65cccdae9209d332a4d29bca","6662009ae78f21dd82fcd179","66620b840daabf601f4aa9b6","241","","j","","","","","","","","./tasks/HMM-beads/Images/NewTrialBC.png","lowH","1","68","1","1","0","1","true","",""
"image-keyboard-response","344","267123","0.0-3.0-6.0-1.0-1.68","65cccdae9209d332a4d29bca","6662009ae78f21dd82fcd179","66620b840daabf601f4aa9b6","null","","null","","","","","","","","./tasks/HMM-beads/Images/WhiteBeadChoice.png","","","","","","","","","",""
"image-keyboard-response","345","267626","0.0-3.0-6.0-1.0-2.68","65cccdae9209d332a4d29bca","6662009ae78f21dd82fcd179","66620b840daabf601f4aa9b6","null","","null","","","","","","","","./tasks/HMM-beads/Images/WhiteBeadChoiceCorrect.png","","","","","","","","","",""
"image-keyboard-response","346","267769","0.0-3.0-6.0-1.0-0.69","65cccdae9209d332a4d29bca","6662009ae78f21dd82fcd179","66620b840daabf601f4aa9b6","141","","j","","","","","","","","./tasks/HMM-beads/Images/NewTrialWC.png","lowH","1","69","0","1","1","1","true","",""
"image-keyboard-response","347","268080","0.0-3.0-6.0-1.0-1.69","65cccdae9209d332a4d29bca","6662009ae78f21dd82fcd179","66620b840daabf601f4aa9b6","null","","null","","","","","","","","./tasks/HMM-beads/Images/WhiteBeadChoice.png","","","","","","","","","",""
"image-keyboard-response","348","268584","0.0-3.0-6.0-1.0-2.69","65cccdae9209d332a4d29bca","6662009ae78f21dd82fcd179","66620b840daabf601f4aa9b6","null","","null","","","","","","","","./tasks/HMM-beads/Images/WhiteBeadChoiceCorrect.png","","","","","","","","","",""
"image-keyboard-response","349","268713","0.0-3.0-6.0-1.0-0.70","65cccdae9209d332a4d29bca","6662009ae78f21dd82fcd179","66620b840daabf601f4aa9b6","130","","j","","","","","","","","./tasks/HMM-beads/Images/NewTrialWC.png","lowH","1","70","0","1","1","1","true","",""
"image-keyboard-response","350","269024","0.0-3.0-6.0-1.0-1.70","65cccdae9209d332a4d29bca","6662009ae78f21dd82fcd179","66620b840daabf601f4aa9b6","null","","null","","","","","","","","./tasks/HMM-beads/Images/WhiteBeadChoice.png","","","","","","","","","",""
"image-keyboard-response","351","269540","0.0-3.0-6.0-1.0-2.70","65cccdae9209d332a4d29bca","6662009ae78f21dd82fcd179","66620b840daabf601f4aa9b6","null","","null","","","","","","","","./tasks/HMM-beads/Images/WhiteBeadChoiceCorrect.png","","","","","","","","","",""
"image-keyboard-response","352","269649","0.0-3.0-6.0-1.0-0.71","65cccdae9209d332a4d29bca","6662009ae78f21dd82fcd179","66620b840daabf601f4aa9b6","107","","j","","","","","","","","./tasks/HMM-beads/Images/NewTrialWC.png","lowH","1","71","0","0","1","1","false","",""
"image-keyboard-response","353","269964","0.0-3.0-6.0-1.0-1.71","65cccdae9209d332a4d29bca","6662009ae78f21dd82fcd179","66620b840daabf601f4aa9b6","null","","null","","","","","","","","./tasks/HMM-beads/Images/WhiteBeadChoice.png","","","","","","","","","",""
"image-keyboard-response","354","270481","0.0-3.0-6.0-1.0-2.71","65cccdae9209d332a4d29bca","6662009ae78f21dd82fcd179","66620b840daabf601f4aa9b6","null","","null","","","","","","","","./tasks/HMM-beads/Images/WhiteBeadChoiceWrong.png","","","","","","","","","",""
"image-keyboard-response","355","271009","0.0-3.0-6.0-1.0-0.72","65cccdae9209d332a4d29bca","6662009ae78f21dd82fcd179","66620b840daabf601f4aa9b6","524","","f","","","","","","","","./tasks/HMM-beads/Images/NewTrialBC.png","lowH","1","72","0","0","0","0","true","",""
"image-keyboard-response","356","271314","0.0-3.0-6.0-1.0-1.72","65cccdae9209d332a4d29bca","6662009ae78f21dd82fcd179","66620b840daabf601f4aa9b6","null","","null","","","","","","","","./tasks/HMM-beads/Images/BlackBeadChoice.png","","","","","","","","","",""
"image-keyboard-response","357","271816","0.0-3.0-6.0-1.0-2.72","65cccdae9209d332a4d29bca","6662009ae78f21dd82fcd179","66620b840daabf601f4aa9b6","null","","null","","","","","","","","./tasks/HMM-beads/Images/BlackBeadChoiceCorrect.png","","","","","","","","","",""
"image-keyboard-response","358","272360","0.0-3.0-6.0-1.0-0.73","65cccdae9209d332a4d29bca","6662009ae78f21dd82fcd179","66620b840daabf601f4aa9b6","544","","f","","","","","","","","./tasks/HMM-beads/Images/NewTrialBC.png","lowH","1","73","0","1","0","0","false","",""
"image-keyboard-response","359","272666","0.0-3.0-6.0-1.0-1.73","65cccdae9209d332a4d29bca","6662009ae78f21dd82fcd179","66620b840daabf601f4aa9b6","null","","null","","","","","","","","./tasks/HMM-beads/Images/BlackBeadChoice.png","","","","","","","","","",""
"image-keyboard-response","360","273180","0.0-3.0-6.0-1.0-2.73","65cccdae9209d332a4d29bca","6662009ae78f21dd82fcd179","66620b840daabf601f4aa9b6","null","","null","","","","","","","","./tasks/HMM-beads/Images/BlackBeadChoiceWrong.png","","","","","","","","","",""
"image-keyboard-response","361","273345","0.0-3.0-6.0-1.0-0.74","65cccdae9209d332a4d29bca","6662009ae78f21dd82fcd179","66620b840daabf601f4aa9b6","162","","j","","","","","","","","./tasks/HMM-beads/Images/NewTrialWC.png","lowH","1","74","0","0","1","1","false","",""
"image-keyboard-response","362","273652","0.0-3.0-6.0-1.0-1.74","65cccdae9209d332a4d29bca","6662009ae78f21dd82fcd179","66620b840daabf601f4aa9b6","null","","null","","","","","","","","./tasks/HMM-beads/Images/WhiteBeadChoice.png","","","","","","","","","",""
"image-keyboard-response","363","274155","0.0-3.0-6.0-1.0-2.74","65cccdae9209d332a4d29bca","6662009ae78f21dd82fcd179","66620b840daabf601f4aa9b6","null","","null","","","","","","","","./tasks/HMM-beads/Images/WhiteBeadChoiceWrong.png","","","","","","","","","",""
"image-keyboard-response","364","274290","0.0-3.0-6.0-1.0-0.75","65cccdae9209d332a4d29bca","6662009ae78f21dd82fcd179","66620b840daabf601f4aa9b6","134","","f","","","","","","","","./tasks/HMM-beads/Images/NewTrialBC.png","lowH","1","75","0","1","0","0","false","",""
"image-keyboard-response","365","274597","0.0-3.0-6.0-1.0-1.75","65cccdae9209d332a4d29bca","6662009ae78f21dd82fcd179","66620b840daabf601f4aa9b6","null","","null","","","","","","","","./tasks/HMM-beads/Images/BlackBeadChoice.png","","","","","","","","","",""
"image-keyboard-response","366","275111","0.0-3.0-6.0-1.0-2.75","65cccdae9209d332a4d29bca","6662009ae78f21dd82fcd179","66620b840daabf601f4aa9b6","null","","null","","","","","","","","./tasks/HMM-beads/Images/BlackBeadChoiceWrong.png","","","","","","","","","",""
"image-keyboard-response","367","275528","0.0-3.0-6.0-1.0-0.76","65cccdae9209d332a4d29bca","6662009ae78f21dd82fcd179","66620b840daabf601f4aa9b6","418","","j","","","","","","","","./tasks/HMM-beads/Images/NewTrialWC.png","lowH","1","76","0","1","1","1","true","",""
"image-keyboard-response","368","275833","0.0-3.0-6.0-1.0-1.76","65cccdae9209d332a4d29bca","6662009ae78f21dd82fcd179","66620b840daabf601f4aa9b6","null","","null","","","","","","","","./tasks/HMM-beads/Images/WhiteBeadChoice.png","","","","","","","","","",""
"image-keyboard-response","369","276335","0.0-3.0-6.0-1.0-2.76","65cccdae9209d332a4d29bca","6662009ae78f21dd82fcd179","66620b840daabf601f4aa9b6","null","","null","","","","","","","","./tasks/HMM-beads/Images/WhiteBeadChoiceCorrect.png","","","","","","","","","",""
"image-keyboard-response","370","276433","0.0-3.0-6.0-1.0-0.77","65cccdae9209d332a4d29bca","6662009ae78f21dd82fcd179","66620b840daabf601f4aa9b6","97","","j","","","","","","","","./tasks/HMM-beads/Images/NewTrialWC.png","lowH","1","77","0","0","1","1","false","",""
"image-keyboard-response","371","276743","0.0-3.0-6.0-1.0-1.77","65cccdae9209d332a4d29bca","6662009ae78f21dd82fcd179","66620b840daabf601f4aa9b6","null","","null","","","","","","","","./tasks/HMM-beads/Images/WhiteBeadChoice.png","","","","","","","","","",""
"image-keyboard-response","372","277294","0.0-3.0-6.0-1.0-2.77","65cccdae9209d332a4d29bca","6662009ae78f21dd82fcd179","66620b840daabf601f4aa9b6","null","","null","","","","","","","","./tasks/HMM-beads/Images/WhiteBeadChoiceWrong.png","","","","","","","","","",""
"image-keyboard-response","373","277689","0.0-3.0-6.0-1.0-0.78","65cccdae9209d332a4d29bca","6662009ae78f21dd82fcd179","66620b840daabf601f4aa9b6","394","","j","","","","","","","","./tasks/HMM-beads/Images/NewTrialBC.png","lowH","1","78","0","0","0","1","false","",""
