"trial_type","trial_index","time_elapsed","internal_node_id","subject_id","study_id","session_id","rt","url","response","question_order","view_history","success","timeout","failed_images","failed_audio","failed_video","stimulus","block","block_rep","trial_number","jar","bead","previous_bead","choice","correct","lowH_score","total_bonus"
"pavlovia","0","1240","0.0-0.0","660468936857e5fb0964cd60","6662009ae78f21dd82fcd179","6662074f98a9d5599327ca22","","","","","","","","","","","","","","","","","","","","",""
"external-html","1","15453","0.0-1.0-0.0","660468936857e5fb0964cd60","6662009ae78f21dd82fcd179","6662074f98a9d5599327ca22","14089","new_consent.html","","","","","","","","","","","","","","","","","","",""
"survey-multi-choice","2","20730","0.0-1.0-1.0","660468936857e5fb0964cd60","6662009ae78f21dd82fcd179","6662074f98a9d5599327ca22","5274","","{""Q0"":""Female"",""Q1"":""White""}","[0,1]","","","","","","","","","","","","","","","","",""
"survey-text","3","24538","0.0-1.0-2.0","660468936857e5fb0964cd60","6662009ae78f21dd82fcd179","6662074f98a9d5599327ca22","3802","","{""Q0"":""51""}","","","","","","","","","","","","","","","","","",""
"instructions","4","33469","0.0-2.0","660468936857e5fb0964cd60","6662009ae78f21dd82fcd179","6662074f98a9d5599327ca22","8820","","","","[{""page_index"":0,""viewing_time"":8820}]","","","","","","","","","","","","","","","",""
"preload","5","34571","0.0-3.0-0.0","660468936857e5fb0964cd60","6662009ae78f21dd82fcd179","6662074f98a9d5599327ca22","","","","","","true","false","[]","[]","[]","","","","","","","","","","",""
"instructions","6","118722","0.0-3.0-1.0","660468936857e5fb0964cd60","6662009ae78f21dd82fcd179","6662074f98a9d5599327ca22","84151","","","","[{""page_index"":0,""viewing_time"":14542},{""page_index"":1,""viewing_time"":5729},{""page_index"":2,""viewing_time"":4595},{""page_index"":3,""viewing_time"":3528},{""page_index"":4,""viewing_time"":11073},{""page_index"":5,""viewing_time"":18309},{""page_index"":6,""viewing_time"":7034},{""page_index"":7,""viewing_time"":5261},{""page_index"":8,""viewing_time"":3335},{""page_index"":9,""viewing_time"":3624},{""page_index"":10,""viewing_time"":4298},{""page_index"":11,""viewing_time"":2824}]","","","","","","","","","","","","","","","",""
"html-button-response","7","122221","0.0-3.0-2.0-0.0-0.0","660468936857e5fb0964cd60","6662009ae78f21dd82fcd179","6662074f98a9d5599327ca22","3497","","1","","","","","","","","<div align=center>Your goal is to predict…?<br><br></div>","","","","","","","","","",""
"html-button-response","8","131165","0.0-3.0-2.0-1.0-0.0","660468936857e5fb0964cd60","6662009ae78f21dd82fcd179","6662074f98a9d5599327ca22","6282","","2","","","","","","","","<div align=center>In the jar with mostly white beads, there are ___% white beads and ___% black beads?<br><br></div>","","","","","","","","","",""
"html-button-response","9","141348","0.0-3.0-2.0-2.0-0.0","660468936857e5fb0964cd60","6662009ae78f21dd82fcd179","6662074f98a9d5599327ca22","8625","","0","","","","","","","","<div align=center>When there is a 1% probability that the jars will switch, the next bead will most likely be drawn from the…<br><br></div>","","","","","","","","","",""
"html-button-response","10","146706","0.0-3.0-2.0-3.0-0.0","660468936857e5fb0964cd60","6662009ae78f21dd82fcd179","6662074f98a9d5599327ca22","3608","","1","","","","","","","","<div align=center>When there is a 99% probability that the jars will switch, the next bead will most likely be drawn from the…<br><br></div>","","","","","","","","","",""
"instructions","11","152553","0.0-3.0-3.0","660468936857e5fb0964cd60","6662009ae78f21dd82fcd179","6662074f98a9d5599327ca22","4563","","","","[{""page_index"":0,""viewing_time"":4562}]","","","","","","","","","","","","","","","",""
"html-keyboard-response","12","156084","0.0-3.0-4.0-0.0","660468936857e5fb0964cd60","6662009ae78f21dd82fcd179","6662074f98a9d5599327ca22","3530",""," ","","","","","","","","<div align=center>In this practice block, there will be a <b>1% chance</b> that the jar on the next trial will be different from the jar on the current trial.<br><br></div>","","","","","","","","","",""
"image-keyboard-response","13","159696","0.0-3.0-4.0-1.0-0.0","660468936857e5fb0964cd60","6662009ae78f21dd82fcd179","6662074f98a9d5599327ca22","3609","","f","","","","","","","","./tasks/HMM-beads/Images/NoChoice.png","practice","0","0","0","0","9","0","true","",""
"image-keyboard-response","14","160003","0.0-3.0-4.0-1.0-1.0","660468936857e5fb0964cd60","6662009ae78f21dd82fcd179","6662074f98a9d5599327ca22","null","","null","","","","","","","","./tasks/HMM-beads/Images/BlackBeadChoice.png","","","","","","","","","",""
"image-keyboard-response","15","160523","0.0-3.0-4.0-1.0-2.0","660468936857e5fb0964cd60","6662009ae78f21dd82fcd179","6662074f98a9d5599327ca22","null","","null","","","","","","","","./tasks/HMM-beads/Images/BlackBeadChoiceCorrect.png","","","","","","","","","",""
"image-keyboard-response","16","163474","0.0-3.0-4.0-1.0-0.1","660468936857e5fb0964cd60","6662009ae78f21dd82fcd179","6662074f98a9d5599327ca22","2950","","j","","","","","","","","./tasks/HMM-beads/Images/NewTrialBC.png","practice","0","1","0","0","0","1","false","",""
"image-keyboard-response","17","163783","0.0-3.0-4.0-1.0-1.1","660468936857e5fb0964cd60","6662009ae78f21dd82fcd179","6662074f98a9d5599327ca22","null","","null","","","","","","","","./tasks/HMM-beads/Images/WhiteBeadChoice.png","","","","","","","","","",""
"image-keyboard-response","18","164304","0.0-3.0-4.0-1.0-2.1","660468936857e5fb0964cd60","6662009ae78f21dd82fcd179","6662074f98a9d5599327ca22","null","","null","","","","","","","","./tasks/HMM-beads/Images/WhiteBeadChoiceWrong.png","","","","","","","","","",""
"image-keyboard-response","19","166532","0.0-3.0-4.0-1.0-0.2","660468936857e5fb0964cd60","6662009ae78f21dd82fcd179","6662074f98a9d5599327ca22","2227","","f","","","","","","","","./tasks/HMM-beads/Images/NewTrialBC.png","practice","0","2","0","1","0","0","false","",""
"image-keyboard-response","20","166848","0.0-3.0-4.0-1.0-1.2","660468936857e5fb0964cd60","6662009ae78f21dd82fcd179","6662074f98a9d5599327ca22","null","","null","","","","","","","","./tasks/HMM-beads/Images/BlackBeadChoice.png","","","","","","","","","",""
"image-keyboard-response","21","167367","0.0-3.0-4.0-1.0-2.2","660468936857e5fb0964cd60","6662009ae78f21dd82fcd179","6662074f98a9d5599327ca22","null","","null","","","","","","","","./tasks/HMM-beads/Images/BlackBeadChoiceWrong.png","","","","","","","","","",""
"image-keyboard-response","22","169150","0.0-3.0-4.0-1.0-0.3","660468936857e5fb0964cd60","6662009ae78f21dd82fcd179","6662074f98a9d5599327ca22","1782","","j","","","","","","","","./tasks/HMM-beads/Images/NewTrialWC.png","practice","0","3","0","0","1","1","false","",""
"image-keyboard-response","23","169457","0.0-3.0-4.0-1.0-1.3","660468936857e5fb0964cd60","6662009ae78f21dd82fcd179","6662074f98a9d5599327ca22","null","","null","","","","","","","","./tasks/HMM-beads/Images/WhiteBeadChoice.png","","","","","","","","","",""
"image-keyboard-response","24","169966","0.0-3.0-4.0-1.0-2.3","660468936857e5fb0964cd60","6662009ae78f21dd82fcd179","6662074f98a9d5599327ca22","null","","null","","","","","","","","./tasks/HMM-beads/Images/WhiteBeadChoiceWrong.png","","","","","","","","","",""
"image-keyboard-response","25","171326","0.0-3.0-4.0-1.0-0.4","660468936857e5fb0964cd60","6662009ae78f21dd82fcd179","6662074f98a9d5599327ca22","1359","","f","","","","","","","","./tasks/HMM-beads/Images/NewTrialBC.png","practice","0","4","0","0","0","0","true","",""
"image-keyboard-response","26","171630","0.0-3.0-4.0-1.0-1.4","660468936857e5fb0964cd60","6662009ae78f21dd82fcd179","6662074f98a9d5599327ca22","null","","null","","","","","","","","./tasks/HMM-beads/Images/BlackBeadChoice.png","","","","","","","","","",""
"image-keyboard-response","27","172143","0.0-3.0-4.0-1.0-2.4","660468936857e5fb0964cd60","6662009ae78f21dd82fcd179","6662074f98a9d5599327ca22","null","","null","","","","","","","","./tasks/HMM-beads/Images/BlackBeadChoiceCorrect.png","","","","","","","","","",""
"image-keyboard-response","28","173362","0.0-3.0-4.0-1.0-0.5","660468936857e5fb0964cd60","6662009ae78f21dd82fcd179","6662074f98a9d5599327ca22","1218","","f","","","","","","","","./tasks/HMM-beads/Images/NewTrialBC.png","practice","0","5","0","1","0","0","false","",""
"image-keyboard-response","29","173666","0.0-3.0-4.0-1.0-1.5","660468936857e5fb0964cd60","6662009ae78f21dd82fcd179","6662074f98a9d5599327ca22","null","","null","","","","","","","","./tasks/HMM-beads/Images/BlackBeadChoice.png","","","","","","","","","",""
"image-keyboard-response","30","174178","0.0-3.0-4.0-1.0-2.5","660468936857e5fb0964cd60","6662009ae78f21dd82fcd179","6662074f98a9d5599327ca22","null","","null","","","","","","","","./tasks/HMM-beads/Images/BlackBeadChoiceWrong.png","","","","","","","","","",""
"image-keyboard-response","31","174972","0.0-3.0-4.0-1.0-0.6","660468936857e5fb0964cd60","6662009ae78f21dd82fcd179","6662074f98a9d5599327ca22","793","","j","","","","","","","","./tasks/HMM-beads/Images/NewTrialWC.png","practice","0","6","0","0","1","1","false","",""
"image-keyboard-response","32","175283","0.0-3.0-4.0-1.0-1.6","660468936857e5fb0964cd60","6662009ae78f21dd82fcd179","6662074f98a9d5599327ca22","null","","null","","","","","","","","./tasks/HMM-beads/Images/WhiteBeadChoice.png","","","","","","","","","",""
"image-keyboard-response","33","175785","0.0-3.0-4.0-1.0-2.6","660468936857e5fb0964cd60","6662009ae78f21dd82fcd179","6662074f98a9d5599327ca22","null","","null","","","","","","","","./tasks/HMM-beads/Images/WhiteBeadChoiceWrong.png","","","","","","","","","",""
"image-keyboard-response","34","176460","0.0-3.0-4.0-1.0-0.7","660468936857e5fb0964cd60","6662009ae78f21dd82fcd179","6662074f98a9d5599327ca22","674","","f","","","","","","","","./tasks/HMM-beads/Images/NewTrialBC.png","practice","0","7","0","0","0","0","true","",""
"image-keyboard-response","35","176765","0.0-3.0-4.0-1.0-1.7","660468936857e5fb0964cd60","6662009ae78f21dd82fcd179","6662074f98a9d5599327ca22","null","","null","","","","","","","","./tasks/HMM-beads/Images/BlackBeadChoice.png","","","","","","","","","",""
"image-keyboard-response","36","177278","0.0-3.0-4.0-1.0-2.7","660468936857e5fb0964cd60","6662009ae78f21dd82fcd179","6662074f98a9d5599327ca22","null","","null","","","","","","","","./tasks/HMM-beads/Images/BlackBeadChoiceCorrect.png","","","","","","","","","",""
"image-keyboard-response","37","178018","0.0-3.0-4.0-1.0-0.8","660468936857e5fb0964cd60","6662009ae78f21dd82fcd179","6662074f98a9d5599327ca22","739","","f","","","","","","","","./tasks/HMM-beads/Images/NewTrialBC.png","practice","0","8","0","0","0","0","true","",""
"image-keyboard-response","38","178330","0.0-3.0-4.0-1.0-1.8","660468936857e5fb0964cd60","6662009ae78f21dd82fcd179","6662074f98a9d5599327ca22","null","","null","","","","","","","","./tasks/HMM-beads/Images/BlackBeadChoice.png","","","","","","","","","",""
"image-keyboard-response","39","178850","0.0-3.0-4.0-1.0-2.8","660468936857e5fb0964cd60","6662009ae78f21dd82fcd179","6662074f98a9d5599327ca22","null","","null","","","","","","","","./tasks/HMM-beads/Images/BlackBeadChoiceCorrect.png","","","","","","","","","",""
"image-keyboard-response","40","179550","0.0-3.0-4.0-1.0-0.9","660468936857e5fb0964cd60","6662009ae78f21dd82fcd179","6662074f98a9d5599327ca22","699","","j","","","","","","","","./tasks/HMM-beads/Images/NewTrialBC.png","practice","0","9","0","1","0","1","true","",""
"image-keyboard-response","41","179860","0.0-3.0-4.0-1.0-1.9","660468936857e5fb0964cd60","6662009ae78f21dd82fcd179","6662074f98a9d5599327ca22","null","","null","","","","","","","","./tasks/HMM-beads/Images/WhiteBeadChoice.png","","","","","","","","","",""
"image-keyboard-response","42","180370","0.0-3.0-4.0-1.0-2.9","660468936857e5fb0964cd60","6662009ae78f21dd82fcd179","6662074f98a9d5599327ca22","null","","null","","","","","","","","./tasks/HMM-beads/Images/WhiteBeadChoiceCorrect.png","","","","","","","","","",""
"image-keyboard-response","43","181176","0.0-3.0-4.0-1.0-0.10","660468936857e5fb0964cd60","6662009ae78f21dd82fcd179","6662074f98a9d5599327ca22","804","","j","","","","","","","","./tasks/HMM-beads/Images/NewTrialWC.png","practice","0","10","0","0","1","1","false","",""
"image-keyboard-response","44","181492","0.0-3.0-4.0-1.0-1.10","660468936857e5fb0964cd60","6662009ae78f21dd82fcd179","6662074f98a9d5599327ca22","null","","null","","","","","","","","./tasks/HMM-beads/Images/WhiteBeadChoice.png","","","","","","","","","",""
"image-keyboard-response","45","182004","0.0-3.0-4.0-1.0-2.10","660468936857e5fb0964cd60","6662009ae78f21dd82fcd179","6662074f98a9d5599327ca22","null","","null","","","","","","","","./tasks/HMM-beads/Images/WhiteBeadChoiceWrong.png","","","","","","","","","",""
"image-keyboard-response","46","182487","0.0-3.0-4.0-1.0-0.11","660468936857e5fb0964cd60","6662009ae78f21dd82fcd179","6662074f98a9d5599327ca22","482","","f","","","","","","","","./tasks/HMM-beads/Images/NewTrialBC.png","practice","0","11","0","1","0","0","false","",""
"image-keyboard-response","47","182798","0.0-3.0-4.0-1.0-1.11","660468936857e5fb0964cd60","6662009ae78f21dd82fcd179","6662074f98a9d5599327ca22","null","","null","","","","","","","","./tasks/HMM-beads/Images/BlackBeadChoice.png","","","","","","","","","",""
"image-keyboard-response","48","183317","0.0-3.0-4.0-1.0-2.11","660468936857e5fb0964cd60","6662009ae78f21dd82fcd179","6662074f98a9d5599327ca22","null","","null","","","","","","","","./tasks/HMM-beads/Images/BlackBeadChoiceWrong.png","","","","","","","","","",""
"image-keyboard-response","49","184012","0.0-3.0-4.0-1.0-0.12","660468936857e5fb0964cd60","6662009ae78f21dd82fcd179","6662074f98a9d5599327ca22","694","","f","","","","","","","","./tasks/HMM-beads/Images/NewTrialWC.png","practice","0","12","0","0","1","0","true","",""
"image-keyboard-response","50","184326","0.0-3.0-4.0-1.0-1.12","660468936857e5fb0964cd60","6662009ae78f21dd82fcd179","6662074f98a9d5599327ca22","null","","null","","","","","","","","./tasks/HMM-beads/Images/BlackBeadChoice.png","","","","","","","","","",""
"image-keyboard-response","51","184847","0.0-3.0-4.0-1.0-2.12","660468936857e5fb0964cd60","6662009ae78f21dd82fcd179","6662074f98a9d5599327ca22","null","","null","","","","","","","","./tasks/HMM-beads/Images/BlackBeadChoiceCorrect.png","","","","","","","","","",""
"image-keyboard-response","52","185400","0.0-3.0-4.0-1.0-0.13","660468936857e5fb0964cd60","6662009ae78f21dd82fcd179","6662074f98a9d5599327ca22","552","","j","","","","","","","","./tasks/HMM-beads/Images/NewTrialBC.png","practice","0","13","0","0","0","1","false","",""
"image-keyboard-response","53","185702","0.0-3.0-4.0-1.0-1.13","660468936857e5fb0964cd60","6662009ae78f21dd82fcd179","6662074f98a9d5599327ca22","null","","null","","","","","","","","./tasks/HMM-beads/Images/WhiteBeadChoice.png","","","","","","","","","",""
"image-keyboard-response","54","186219","0.0-3.0-4.0-1.0-2.13","660468936857e5fb0964cd60","6662009ae78f21dd82fcd179","6662074f98a9d5599327ca22","null","","null","","","","","","","","./tasks/HMM-beads/Images/WhiteBeadChoiceWrong.png","","","","","","","","","",""
"image-keyboard-response","55","186655","0.0-3.0-4.0-1.0-0.14","660468936857e5fb0964cd60","6662009ae78f21dd82fcd179","6662074f98a9d5599327ca22","435","","f","","","","","","","","./tasks/HMM-beads/Images/NewTrialBC.png","practice","0","14","0","0","0","0","true","",""
"image-keyboard-response","56","186963","0.0-3.0-4.0-1.0-1.14","660468936857e5fb0964cd60","6662009ae78f21dd82fcd179","6662074f98a9d5599327ca22","null","","null","","","","","","","","./tasks/HMM-beads/Images/BlackBeadChoice.png","","","","","","","","","",""
"image-keyboard-response","57","187477","0.0-3.0-4.0-1.0-2.14","660468936857e5fb0964cd60","6662009ae78f21dd82fcd179","6662074f98a9d5599327ca22","null","","null","","","","","","","","./tasks/HMM-beads/Images/BlackBeadChoiceCorrect.png","","","","","","","","","",""
"image-keyboard-response","58","188085","0.0-3.0-4.0-1.0-0.15","660468936857e5fb0964cd60","6662009ae78f21dd82fcd179","6662074f98a9d5599327ca22","608","","j","","","","","","","","./tasks/HMM-beads/Images/NewTrialBC.png","practice","0","15","0","0","0","1","false","",""
"image-keyboard-response","59","188387","0.0-3.0-4.0-1.0-1.15","660468936857e5fb0964cd60","6662009ae78f21dd82fcd179","6662074f98a9d5599327ca22","null","","null","","","","","","","","./tasks/HMM-beads/Images/WhiteBeadChoice.png","","","","","","","","","",""
"image-keyboard-response","60","188889","0.0-3.0-4.0-1.0-2.15","660468936857e5fb0964cd60","6662009ae78f21dd82fcd179","6662074f98a9d5599327ca22","null","","null","","","","","","","","./tasks/HMM-beads/Images/WhiteBeadChoiceWrong.png","","","","","","","","","",""
"image-keyboard-response","61","189394","0.0-3.0-4.0-1.0-0.16","660468936857e5fb0964cd60","6662009ae78f21dd82fcd179","6662074f98a9d5599327ca22","504","","f","","","","","","","","./tasks/HMM-beads/Images/NewTrialBC.png","practice","0","16","0","0","0","0","true","",""
"image-keyboard-response","62","189696","0.0-3.0-4.0-1.0-1.16","660468936857e5fb0964cd60","6662009ae78f21dd82fcd179","6662074f98a9d5599327ca22","null","","null","","","","","","","","./tasks/HMM-beads/Images/BlackBeadChoice.png","","","","","","","","","",""
"image-keyboard-response","63","190216","0.0-3.0-4.0-1.0-2.16","660468936857e5fb0964cd60","6662009ae78f21dd82fcd179","6662074f98a9d5599327ca22","null","","null","","","","","","","","./tasks/HMM-beads/Images/BlackBeadChoiceCorrect.png","","","","","","","","","",""
"image-keyboard-response","64","190673","0.0-3.0-4.0-1.0-0.17","660468936857e5fb0964cd60","6662009ae78f21dd82fcd179","6662074f98a9d5599327ca22","455","","f","","","","","","","","./tasks/HMM-beads/Images/NewTrialBC.png","practice","0","17","0","0","0","0","true","",""
"image-keyboard-response","65","190982","0.0-3.0-4.0-1.0-1.17","660468936857e5fb0964cd60","6662009ae78f21dd82fcd179","6662074f98a9d5599327ca22","null","","null","","","","","","","","./tasks/HMM-beads/Images/BlackBeadChoice.png","","","","","","","","","",""
"image-keyboard-response","66","191492","0.0-3.0-4.0-1.0-2.17","660468936857e5fb0964cd60","6662009ae78f21dd82fcd179","6662074f98a9d5599327ca22","null","","null","","","","","","","","./tasks/HMM-beads/Images/BlackBeadChoiceCorrect.png","","","","","","","","","",""
"image-keyboard-response","67","192080","0.0-3.0-4.0-1.0-0.18","660468936857e5fb0964cd60","6662009ae78f21dd82fcd179","6662074f98a9d5599327ca22","588","","f","","","","","","","","./tasks/HMM-beads/Images/NewTrialBC.png","practice","0","18","0","1","0","0","false","",""
"image-keyboard-response","68","192398","0.0-3.0-4.0-1.0-1.18","660468936857e5fb0964cd60","6662009ae78f21dd82fcd179","6662074f98a9d5599327ca22","null","","null","","","","","","","","./tasks/HMM-beads/Images/BlackBeadChoice.png","","","","","","","","","",""
"image-keyboard-response","69","192917","0.0-3.0-4.0-1.0-2.18","660468936857e5fb0964cd60","6662009ae78f21dd82fcd179","6662074f98a9d5599327ca22","null","","null","","","","","","","","./tasks/HMM-beads/Images/BlackBeadChoiceWrong.png","","","","","","","","","",""
"image-keyboard-response","70","193981","0.0-3.0-4.0-1.0-0.19","660468936857e5fb0964cd60","6662009ae78f21dd82fcd179","6662074f98a9d5599327ca22","1063","","j","","","","","","","","./tasks/HMM-beads/Images/NewTrialWC.png","practice","0","19","0","0","1","1","false","",""
"image-keyboard-response","71","194288","0.0-3.0-4.0-1.0-1.19","660468936857e5fb0964cd60","6662009ae78f21dd82fcd179","6662074f98a9d5599327ca22","null","","null","","","","","","","","./tasks/HMM-beads/Images/WhiteBeadChoice.png","","","","","","","","","",""
"image-keyboard-response","72","194809","0.0-3.0-4.0-1.0-2.19","660468936857e5fb0964cd60","6662009ae78f21dd82fcd179","6662074f98a9d5599327ca22","null","","null","","","","","","","","./tasks/HMM-beads/Images/WhiteBeadChoiceWrong.png","","","","","","","","","",""
"image-keyboard-response","73","195139","0.0-3.0-4.0-1.0-0.20","660468936857e5fb0964cd60","6662009ae78f21dd82fcd179","6662074f98a9d5599327ca22","329","","f","","","","","","","","./tasks/HMM-beads/Images/NewTrialBC.png","practice","0","20","0","0","0","0","true","",""
"image-keyboard-response","74","195456","0.0-3.0-4.0-1.0-1.20","660468936857e5fb0964cd60","6662009ae78f21dd82fcd179","6662074f98a9d5599327ca22","null","","null","","","","","","","","./tasks/HMM-beads/Images/BlackBeadChoice.png","","","","","","","","","",""
"image-keyboard-response","75","195965","0.0-3.0-4.0-1.0-2.20","660468936857e5fb0964cd60","6662009ae78f21dd82fcd179","6662074f98a9d5599327ca22","null","","null","","","","","","","","./tasks/HMM-beads/Images/BlackBeadChoiceCorrect.png","","","","","","","","","",""
"image-keyboard-response","76","196386","0.0-3.0-4.0-1.0-0.21","660468936857e5fb0964cd60","6662009ae78f21dd82fcd179","6662074f98a9d5599327ca22","420","","f","","","","","","","","./tasks/HMM-beads/Images/NewTrialBC.png","practice","0","21","0","1","0","0","false","",""
"image-keyboard-response","77","196689","0.0-3.0-4.0-1.0-1.21","660468936857e5fb0964cd60","6662009ae78f21dd82fcd179","6662074f98a9d5599327ca22","null","","null","","","","","","","","./tasks/HMM-beads/Images/BlackBeadChoice.png","","","","","","","","","",""
"image-keyboard-response","78","197205","0.0-3.0-4.0-1.0-2.21","660468936857e5fb0964cd60","6662009ae78f21dd82fcd179","6662074f98a9d5599327ca22","null","","null","","","","","","","","./tasks/HMM-beads/Images/BlackBeadChoiceWrong.png","","","","","","","","","",""
"image-keyboard-response","79","198609","0.0-3.0-4.0-1.0-0.22","660468936857e5fb0964cd60","6662009ae78f21dd82fcd179","6662074f98a9d5599327ca22","1403","","j","","","","","","","","./tasks/HMM-beads/Images/NewTrialWC.png","practice","0","22","1","1","1","1","true","",""
"image-keyboard-response","80","198916","0.0-3.0-4.0-1.0-1.22","660468936857e5fb0964cd60","6662009ae78f21dd82fcd179","6662074f98a9d5599327ca22","null","","null","","","","","","","","./tasks/HMM-beads/Images/WhiteBeadChoice.png","","","","","","","","","",""
"image-keyboard-response","81","199435","0.0-3.0-4.0-1.0-2.22","660468936857e5fb0964cd60","6662009ae78f21dd82fcd179","6662074f98a9d5599327ca22","null","","null","","","","","","","","./tasks/HMM-beads/Images/WhiteBeadChoiceCorrect.png","","","","","","","","","",""
"image-keyboard-response","82","199969","0.0-3.0-4.0-1.0-0.23","660468936857e5fb0964cd60","6662009ae78f21dd82fcd179","6662074f98a9d5599327ca22","533","","j","","","","","","","","./tasks/HMM-beads/Images/NewTrialWC.png","practice","0","23","1","0","1","1","false","",""
"image-keyboard-response","83","200272","0.0-3.0-4.0-1.0-1.23","660468936857e5fb0964cd60","6662009ae78f21dd82fcd179","6662074f98a9d5599327ca22","null","","null","","","","","","","","./tasks/HMM-beads/Images/WhiteBeadChoice.png","","","","","","","","","",""
"image-keyboard-response","84","200783","0.0-3.0-4.0-1.0-2.23","660468936857e5fb0964cd60","6662009ae78f21dd82fcd179","6662074f98a9d5599327ca22","null","","null","","","","","","","","./tasks/HMM-beads/Images/WhiteBeadChoiceWrong.png","","","","","","","","","",""
"image-keyboard-response","85","200804","0.0-3.0-4.0-1.0-0.24","660468936857e5fb0964cd60","6662009ae78f21dd82fcd179","6662074f98a9d5599327ca22","20","","f","","","","","","","","./tasks/HMM-beads/Images/NewTrialBC.png","practice","0","24","1","1","0","0","false","",""
"image-keyboard-response","86","201119","0.0-3.0-4.0-1.0-1.24","660468936857e5fb0964cd60","6662009ae78f21dd82fcd179","6662074f98a9d5599327ca22","null","","null","","","","","","","","./tasks/HMM-beads/Images/BlackBeadChoice.png","","","","","","","","","",""
"image-keyboard-response","87","201622","0.0-3.0-4.0-1.0-2.24","660468936857e5fb0964cd60","6662009ae78f21dd82fcd179","6662074f98a9d5599327ca22","null","","null","","","","","","","","./tasks/HMM-beads/Images/BlackBeadChoiceWrong.png","","","","","","","","","",""
"image-keyboard-response","88","201670","0.0-3.0-4.0-1.0-0.25","660468936857e5fb0964cd60","6662009ae78f21dd82fcd179","6662074f98a9d5599327ca22","47","","j","","","","","","","","./tasks/HMM-beads/Images/NewTrialWC.png","practice","0","25","1","1","1","1","true","",""
"image-keyboard-response","89","201987","0.0-3.0-4.0-1.0-1.25","660468936857e5fb0964cd60","6662009ae78f21dd82fcd179","6662074f98a9d5599327ca22","null","","null","","","","","","","","./tasks/HMM-beads/Images/WhiteBeadChoice.png","","","","","","","","","",""
"image-keyboard-response","90","202504","0.0-3.0-4.0-1.0-2.25","660468936857e5fb0964cd60","6662009ae78f21dd82fcd179","6662074f98a9d5599327ca22","null","","null","","","","","","","","./tasks/HMM-beads/Images/WhiteBeadChoiceCorrect.png","","","","","","","","","",""
"image-keyboard-response","91","202691","0.0-3.0-4.0-1.0-0.26","660468936857e5fb0964cd60","6662009ae78f21dd82fcd179","6662074f98a9d5599327ca22","185","","j","","","","","","","","./tasks/HMM-beads/Images/NewTrialWC.png","practice","0","26","1","1","1","1","true","",""
"image-keyboard-response","92","203011","0.0-3.0-4.0-1.0-1.26","660468936857e5fb0964cd60","6662009ae78f21dd82fcd179","6662074f98a9d5599327ca22","null","","null","","","","","","","","./tasks/HMM-beads/Images/WhiteBeadChoice.png","","","","","","","","","",""
"image-keyboard-response","93","203518","0.0-3.0-4.0-1.0-2.26","660468936857e5fb0964cd60","6662009ae78f21dd82fcd179","6662074f98a9d5599327ca22","null","","null","","","","","","","","./tasks/HMM-beads/Images/WhiteBeadChoiceCorrect.png","","","","","","","","","",""
"image-keyboard-response","94","203887","0.0-3.0-4.0-1.0-0.27","660468936857e5fb0964cd60","6662009ae78f21dd82fcd179","6662074f98a9d5599327ca22","368","","j","","","","","","","","./tasks/HMM-beads/Images/NewTrialWC.png","practice","0","27","1","1","1","1","true","",""
"image-keyboard-response","95","204198","0.0-3.0-4.0-1.0-1.27","660468936857e5fb0964cd60","6662009ae78f21dd82fcd179","6662074f98a9d5599327ca22","null","","null","","","","","","","","./tasks/HMM-beads/Images/WhiteBeadChoice.png","","","","","","","","","",""
"image-keyboard-response","96","204717","0.0-3.0-4.0-1.0-2.27","660468936857e5fb0964cd60","6662009ae78f21dd82fcd179","6662074f98a9d5599327ca22","null","","null","","","","","","","","./tasks/HMM-beads/Images/WhiteBeadChoiceCorrect.png","","","","","","","","","",""
"image-keyboard-response","97","205327","0.0-3.0-4.0-1.0-0.28","660468936857e5fb0964cd60","6662009ae78f21dd82fcd179","6662074f98a9d5599327ca22","609","","j","","","","","","","","./tasks/HMM-beads/Images/NewTrialWC.png","practice","0","28","1","0","1","1","false","",""
"image-keyboard-response","98","205630","0.0-3.0-4.0-1.0-1.28","660468936857e5fb0964cd60","6662009ae78f21dd82fcd179","6662074f98a9d5599327ca22","null","","null","","","","","","","","./tasks/HMM-beads/Images/WhiteBeadChoice.png","","","","","","","","","",""
"image-keyboard-response","99","206137","0.0-3.0-4.0-1.0-2.28","660468936857e5fb0964cd60","6662009ae78f21dd82fcd179","6662074f98a9d5599327ca22","null","","null","","","","","","","","./tasks/HMM-beads/Images/WhiteBeadChoiceWrong.png","","","","","","","","","",""
"image-keyboard-response","100","206401","0.0-3.0-4.0-1.0-0.29","660468936857e5fb0964cd60","6662009ae78f21dd82fcd179","6662074f98a9d5599327ca22","263","","f","","","","","","","","./tasks/HMM-beads/Images/NewTrialBC.png","practice","0","29","1","1","0","0","false","",""
"image-keyboard-response","101","206718","0.0-3.0-4.0-1.0-1.29","660468936857e5fb0964cd60","6662009ae78f21dd82fcd179","6662074f98a9d5599327ca22","null","","null","","","","","","","","./tasks/HMM-beads/Images/BlackBeadChoice.png","","","","","","","","","",""
"image-keyboard-response","102","207239","0.0-3.0-4.0-1.0-2.29","660468936857e5fb0964cd60","6662009ae78f21dd82fcd179","6662074f98a9d5599327ca22","null","","null","","","","","","","","./tasks/HMM-beads/Images/BlackBeadChoiceWrong.png","","","","","","","","","",""
"image-keyboard-response","103","207536","0.0-3.0-4.0-1.0-0.30","660468936857e5fb0964cd60","6662009ae78f21dd82fcd179","6662074f98a9d5599327ca22","296","","j","","","","","","","","./tasks/HMM-beads/Images/NewTrialWC.png","practice","0","30","1","0","1","1","false","",""
"image-keyboard-response","104","207851","0.0-3.0-4.0-1.0-1.30","660468936857e5fb0964cd60","6662009ae78f21dd82fcd179","6662074f98a9d5599327ca22","null","","null","","","","","","","","./tasks/HMM-beads/Images/WhiteBeadChoice.png","","","","","","","","","",""
"image-keyboard-response","105","208363","0.0-3.0-4.0-1.0-2.30","660468936857e5fb0964cd60","6662009ae78f21dd82fcd179","6662074f98a9d5599327ca22","null","","null","","","","","","","","./tasks/HMM-beads/Images/WhiteBeadChoiceWrong.png","","","","","","","","","",""
"image-keyboard-response","106","208647","0.0-3.0-4.0-1.0-0.31","660468936857e5fb0964cd60","6662009ae78f21dd82fcd179","6662074f98a9d5599327ca22","283","","f","","","","","","","","./tasks/HMM-beads/Images/NewTrialBC.png","practice","0","31","1","1","0","0","false","",""
"image-keyboard-response","107","208954","0.0-3.0-4.0-1.0-1.31","660468936857e5fb0964cd60","6662009ae78f21dd82fcd179","6662074f98a9d5599327ca22","null","","null","","","","","","","","./tasks/HMM-beads/Images/BlackBeadChoice.png","","","","","","","","","",""
"image-keyboard-response","108","209464","0.0-3.0-4.0-1.0-2.31","660468936857e5fb0964cd60","6662009ae78f21dd82fcd179","6662074f98a9d5599327ca22","null","","null","","","","","","","","./tasks/HMM-beads/Images/BlackBeadChoiceWrong.png","","","","","","","","","",""
"image-keyboard-response","109","209778","0.0-3.0-4.0-1.0-0.32","660468936857e5fb0964cd60","6662009ae78f21dd82fcd179","6662074f98a9d5599327ca22","313","","j","","","","","","","","./tasks/HMM-beads/Images/NewTrialWC.png","practice","0","32","1","1","1","1","true","",""
"image-keyboard-response","110","210088","0.0-3.0-4.0-1.0-1.32","660468936857e5fb0964cd60","6662009ae78f21dd82fcd179","6662074f98a9d5599327ca22","null","","null","","","","","","","","./tasks/HMM-beads/Images/WhiteBeadChoice.png","","","","","","","","","",""
"image-keyboard-response","111","210589","0.0-3.0-4.0-1.0-2.32","660468936857e5fb0964cd60","6662009ae78f21dd82fcd179","6662074f98a9d5599327ca22","null","","null","","","","","","","","./tasks/HMM-beads/Images/WhiteBeadChoiceCorrect.png","","","","","","","","","",""
"image-keyboard-response","112","210941","0.0-3.0-4.0-1.0-0.33","660468936857e5fb0964cd60","6662009ae78f21dd82fcd179","6662074f98a9d5599327ca22","350","","j","","","","","","","","./tasks/HMM-beads/Images/NewTrialWC.png","practice","0","33","1","1","1","1","true","",""
"image-keyboard-response","113","211252","0.0-3.0-4.0-1.0-1.33","660468936857e5fb0964cd60","6662009ae78f21dd82fcd179","6662074f98a9d5599327ca22","null","","null","","","","","","","","./tasks/HMM-beads/Images/WhiteBeadChoice.png","","","","","","","","","",""
"image-keyboard-response","114","211773","0.0-3.0-4.0-1.0-2.33","660468936857e5fb0964cd60","6662009ae78f21dd82fcd179","6662074f98a9d5599327ca22","null","","null","","","","","","","","./tasks/HMM-beads/Images/WhiteBeadChoiceCorrect.png","","","","","","","","","",""
"image-keyboard-response","115","212168","0.0-3.0-4.0-1.0-0.34","660468936857e5fb0964cd60","6662009ae78f21dd82fcd179","6662074f98a9d5599327ca22","393","","j","","","","","","","","./tasks/HMM-beads/Images/NewTrialWC.png","practice","0","34","1","1","1","1","true","",""
"image-keyboard-response","116","212469","0.0-3.0-4.0-1.0-1.34","660468936857e5fb0964cd60","6662009ae78f21dd82fcd179","6662074f98a9d5599327ca22","null","","null","","","","","","","","./tasks/HMM-beads/Images/WhiteBeadChoice.png","","","","","","","","","",""
"image-keyboard-response","117","212990","0.0-3.0-4.0-1.0-2.34","660468936857e5fb0964cd60","6662009ae78f21dd82fcd179","6662074f98a9d5599327ca22","null","","null","","","","","","","","./tasks/HMM-beads/Images/WhiteBeadChoiceCorrect.png","","","","","","","","","",""
"image-keyboard-response","118","213486","0.0-3.0-4.0-1.0-0.35","660468936857e5fb0964cd60","6662009ae78f21dd82fcd179","6662074f98a9d5599327ca22","496","","j","","","","","","","","./tasks/HMM-beads/Images/NewTrialWC.png","practice","0","35","1","1","1","1","true","",""
"image-keyboard-response","119","213802","0.0-3.0-4.0-1.0-1.35","660468936857e5fb0964cd60","6662009ae78f21dd82fcd179","6662074f98a9d5599327ca22","null","","null","","","","","","","","./tasks/HMM-beads/Images/WhiteBeadChoice.png","","","","","","","","","",""
"image-keyboard-response","120","214323","0.0-3.0-4.0-1.0-2.35","660468936857e5fb0964cd60","6662009ae78f21dd82fcd179","6662074f98a9d5599327ca22","null","","null","","","","","","","","./tasks/HMM-beads/Images/WhiteBeadChoiceCorrect.png","","","","","","","","","",""
"image-keyboard-response","121","214630","0.0-3.0-4.0-1.0-0.36","660468936857e5fb0964cd60","6662009ae78f21dd82fcd179","6662074f98a9d5599327ca22","307","","j","","","","","","","","./tasks/HMM-beads/Images/NewTrialWC.png","practice","0","36","1","0","1","1","false","",""
"image-keyboard-response","122","214933","0.0-3.0-4.0-1.0-1.36","660468936857e5fb0964cd60","6662009ae78f21dd82fcd179","6662074f98a9d5599327ca22","null","","null","","","","","","","","./tasks/HMM-beads/Images/WhiteBeadChoice.png","","","","","","","","","",""
"image-keyboard-response","123","215436","0.0-3.0-4.0-1.0-2.36","660468936857e5fb0964cd60","6662009ae78f21dd82fcd179","6662074f98a9d5599327ca22","null","","null","","","","","","","","./tasks/HMM-beads/Images/WhiteBeadChoiceWrong.png","","","","","","","","","",""
"image-keyboard-response","124","215817","0.0-3.0-4.0-1.0-0.37","660468936857e5fb0964cd60","6662009ae78f21dd82fcd179","6662074f98a9d5599327ca22","380","","f","","","","","","","","./tasks/HMM-beads/Images/NewTrialBC.png","practice","0","37","1","1","0","0","false","",""
"image-keyboard-response","125","216131","0.0-3.0-4.0-1.0-1.37","660468936857e5fb0964cd60","6662009ae78f21dd82fcd179","6662074f98a9d5599327ca22","null","","null","","","","","","","","./tasks/HMM-beads/Images/BlackBeadChoice.png","","","","","","","","","",""
"image-keyboard-response","126","216651","0.0-3.0-4.0-1.0-2.37","660468936857e5fb0964cd60","6662009ae78f21dd82fcd179","6662074f98a9d5599327ca22","null","","null","","","","","","","","./tasks/HMM-beads/Images/BlackBeadChoiceWrong.png","","","","","","","","","",""
"image-keyboard-response","127","216956","0.0-3.0-4.0-1.0-0.38","660468936857e5fb0964cd60","6662009ae78f21dd82fcd179","6662074f98a9d5599327ca22","304","","j","","","","","","","","./tasks/HMM-beads/Images/NewTrialWC.png","practice","0","38","1","1","1","1","true","",""
"image-keyboard-response","128","217266","0.0-3.0-4.0-1.0-1.38","660468936857e5fb0964cd60","6662009ae78f21dd82fcd179","6662074f98a9d5599327ca22","null","","null","","","","","","","","./tasks/HMM-beads/Images/WhiteBeadChoice.png","","","","","","","","","",""
"image-keyboard-response","129","217774","0.0-3.0-4.0-1.0-2.38","660468936857e5fb0964cd60","6662009ae78f21dd82fcd179","6662074f98a9d5599327ca22","null","","null","","","","","","","","./tasks/HMM-beads/Images/WhiteBeadChoiceCorrect.png","","","","","","","","","",""
"image-keyboard-response","130","218164","0.0-3.0-4.0-1.0-0.39","660468936857e5fb0964cd60","6662009ae78f21dd82fcd179","6662074f98a9d5599327ca22","389","","j","","","","","","","","./tasks/HMM-beads/Images/NewTrialWC.png","practice","0","39","1","1","1","1","true","",""
"image-keyboard-response","131","218480","0.0-3.0-4.0-1.0-1.39","660468936857e5fb0964cd60","6662009ae78f21dd82fcd179","6662074f98a9d5599327ca22","null","","null","","","","","","","","./tasks/HMM-beads/Images/WhiteBeadChoice.png","","","","","","","","","",""
"image-keyboard-response","132","218998","0.0-3.0-4.0-1.0-2.39","660468936857e5fb0964cd60","6662009ae78f21dd82fcd179","6662074f98a9d5599327ca22","null","","null","","","","","","","","./tasks/HMM-beads/Images/WhiteBeadChoiceCorrect.png","","","","","","","","","",""
"html-keyboard-response","133","228055","0.0-3.0-4.0-2.0","660468936857e5fb0964cd60","6662009ae78f21dd82fcd179","6662074f98a9d5599327ca22","9055",""," ","","","","","","","","","","","","","","","","","",""
"instructions","134","245865","0.0-3.0-5.0","660468936857e5fb0964cd60","6662009ae78f21dd82fcd179","6662074f98a9d5599327ca22","17810","","","","[{""page_index"":0,""viewing_time"":14496},{""page_index"":1,""viewing_time"":3314}]","","","","","","","","","","","","","","","",""
"html-keyboard-response","135","249154","0.0-3.0-6.0-0.0","660468936857e5fb0964cd60","6662009ae78f21dd82fcd179","6662074f98a9d5599327ca22","3288",""," ","","","","","","","","<div align=center>In this block, there will be a <b>1% chance</b> that the jar on the next trial will be different from the jar on the current trial.<br><br></div>","","","","","","","","","",""
"image-keyboard-response","136","251486","0.0-3.0-6.0-1.0-0.0","660468936857e5fb0964cd60","6662009ae78f21dd82fcd179","6662074f98a9d5599327ca22","2331","","f","","","","","","","","./tasks/HMM-beads/Images/NoChoice.png","lowH","1","0","1","0","9","0","true","",""
"image-keyboard-response","137","251801","0.0-3.0-6.0-1.0-1.0","660468936857e5fb0964cd60","6662009ae78f21dd82fcd179","6662074f98a9d5599327ca22","null","","null","","","","","","","","./tasks/HMM-beads/Images/BlackBeadChoice.png","","","","","","","","","",""
"image-keyboard-response","138","252302","0.0-3.0-6.0-1.0-2.0","660468936857e5fb0964cd60","6662009ae78f21dd82fcd179","6662074f98a9d5599327ca22","null","","null","","","","","","","","./tasks/HMM-beads/Images/BlackBeadChoiceCorrect.png","","","","","","","","","",""
"image-keyboard-response","139","253322","0.0-3.0-6.0-1.0-0.1","660468936857e5fb0964cd60","6662009ae78f21dd82fcd179","6662074f98a9d5599327ca22","1018","","f","","","","","","","","./tasks/HMM-beads/Images/NewTrialBC.png","lowH","1","1","1","1","0","0","false","",""
"image-keyboard-response","140","253632","0.0-3.0-6.0-1.0-1.1","660468936857e5fb0964cd60","6662009ae78f21dd82fcd179","6662074f98a9d5599327ca22","null","","null","","","","","","","","./tasks/HMM-beads/Images/BlackBeadChoice.png","","","","","","","","","",""
"image-keyboard-response","141","254140","0.0-3.0-6.0-1.0-2.1","660468936857e5fb0964cd60","6662009ae78f21dd82fcd179","6662074f98a9d5599327ca22","null","","null","","","","","","","","./tasks/HMM-beads/Images/BlackBeadChoiceWrong.png","","","","","","","","","",""
"image-keyboard-response","142","254192","0.0-3.0-6.0-1.0-0.2","660468936857e5fb0964cd60","6662009ae78f21dd82fcd179","6662074f98a9d5599327ca22","51","","j","","","","","","","","./tasks/HMM-beads/Images/NewTrialWC.png","lowH","1","2","1","1","1","1","true","",""
"image-keyboard-response","143","254505","0.0-3.0-6.0-1.0-1.2","660468936857e5fb0964cd60","6662009ae78f21dd82fcd179","6662074f98a9d5599327ca22","null","","null","","","","","","","","./tasks/HMM-beads/Images/WhiteBeadChoice.png","","","","","","","","","",""
"image-keyboard-response","144","255027","0.0-3.0-6.0-1.0-2.2","660468936857e5fb0964cd60","6662009ae78f21dd82fcd179","6662074f98a9d5599327ca22","null","","null","","","","","","","","./tasks/HMM-beads/Images/WhiteBeadChoiceCorrect.png","","","","","","","","","",""
"image-keyboard-response","145","255527","0.0-3.0-6.0-1.0-0.3","660468936857e5fb0964cd60","6662009ae78f21dd82fcd179","6662074f98a9d5599327ca22","499","","j","","","","","","","","./tasks/HMM-beads/Images/NewTrialWC.png","lowH","1","3","1","1","1","1","true","",""
"image-keyboard-response","146","255839","0.0-3.0-6.0-1.0-1.3","660468936857e5fb0964cd60","6662009ae78f21dd82fcd179","6662074f98a9d5599327ca22","null","","null","","","","","","","","./tasks/HMM-beads/Images/WhiteBeadChoice.png","","","","","","","","","",""
"image-keyboard-response","147","256356","0.0-3.0-6.0-1.0-2.3","660468936857e5fb0964cd60","6662009ae78f21dd82fcd179","6662074f98a9d5599327ca22","null","","null","","","","","","","","./tasks/HMM-beads/Images/WhiteBeadChoiceCorrect.png","","","","","","","","","",""
"image-keyboard-response","148","256875","0.0-3.0-6.0-1.0-0.4","660468936857e5fb0964cd60","6662009ae78f21dd82fcd179","6662074f98a9d5599327ca22","518","","f","","","","","","","","./tasks/HMM-beads/Images/NewTrialWC.png","lowH","1","4","1","1","1","0","false","",""
"image-keyboard-response","149","257182","0.0-3.0-6.0-1.0-1.4","660468936857e5fb0964cd60","6662009ae78f21dd82fcd179","6662074f98a9d5599327ca22","null","","null","","","","","","","","./tasks/HMM-beads/Images/BlackBeadChoice.png","","","","","","","","","",""
"image-keyboard-response","150","257690","0.0-3.0-6.0-1.0-2.4","660468936857e5fb0964cd60","6662009ae78f21dd82fcd179","6662074f98a9d5599327ca22","null","","null","","","","","","","","./tasks/HMM-beads/Images/BlackBeadChoiceWrong.png","","","","","","","","","",""
"image-keyboard-response","151","258110","0.0-3.0-6.0-1.0-0.5","660468936857e5fb0964cd60","6662009ae78f21dd82fcd179","6662074f98a9d5599327ca22","419","","j","","","","","","","","./tasks/HMM-beads/Images/NewTrialWC.png","lowH","1","5","1","1","1","1","true","",""
"image-keyboard-response","152","258415","0.0-3.0-6.0-1.0-1.5","660468936857e5fb0964cd60","6662009ae78f21dd82fcd179","6662074f98a9d5599327ca22","null","","null","","","","","","","","./tasks/HMM-beads/Images/WhiteBeadChoice.png","","","","","","","","","",""
"image-keyboard-response","153","258928","0.0-3.0-6.0-1.0-2.5","660468936857e5fb0964cd60","6662009ae78f21dd82fcd179","6662074f98a9d5599327ca22","null","","null","","","","","","","","./tasks/HMM-beads/Images/WhiteBeadChoiceCorrect.png","","","","","","","","","",""
"image-keyboard-response","154","259394","0.0-3.0-6.0-1.0-0.6","660468936857e5fb0964cd60","6662009ae78f21dd82fcd179","6662074f98a9d5599327ca22","466","","j","","","","","","","","./tasks/HMM-beads/Images/NewTrialWC.png","lowH","1","6","1","0","1","1","false","",""
"image-keyboard-response","155","259699","0.0-3.0-6.0-1.0-1.6","660468936857e5fb0964cd60","6662009ae78f21dd82fcd179","6662074f98a9d5599327ca22","null","","null","","","","","","","","./tasks/HMM-beads/Images/WhiteBeadChoice.png","","","","","","","","","",""
"image-keyboard-response","156","260219","0.0-3.0-6.0-1.0-2.6","660468936857e5fb0964cd60","6662009ae78f21dd82fcd179","6662074f98a9d5599327ca22","null","","null","","","","","","","","./tasks/HMM-beads/Images/WhiteBeadChoiceWrong.png","","","","","","","","","",""
"image-keyboard-response","157","260740","0.0-3.0-6.0-1.0-0.7","660468936857e5fb0964cd60","6662009ae78f21dd82fcd179","6662074f98a9d5599327ca22","520","","f","","","","","","","","./tasks/HMM-beads/Images/NewTrialBC.png","lowH","1","7","1","1","0","0","false","",""
"image-keyboard-response","158","261057","0.0-3.0-6.0-1.0-1.7","660468936857e5fb0964cd60","6662009ae78f21dd82fcd179","6662074f98a9d5599327ca22","null","","null","","","","","","","","./tasks/HMM-beads/Images/BlackBeadChoice.png","","","","","","","","","",""
"image-keyboard-response","159","261568","0.0-3.0-6.0-1.0-2.7","660468936857e5fb0964cd60","6662009ae78f21dd82fcd179","6662074f98a9d5599327ca22","null","","null","","","","","","","","./tasks/HMM-beads/Images/BlackBeadChoiceWrong.png","","","","","","","","","",""
"image-keyboard-response","160","262188","0.0-3.0-6.0-1.0-0.8","660468936857e5fb0964cd60","6662009ae78f21dd82fcd179","6662074f98a9d5599327ca22","619","","j","","","","","","","","./tasks/HMM-beads/Images/NewTrialWC.png","lowH","1","8","1","1","1","1","true","",""
"image-keyboard-response","161","262500","0.0-3.0-6.0-1.0-1.8","660468936857e5fb0964cd60","6662009ae78f21dd82fcd179","6662074f98a9d5599327ca22","null","","null","","","","","","","","./tasks/HMM-beads/Images/WhiteBeadChoice.png","","","","","","","","","",""
"image-keyboard-response","162","263002","0.0-3.0-6.0-1.0-2.8","660468936857e5fb0964cd60","6662009ae78f21dd82fcd179","6662074f98a9d5599327ca22","null","","null","","","","","","","","./tasks/HMM-beads/Images/WhiteBeadChoiceCorrect.png","","","","","","","","","",""
"image-keyboard-response","163","263506","0.0-3.0-6.0-1.0-0.9","660468936857e5fb0964cd60","6662009ae78f21dd82fcd179","6662074f98a9d5599327ca22","502","","f","","","","","","","","./tasks/HMM-beads/Images/NewTrialWC.png","lowH","1","9","1","1","1","0","false","",""
"image-keyboard-response","164","263819","0.0-3.0-6.0-1.0-1.9","660468936857e5fb0964cd60","6662009ae78f21dd82fcd179","6662074f98a9d5599327ca22","null","","null","","","","","","","","./tasks/HMM-beads/Images/BlackBeadChoice.png","","","","","","","","","",""
"image-keyboard-response","165","264338","0.0-3.0-6.0-1.0-2.9","660468936857e5fb0964cd60","6662009ae78f21dd82fcd179","6662074f98a9d5599327ca22","null","","null","","","","","","","","./tasks/HMM-beads/Images/BlackBeadChoiceWrong.png","","","","","","","","","",""
"image-keyboard-response","166","264786","0.0-3.0-6.0-1.0-0.10","660468936857e5fb0964cd60","6662009ae78f21dd82fcd179","6662074f98a9d5599327ca22","448","","j","","","","","","","","./tasks/HMM-beads/Images/NewTrialWC.png","lowH","1","10","1","1","1","1","true","",""
"image-keyboard-response","167","265091","0.0-3.0-6.0-1.0-1.10","660468936857e5fb0964cd60","6662009ae78f21dd82fcd179","6662074f98a9d5599327ca22","null","","null","","","","","","","","./tasks/HMM-beads/Images/WhiteBeadChoice.png","","","","","","","","","",""
"image-keyboard-response","168","265601","0.0-3.0-6.0-1.0-2.10","660468936857e5fb0964cd60","6662009ae78f21dd82fcd179","6662074f98a9d5599327ca22","null","","null","","","","","","","","./tasks/HMM-beads/Images/WhiteBeadChoiceCorrect.png","","","","","","","","","",""
"image-keyboard-response","169","266244","0.0-3.0-6.0-1.0-0.11","660468936857e5fb0964cd60","6662009ae78f21dd82fcd179","6662074f98a9d5599327ca22","643","","j","","","","","","","","./tasks/HMM-beads/Images/NewTrialWC.png","lowH","1","11","1","1","1","1","true","",""
"image-keyboard-response","170","266563","0.0-3.0-6.0-1.0-1.11","660468936857e5fb0964cd60","6662009ae78f21dd82fcd179","6662074f98a9d5599327ca22","null","","null","","","","","","","","./tasks/HMM-beads/Images/WhiteBeadChoice.png","","","","","","","","","",""
"image-keyboard-response","171","267083","0.0-3.0-6.0-1.0-2.11","660468936857e5fb0964cd60","6662009ae78f21dd82fcd179","6662074f98a9d5599327ca22","null","","null","","","","","","","","./tasks/HMM-beads/Images/WhiteBeadChoiceCorrect.png","","","","","","","","","",""
"image-keyboard-response","172","267603","0.0-3.0-6.0-1.0-0.12","660468936857e5fb0964cd60","6662009ae78f21dd82fcd179","6662074f98a9d5599327ca22","519","","f","","","","","","","","./tasks/HMM-beads/Images/NewTrialWC.png","lowH","1","12","1","1","1","0","false","",""
"image-keyboard-response","173","267910","0.0-3.0-6.0-1.0-1.12","660468936857e5fb0964cd60","6662009ae78f21dd82fcd179","6662074f98a9d5599327ca22","null","","null","","","","","","","","./tasks/HMM-beads/Images/BlackBeadChoice.png","","","","","","","","","",""
"image-keyboard-response","174","268417","0.0-3.0-6.0-1.0-2.12","660468936857e5fb0964cd60","6662009ae78f21dd82fcd179","6662074f98a9d5599327ca22","null","","null","","","","","","","","./tasks/HMM-beads/Images/BlackBeadChoiceWrong.png","","","","","","","","","",""
"image-keyboard-response","175","268865","0.0-3.0-6.0-1.0-0.13","660468936857e5fb0964cd60","6662009ae78f21dd82fcd179","6662074f98a9d5599327ca22","447","","j","","","","","","","","./tasks/HMM-beads/Images/NewTrialWC.png","lowH","1","13","1","0","1","1","false","",""
"image-keyboard-response","176","269179","0.0-3.0-6.0-1.0-1.13","660468936857e5fb0964cd60","6662009ae78f21dd82fcd179","6662074f98a9d5599327ca22","null","","null","","","","","","","","./tasks/HMM-beads/Images/WhiteBeadChoice.png","","","","","","","","","",""
"image-keyboard-response","177","269695","0.0-3.0-6.0-1.0-2.13","660468936857e5fb0964cd60","6662009ae78f21dd82fcd179","6662074f98a9d5599327ca22","null","","null","","","","","","","","./tasks/HMM-beads/Images/WhiteBeadChoiceWrong.png","","","","","","","","","",""
"image-keyboard-response","178","270121","0.0-3.0-6.0-1.0-0.14","660468936857e5fb0964cd60","6662009ae78f21dd82fcd179","6662074f98a9d5599327ca22","425","","f","","","","","","","","./tasks/HMM-beads/Images/NewTrialBC.png","lowH","1","14","1","0","0","0","true","",""
"image-keyboard-response","179","270437","0.0-3.0-6.0-1.0-1.14","660468936857e5fb0964cd60","6662009ae78f21dd82fcd179","6662074f98a9d5599327ca22","null","","null","","","","","","","","./tasks/HMM-beads/Images/BlackBeadChoice.png","","","","","","","","","",""
"image-keyboard-response","180","270956","0.0-3.0-6.0-1.0-2.14","660468936857e5fb0964cd60","6662009ae78f21dd82fcd179","6662074f98a9d5599327ca22","null","","null","","","","","","","","./tasks/HMM-beads/Images/BlackBeadChoiceCorrect.png","","","","","","","","","",""
"image-keyboard-response","181","271417","0.0-3.0-6.0-1.0-0.15","660468936857e5fb0964cd60","6662009ae78f21dd82fcd179","6662074f98a9d5599327ca22","460","","f","","","","","","","","./tasks/HMM-beads/Images/NewTrialBC.png","lowH","1","15","1","1","0","0","false","",""
"image-keyboard-response","182","271730","0.0-3.0-6.0-1.0-1.15","660468936857e5fb0964cd60","6662009ae78f21dd82fcd179","6662074f98a9d5599327ca22","null","","null","","","","","","","","./tasks/HMM-beads/Images/BlackBeadChoice.png","","","","","","","","","",""
"image-keyboard-response","183","272251","0.0-3.0-6.0-1.0-2.15","660468936857e5fb0964cd60","6662009ae78f21dd82fcd179","6662074f98a9d5599327ca22","null","","null","","","","","","","","./tasks/HMM-beads/Images/BlackBeadChoiceWrong.png","","","","","","","","","",""
"image-keyboard-response","184","272588","0.0-3.0-6.0-1.0-0.16","660468936857e5fb0964cd60","6662009ae78f21dd82fcd179","6662074f98a9d5599327ca22","336","","j","","","","","","","","./tasks/HMM-beads/Images/NewTrialWC.png","lowH","1","16","1","1","1","1","true","",""
"image-keyboard-response","185","272894","0.0-3.0-6.0-1.0-1.16","660468936857e5fb0964cd60","6662009ae78f21dd82fcd179","6662074f98a9d5599327ca22","null","","null","","","","","","","","./tasks/HMM-beads/Images/WhiteBeadChoice.png","","","","","","","","","",""
"image-keyboard-response","186","273404","0.0-3.0-6.0-1.0-2.16","660468936857e5fb0964cd60","6662009ae78f21dd82fcd179","6662074f98a9d5599327ca22","null","","null","","","","","","","","./tasks/HMM-beads/Images/WhiteBeadChoiceCorrect.png","","","","","","","","","",""
"image-keyboard-response","187","273843","0.0-3.0-6.0-1.0-0.17","660468936857e5fb0964cd60","6662009ae78f21dd82fcd179","6662074f98a9d5599327ca22","438","","j","","","","","","","","./tasks/HMM-beads/Images/NewTrialWC.png","lowH","1","17","1","1","1","1","true","",""
"image-keyboard-response","188","274147","0.0-3.0-6.0-1.0-1.17","660468936857e5fb0964cd60","6662009ae78f21dd82fcd179","6662074f98a9d5599327ca22","null","","null","","","","","","","","./tasks/HMM-beads/Images/WhiteBeadChoice.png","","","","","","","","","",""
"image-keyboard-response","189","274657","0.0-3.0-6.0-1.0-2.17","660468936857e5fb0964cd60","6662009ae78f21dd82fcd179","6662074f98a9d5599327ca22","null","","null","","","","","","","","./tasks/HMM-beads/Images/WhiteBeadChoiceCorrect.png","","","","","","","","","",""
"image-keyboard-response","190","275094","0.0-3.0-6.0-1.0-0.18","660468936857e5fb0964cd60","6662009ae78f21dd82fcd179","6662074f98a9d5599327ca22","436","","j","","","","","","","","./tasks/HMM-beads/Images/NewTrialWC.png","lowH","1","18","1","1","1","1","true","",""
"image-keyboard-response","191","275414","0.0-3.0-6.0-1.0-1.18","660468936857e5fb0964cd60","6662009ae78f21dd82fcd179","6662074f98a9d5599327ca22","null","","null","","","","","","","","./tasks/HMM-beads/Images/WhiteBeadChoice.png","","","","","","","","","",""
"image-keyboard-response","192","275934","0.0-3.0-6.0-1.0-2.18","660468936857e5fb0964cd60","6662009ae78f21dd82fcd179","6662074f98a9d5599327ca22","null","","null","","","","","","","","./tasks/HMM-beads/Images/WhiteBeadChoiceCorrect.png","","","","","","","","","",""
"image-keyboard-response","193","276452","0.0-3.0-6.0-1.0-0.19","660468936857e5fb0964cd60","6662009ae78f21dd82fcd179","6662074f98a9d5599327ca22","518","","j","","","","","","","","./tasks/HMM-beads/Images/NewTrialWC.png","lowH","1","19","1","1","1","1","true","",""
"image-keyboard-response","194","276761","0.0-3.0-6.0-1.0-1.19","660468936857e5fb0964cd60","6662009ae78f21dd82fcd179","6662074f98a9d5599327ca22","null","","null","","","","","","","","./tasks/HMM-beads/Images/WhiteBeadChoice.png","","","","","","","","","",""
"image-keyboard-response","195","277280","0.0-3.0-6.0-1.0-2.19","660468936857e5fb0964cd60","6662009ae78f21dd82fcd179","6662074f98a9d5599327ca22","null","","null","","","","","","","","./tasks/HMM-beads/Images/WhiteBeadChoiceCorrect.png","","","","","","","","","",""
"image-keyboard-response","196","282440","0.0-3.0-6.0-1.0-0.20","660468936857e5fb0964cd60","6662009ae78f21dd82fcd179","6662074f98a9d5599327ca22","5159","","j","","","","","","","","./tasks/HMM-beads/Images/NewTrialWC.png","lowH","1","20","1","1","1","1","true","",""
"image-keyboard-response","197","282743","0.0-3.0-6.0-1.0-1.20","660468936857e5fb0964cd60","6662009ae78f21dd82fcd179","6662074f98a9d5599327ca22","null","","null","","","","","","","","./tasks/HMM-beads/Images/WhiteBeadChoice.png","","","","","","","","","",""
"image-keyboard-response","198","283261","0.0-3.0-6.0-1.0-2.20","660468936857e5fb0964cd60","6662009ae78f21dd82fcd179","6662074f98a9d5599327ca22","null","","null","","","","","","","","./tasks/HMM-beads/Images/WhiteBeadChoiceCorrect.png","","","","","","","","","",""
"image-keyboard-response","199","284294","0.0-3.0-6.0-1.0-0.21","660468936857e5fb0964cd60","6662009ae78f21dd82fcd179","6662074f98a9d5599327ca22","1032","","f","","","","","","","","./tasks/HMM-beads/Images/NewTrialWC.png","lowH","1","21","1","1","1","0","false","",""
"image-keyboard-response","200","284601","0.0-3.0-6.0-1.0-1.21","660468936857e5fb0964cd60","6662009ae78f21dd82fcd179","6662074f98a9d5599327ca22","null","","null","","","","","","","","./tasks/HMM-beads/Images/BlackBeadChoice.png","","","","","","","","","",""
"image-keyboard-response","201","285103","0.0-3.0-6.0-1.0-2.21","660468936857e5fb0964cd60","6662009ae78f21dd82fcd179","6662074f98a9d5599327ca22","null","","null","","","","","","","","./tasks/HMM-beads/Images/BlackBeadChoiceWrong.png","","","","","","","","","",""
"image-keyboard-response","202","286360","0.0-3.0-6.0-1.0-0.22","660468936857e5fb0964cd60","6662009ae78f21dd82fcd179","6662074f98a9d5599327ca22","1256","","f","","","","","","","","./tasks/HMM-beads/Images/NewTrialWC.png","lowH","1","22","1","1","1","0","false","",""
"image-keyboard-response","203","286676","0.0-3.0-6.0-1.0-1.22","660468936857e5fb0964cd60","6662009ae78f21dd82fcd179","6662074f98a9d5599327ca22","null","","null","","","","","","","","./tasks/HMM-beads/Images/BlackBeadChoice.png","","","","","","","","","",""
"image-keyboard-response","204","287178","0.0-3.0-6.0-1.0-2.22","660468936857e5fb0964cd60","6662009ae78f21dd82fcd179","6662074f98a9d5599327ca22","null","","null","","","","","","","","./tasks/HMM-beads/Images/BlackBeadChoiceWrong.png","","","","","","","","","",""
"image-keyboard-response","205","288177","0.0-3.0-6.0-1.0-0.23","660468936857e5fb0964cd60","6662009ae78f21dd82fcd179","6662074f98a9d5599327ca22","999","","f","","","","","","","","./tasks/HMM-beads/Images/NewTrialWC.png","lowH","1","23","1","1","1","0","false","",""
"image-keyboard-response","206","288496","0.0-3.0-6.0-1.0-1.23","660468936857e5fb0964cd60","6662009ae78f21dd82fcd179","6662074f98a9d5599327ca22","null","","null","","","","","","","","./tasks/HMM-beads/Images/BlackBeadChoice.png","","","","","","","","","",""
"image-keyboard-response","207","289018","0.0-3.0-6.0-1.0-2.23","660468936857e5fb0964cd60","6662009ae78f21dd82fcd179","6662074f98a9d5599327ca22","null","","null","","","","","","","","./tasks/HMM-beads/Images/BlackBeadChoiceWrong.png","","","","","","","","","",""
"image-keyboard-response","208","290046","0.0-3.0-6.0-1.0-0.24","660468936857e5fb0964cd60","6662009ae78f21dd82fcd179","6662074f98a9d5599327ca22","1027","","f","","","","","","","","./tasks/HMM-beads/Images/NewTrialWC.png","lowH","1","24","1","0","1","0","true","",""
"image-keyboard-response","209","290358","0.0-3.0-6.0-1.0-1.24","660468936857e5fb0964cd60","6662009ae78f21dd82fcd179","6662074f98a9d5599327ca22","null","","null","","","","","","","","./tasks/HMM-beads/Images/BlackBeadChoice.png","","","","","","","","","",""
"image-keyboard-response","210","290866","0.0-3.0-6.0-1.0-2.24","660468936857e5fb0964cd60","6662009ae78f21dd82fcd179","6662074f98a9d5599327ca22","null","","null","","","","","","","","./tasks/HMM-beads/Images/BlackBeadChoiceCorrect.png","","","","","","","","","",""
"image-keyboard-response","211","291307","0.0-3.0-6.0-1.0-0.25","660468936857e5fb0964cd60","6662009ae78f21dd82fcd179","6662074f98a9d5599327ca22","440","","j","","","","","","","","./tasks/HMM-beads/Images/NewTrialBC.png","lowH","1","25","1","1","0","1","true","",""
"image-keyboard-response","212","291627","0.0-3.0-6.0-1.0-1.25","660468936857e5fb0964cd60","6662009ae78f21dd82fcd179","6662074f98a9d5599327ca22","null","","null","","","","","","","","./tasks/HMM-beads/Images/WhiteBeadChoice.png","","","","","","","","","",""
"image-keyboard-response","213","292149","0.0-3.0-6.0-1.0-2.25","660468936857e5fb0964cd60","6662009ae78f21dd82fcd179","6662074f98a9d5599327ca22","null","","null","","","","","","","","./tasks/HMM-beads/Images/WhiteBeadChoiceCorrect.png","","","","","","","","","",""
"image-keyboard-response","214","292669","0.0-3.0-6.0-1.0-0.26","660468936857e5fb0964cd60","6662009ae78f21dd82fcd179","6662074f98a9d5599327ca22","519","","f","","","","","","","","./tasks/HMM-beads/Images/NewTrialWC.png","lowH","1","26","1","0","1","0","true","",""
"image-keyboard-response","215","292976","0.0-3.0-6.0-1.0-1.26","660468936857e5fb0964cd60","6662009ae78f21dd82fcd179","6662074f98a9d5599327ca22","null","","null","","","","","","","","./tasks/HMM-beads/Images/BlackBeadChoice.png","","","","","","","","","",""
"image-keyboard-response","216","293496","0.0-3.0-6.0-1.0-2.26","660468936857e5fb0964cd60","6662009ae78f21dd82fcd179","6662074f98a9d5599327ca22","null","","null","","","","","","","","./tasks/HMM-beads/Images/BlackBeadChoiceCorrect.png","","","","","","","","","",""
"image-keyboard-response","217","293702","0.0-3.0-6.0-1.0-0.27","660468936857e5fb0964cd60","6662009ae78f21dd82fcd179","6662074f98a9d5599327ca22","205","","j","","","","","","","","./tasks/HMM-beads/Images/NewTrialBC.png","lowH","1","27","1","1","0","1","true","",""
"image-keyboard-response","218","294006","0.0-3.0-6.0-1.0-1.27","660468936857e5fb0964cd60","6662009ae78f21dd82fcd179","6662074f98a9d5599327ca22","null","","null","","","","","","","","./tasks/HMM-beads/Images/WhiteBeadChoice.png","","","","","","","","","",""
"image-keyboard-response","219","294518","0.0-3.0-6.0-1.0-2.27","660468936857e5fb0964cd60","6662009ae78f21dd82fcd179","6662074f98a9d5599327ca22","null","","null","","","","","","","","./tasks/HMM-beads/Images/WhiteBeadChoiceCorrect.png","","","","","","","","","",""
"image-keyboard-response","220","296112","0.0-3.0-6.0-1.0-0.28","660468936857e5fb0964cd60","6662009ae78f21dd82fcd179","6662074f98a9d5599327ca22","1593","","f","","","","","","","","./tasks/HMM-beads/Images/NewTrialWC.png","lowH","1","28","1","1","1","0","false","",""
"image-keyboard-response","221","296419","0.0-3.0-6.0-1.0-1.28","660468936857e5fb0964cd60","6662009ae78f21dd82fcd179","6662074f98a9d5599327ca22","null","","null","","","","","","","","./tasks/HMM-beads/Images/BlackBeadChoice.png","","","","","","","","","",""
"image-keyboard-response","222","296940","0.0-3.0-6.0-1.0-2.28","660468936857e5fb0964cd60","6662009ae78f21dd82fcd179","6662074f98a9d5599327ca22","null","","null","","","","","","","","./tasks/HMM-beads/Images/BlackBeadChoiceWrong.png","","","","","","","","","",""
"image-keyboard-response","223","297343","0.0-3.0-6.0-1.0-0.29","660468936857e5fb0964cd60","6662009ae78f21dd82fcd179","6662074f98a9d5599327ca22","402","","f","","","","","","","","./tasks/HMM-beads/Images/NewTrialWC.png","lowH","1","29","1","1","1","0","false","",""
"image-keyboard-response","224","297653","0.0-3.0-6.0-1.0-1.29","660468936857e5fb0964cd60","6662009ae78f21dd82fcd179","6662074f98a9d5599327ca22","null","","null","","","","","","","","./tasks/HMM-beads/Images/BlackBeadChoice.png","","","","","","","","","",""
"image-keyboard-response","225","298155","0.0-3.0-6.0-1.0-2.29","660468936857e5fb0964cd60","6662009ae78f21dd82fcd179","6662074f98a9d5599327ca22","null","","null","","","","","","","","./tasks/HMM-beads/Images/BlackBeadChoiceWrong.png","","","","","","","","","",""
"image-keyboard-response","226","298465","0.0-3.0-6.0-1.0-0.30","660468936857e5fb0964cd60","6662009ae78f21dd82fcd179","6662074f98a9d5599327ca22","309","","f","","","","","","","","./tasks/HMM-beads/Images/NewTrialWC.png","lowH","1","30","1","1","1","0","false","",""
"image-keyboard-response","227","298777","0.0-3.0-6.0-1.0-1.30","660468936857e5fb0964cd60","6662009ae78f21dd82fcd179","6662074f98a9d5599327ca22","null","","null","","","","","","","","./tasks/HMM-beads/Images/BlackBeadChoice.png","","","","","","","","","",""
"image-keyboard-response","228","299288","0.0-3.0-6.0-1.0-2.30","660468936857e5fb0964cd60","6662009ae78f21dd82fcd179","6662074f98a9d5599327ca22","null","","null","","","","","","","","./tasks/HMM-beads/Images/BlackBeadChoiceWrong.png","","","","","","","","","",""
"image-keyboard-response","229","299815","0.0-3.0-6.0-1.0-0.31","660468936857e5fb0964cd60","6662009ae78f21dd82fcd179","6662074f98a9d5599327ca22","525","","j","","","","","","","","./tasks/HMM-beads/Images/NewTrialWC.png","lowH","1","31","1","1","1","1","true","",""
"image-keyboard-response","230","300127","0.0-3.0-6.0-1.0-1.31","660468936857e5fb0964cd60","6662009ae78f21dd82fcd179","6662074f98a9d5599327ca22","null","","null","","","","","","","","./tasks/HMM-beads/Images/WhiteBeadChoice.png","","","","","","","","","",""
"image-keyboard-response","231","300637","0.0-3.0-6.0-1.0-2.31","660468936857e5fb0964cd60","6662009ae78f21dd82fcd179","6662074f98a9d5599327ca22","null","","null","","","","","","","","./tasks/HMM-beads/Images/WhiteBeadChoiceCorrect.png","","","","","","","","","",""
"image-keyboard-response","232","301414","0.0-3.0-6.0-1.0-0.32","660468936857e5fb0964cd60","6662009ae78f21dd82fcd179","6662074f98a9d5599327ca22","777","","f","","","","","","","","./tasks/HMM-beads/Images/NewTrialWC.png","lowH","1","32","1","1","1","0","false","",""
"image-keyboard-response","233","301721","0.0-3.0-6.0-1.0-1.32","660468936857e5fb0964cd60","6662009ae78f21dd82fcd179","6662074f98a9d5599327ca22","null","","null","","","","","","","","./tasks/HMM-beads/Images/BlackBeadChoice.png","","","","","","","","","",""
"image-keyboard-response","234","302236","0.0-3.0-6.0-1.0-2.32","660468936857e5fb0964cd60","6662009ae78f21dd82fcd179","6662074f98a9d5599327ca22","null","","null","","","","","","","","./tasks/HMM-beads/Images/BlackBeadChoiceWrong.png","","","","","","","","","",""
"image-keyboard-response","235","302769","0.0-3.0-6.0-1.0-0.33","660468936857e5fb0964cd60","6662009ae78f21dd82fcd179","6662074f98a9d5599327ca22","532","","f","","","","","","","","./tasks/HMM-beads/Images/NewTrialWC.png","lowH","1","33","1","1","1","0","false","",""
"image-keyboard-response","236","303072","0.0-3.0-6.0-1.0-1.33","660468936857e5fb0964cd60","6662009ae78f21dd82fcd179","6662074f98a9d5599327ca22","null","","null","","","","","","","","./tasks/HMM-beads/Images/BlackBeadChoice.png","","","","","","","","","",""
"image-keyboard-response","237","303580","0.0-3.0-6.0-1.0-2.33","660468936857e5fb0964cd60","6662009ae78f21dd82fcd179","6662074f98a9d5599327ca22","null","","null","","","","","","","","./tasks/HMM-beads/Images/BlackBeadChoiceWrong.png","","","","","","","","","",""
"image-keyboard-response","238","304007","0.0-3.0-6.0-1.0-0.34","660468936857e5fb0964cd60","6662009ae78f21dd82fcd179","6662074f98a9d5599327ca22","427","","f","","","","","","","","./tasks/HMM-beads/Images/NewTrialWC.png","lowH","1","34","1","1","1","0","false","",""
"image-keyboard-response","239","304318","0.0-3.0-6.0-1.0-1.34","660468936857e5fb0964cd60","6662009ae78f21dd82fcd179","6662074f98a9d5599327ca22","null","","null","","","","","","","","./tasks/HMM-beads/Images/BlackBeadChoice.png","","","","","","","","","",""
"image-keyboard-response","240","304831","0.0-3.0-6.0-1.0-2.34","660468936857e5fb0964cd60","6662009ae78f21dd82fcd179","6662074f98a9d5599327ca22","null","","null","","","","","","","","./tasks/HMM-beads/Images/BlackBeadChoiceWrong.png","","","","","","","","","",""
"image-keyboard-response","241","305225","0.0-3.0-6.0-1.0-0.35","660468936857e5fb0964cd60","6662009ae78f21dd82fcd179","6662074f98a9d5599327ca22","393","","f","","","","","","","","./tasks/HMM-beads/Images/NewTrialWC.png","lowH","1","35","1","1","1","0","false","",""
"image-keyboard-response","242","305533","0.0-3.0-6.0-1.0-1.35","660468936857e5fb0964cd60","6662009ae78f21dd82fcd179","6662074f98a9d5599327ca22","null","","null","","","","","","","","./tasks/HMM-beads/Images/BlackBeadChoice.png","","","","","","","","","",""
"image-keyboard-response","243","306043","0.0-3.0-6.0-1.0-2.35","660468936857e5fb0964cd60","6662009ae78f21dd82fcd179","6662074f98a9d5599327ca22","null","","null","","","","","","","","./tasks/HMM-beads/Images/BlackBeadChoiceWrong.png","","","","","","","","","",""
"image-keyboard-response","244","306443","0.0-3.0-6.0-1.0-0.36","660468936857e5fb0964cd60","6662009ae78f21dd82fcd179","6662074f98a9d5599327ca22","399","","f","","","","","","","","./tasks/HMM-beads/Images/NewTrialWC.png","lowH","1","36","1","1","1","0","false","",""
"image-keyboard-response","245","306748","0.0-3.0-6.0-1.0-1.36","660468936857e5fb0964cd60","6662009ae78f21dd82fcd179","6662074f98a9d5599327ca22","null","","null","","","","","","","","./tasks/HMM-beads/Images/BlackBeadChoice.png","","","","","","","","","",""
"image-keyboard-response","246","307259","0.0-3.0-6.0-1.0-2.36","660468936857e5fb0964cd60","6662009ae78f21dd82fcd179","6662074f98a9d5599327ca22","null","","null","","","","","","","","./tasks/HMM-beads/Images/BlackBeadChoiceWrong.png","","","","","","","","","",""
"image-keyboard-response","247","307825","0.0-3.0-6.0-1.0-0.37","660468936857e5fb0964cd60","6662009ae78f21dd82fcd179","6662074f98a9d5599327ca22","565","","f","","","","","","","","./tasks/HMM-beads/Images/NewTrialWC.png","lowH","1","37","1","1","1","0","false","",""
"image-keyboard-response","248","308137","0.0-3.0-6.0-1.0-1.37","660468936857e5fb0964cd60","6662009ae78f21dd82fcd179","6662074f98a9d5599327ca22","null","","null","","","","","","","","./tasks/HMM-beads/Images/BlackBeadChoice.png","","","","","","","","","",""
"image-keyboard-response","249","308649","0.0-3.0-6.0-1.0-2.37","660468936857e5fb0964cd60","6662009ae78f21dd82fcd179","6662074f98a9d5599327ca22","null","","null","","","","","","","","./tasks/HMM-beads/Images/BlackBeadChoiceWrong.png","","","","","","","","","",""
"image-keyboard-response","250","309070","0.0-3.0-6.0-1.0-0.38","660468936857e5fb0964cd60","6662009ae78f21dd82fcd179","6662074f98a9d5599327ca22","421","","f","","","","","","","","./tasks/HMM-beads/Images/NewTrialWC.png","lowH","1","38","1","1","1","0","false","",""
"image-keyboard-response","251","309384","0.0-3.0-6.0-1.0-1.38","660468936857e5fb0964cd60","6662009ae78f21dd82fcd179","6662074f98a9d5599327ca22","null","","null","","","","","","","","./tasks/HMM-beads/Images/BlackBeadChoice.png","","","","","","","","","",""
"image-keyboard-response","252","309893","0.0-3.0-6.0-1.0-2.38","660468936857e5fb0964cd60","6662009ae78f21dd82fcd179","6662074f98a9d5599327ca22","null","","null","","","","","","","","./tasks/HMM-beads/Images/BlackBeadChoiceWrong.png","","","","","","","","","",""
"image-keyboard-response","253","310322","0.0-3.0-6.0-1.0-0.39","660468936857e5fb0964cd60","6662009ae78f21dd82fcd179","6662074f98a9d5599327ca22","429","","f","","","","","","","","./tasks/HMM-beads/Images/NewTrialWC.png","lowH","1","39","1","1","1","0","false","",""
"image-keyboard-response","254","310638","0.0-3.0-6.0-1.0-1.39","660468936857e5fb0964cd60","6662009ae78f21dd82fcd179","6662074f98a9d5599327ca22","null","","null","","","","","","","","./tasks/HMM-beads/Images/BlackBeadChoice.png","","","","","","","","","",""
"image-keyboard-response","255","311149","0.0-3.0-6.0-1.0-2.39","660468936857e5fb0964cd60","6662009ae78f21dd82fcd179","6662074f98a9d5599327ca22","null","","null","","","","","","","","./tasks/HMM-beads/Images/BlackBeadChoiceWrong.png","","","","","","","","","",""
"image-keyboard-response","256","311583","0.0-3.0-6.0-1.0-0.40","660468936857e5fb0964cd60","6662009ae78f21dd82fcd179","6662074f98a9d5599327ca22","433","","f","","","","","","","","./tasks/HMM-beads/Images/NewTrialWC.png","lowH","1","40","1","1","1","0","false","",""
"image-keyboard-response","257","311892","0.0-3.0-6.0-1.0-1.40","660468936857e5fb0964cd60","6662009ae78f21dd82fcd179","6662074f98a9d5599327ca22","null","","null","","","","","","","","./tasks/HMM-beads/Images/BlackBeadChoice.png","","","","","","","","","",""
"image-keyboard-response","258","312401","0.0-3.0-6.0-1.0-2.40","660468936857e5fb0964cd60","6662009ae78f21dd82fcd179","6662074f98a9d5599327ca22","null","","null","","","","","","","","./tasks/HMM-beads/Images/BlackBeadChoiceWrong.png","","","","","","","","","",""
"image-keyboard-response","259","312848","0.0-3.0-6.0-1.0-0.41","660468936857e5fb0964cd60","6662009ae78f21dd82fcd179","6662074f98a9d5599327ca22","446","","f","","","","","","","","./tasks/HMM-beads/Images/NewTrialWC.png","lowH","1","41","1","1","1","0","false","",""
"image-keyboard-response","260","313167","0.0-3.0-6.0-1.0-1.41","660468936857e5fb0964cd60","6662009ae78f21dd82fcd179","6662074f98a9d5599327ca22","null","","null","","","","","","","","./tasks/HMM-beads/Images/BlackBeadChoice.png","","","","","","","","","",""
"image-keyboard-response","261","313676","0.0-3.0-6.0-1.0-2.41","660468936857e5fb0964cd60","6662009ae78f21dd82fcd179","6662074f98a9d5599327ca22","null","","null","","","","","","","","./tasks/HMM-beads/Images/BlackBeadChoiceWrong.png","","","","","","","","","",""
"image-keyboard-response","262","314099","0.0-3.0-6.0-1.0-0.42","660468936857e5fb0964cd60","6662009ae78f21dd82fcd179","6662074f98a9d5599327ca22","423","","f","","","","","","","","./tasks/HMM-beads/Images/NewTrialWC.png","lowH","1","42","1","1","1","0","false","",""
"image-keyboard-response","263","314411","0.0-3.0-6.0-1.0-1.42","660468936857e5fb0964cd60","6662009ae78f21dd82fcd179","6662074f98a9d5599327ca22","null","","null","","","","","","","","./tasks/HMM-beads/Images/BlackBeadChoice.png","","","","","","","","","",""
"image-keyboard-response","264","314922","0.0-3.0-6.0-1.0-2.42","660468936857e5fb0964cd60","6662009ae78f21dd82fcd179","6662074f98a9d5599327ca22","null","","null","","","","","","","","./tasks/HMM-beads/Images/BlackBeadChoiceWrong.png","","","","","","","","","",""
"image-keyboard-response","265","315295","0.0-3.0-6.0-1.0-0.43","660468936857e5fb0964cd60","6662009ae78f21dd82fcd179","6662074f98a9d5599327ca22","372","","j","","","","","","","","./tasks/HMM-beads/Images/NewTrialWC.png","lowH","1","43","1","1","1","1","true","",""
"image-keyboard-response","266","315608","0.0-3.0-6.0-1.0-1.43","660468936857e5fb0964cd60","6662009ae78f21dd82fcd179","6662074f98a9d5599327ca22","null","","null","","","","","","","","./tasks/HMM-beads/Images/WhiteBeadChoice.png","","","","","","","","","",""
"image-keyboard-response","267","316120","0.0-3.0-6.0-1.0-2.43","660468936857e5fb0964cd60","6662009ae78f21dd82fcd179","6662074f98a9d5599327ca22","null","","null","","","","","","","","./tasks/HMM-beads/Images/WhiteBeadChoiceCorrect.png","","","","","","","","","",""
"image-keyboard-response","268","316564","0.0-3.0-6.0-1.0-0.44","660468936857e5fb0964cd60","6662009ae78f21dd82fcd179","6662074f98a9d5599327ca22","443","","f","","","","","","","","./tasks/HMM-beads/Images/NewTrialWC.png","lowH","1","44","1","1","1","0","false","",""
"image-keyboard-response","269","316869","0.0-3.0-6.0-1.0-1.44","660468936857e5fb0964cd60","6662009ae78f21dd82fcd179","6662074f98a9d5599327ca22","null","","null","","","","","","","","./tasks/HMM-beads/Images/BlackBeadChoice.png","","","","","","","","","",""
"image-keyboard-response","270","317389","0.0-3.0-6.0-1.0-2.44","660468936857e5fb0964cd60","6662009ae78f21dd82fcd179","6662074f98a9d5599327ca22","null","","null","","","","","","","","./tasks/HMM-beads/Images/BlackBeadChoiceWrong.png","","","","","","","","","",""
"image-keyboard-response","271","317818","0.0-3.0-6.0-1.0-0.45","660468936857e5fb0964cd60","6662009ae78f21dd82fcd179","6662074f98a9d5599327ca22","428","","f","","","","","","","","./tasks/HMM-beads/Images/NewTrialWC.png","lowH","1","45","1","1","1","0","false","",""
"image-keyboard-response","272","318126","0.0-3.0-6.0-1.0-1.45","660468936857e5fb0964cd60","6662009ae78f21dd82fcd179","6662074f98a9d5599327ca22","null","","null","","","","","","","","./tasks/HMM-beads/Images/BlackBeadChoice.png","","","","","","","","","",""
"image-keyboard-response","273","318636","0.0-3.0-6.0-1.0-2.45","660468936857e5fb0964cd60","6662009ae78f21dd82fcd179","6662074f98a9d5599327ca22","null","","null","","","","","","","","./tasks/HMM-beads/Images/BlackBeadChoiceWrong.png","","","","","","","","","",""
"image-keyboard-response","274","319038","0.0-3.0-6.0-1.0-0.46","660468936857e5fb0964cd60","6662009ae78f21dd82fcd179","6662074f98a9d5599327ca22","401","","f","","","","","","","","./tasks/HMM-beads/Images/NewTrialWC.png","lowH","1","46","1","1","1","0","false","",""
"image-keyboard-response","275","319351","0.0-3.0-6.0-1.0-1.46","660468936857e5fb0964cd60","6662009ae78f21dd82fcd179","6662074f98a9d5599327ca22","null","","null","","","","","","","","./tasks/HMM-beads/Images/BlackBeadChoice.png","","","","","","","","","",""
"image-keyboard-response","276","319854","0.0-3.0-6.0-1.0-2.46","660468936857e5fb0964cd60","6662009ae78f21dd82fcd179","6662074f98a9d5599327ca22","null","","null","","","","","","","","./tasks/HMM-beads/Images/BlackBeadChoiceWrong.png","","","","","","","","","",""
"image-keyboard-response","277","320268","0.0-3.0-6.0-1.0-0.47","660468936857e5fb0964cd60","6662009ae78f21dd82fcd179","6662074f98a9d5599327ca22","413","","f","","","","","","","","./tasks/HMM-beads/Images/NewTrialWC.png","lowH","1","47","1","0","1","0","true","",""
"image-keyboard-response","278","320580","0.0-3.0-6.0-1.0-1.47","660468936857e5fb0964cd60","6662009ae78f21dd82fcd179","6662074f98a9d5599327ca22","null","","null","","","","","","","","./tasks/HMM-beads/Images/BlackBeadChoice.png","","","","","","","","","",""
"image-keyboard-response","279","321082","0.0-3.0-6.0-1.0-2.47","660468936857e5fb0964cd60","6662009ae78f21dd82fcd179","6662074f98a9d5599327ca22","null","","null","","","","","","","","./tasks/HMM-beads/Images/BlackBeadChoiceCorrect.png","","","","","","","","","",""
"image-keyboard-response","280","321474","0.0-3.0-6.0-1.0-0.48","660468936857e5fb0964cd60","6662009ae78f21dd82fcd179","6662074f98a9d5599327ca22","391","","j","","","","","","","","./tasks/HMM-beads/Images/NewTrialBC.png","lowH","1","48","1","0","0","1","false","",""
"image-keyboard-response","281","321778","0.0-3.0-6.0-1.0-1.48","660468936857e5fb0964cd60","6662009ae78f21dd82fcd179","6662074f98a9d5599327ca22","null","","null","","","","","","","","./tasks/HMM-beads/Images/WhiteBeadChoice.png","","","","","","","","","",""
"image-keyboard-response","282","322281","0.0-3.0-6.0-1.0-2.48","660468936857e5fb0964cd60","6662009ae78f21dd82fcd179","6662074f98a9d5599327ca22","null","","null","","","","","","","","./tasks/HMM-beads/Images/WhiteBeadChoiceWrong.png","","","","","","","","","",""
"image-keyboard-response","283","322718","0.0-3.0-6.0-1.0-0.49","660468936857e5fb0964cd60","6662009ae78f21dd82fcd179","6662074f98a9d5599327ca22","437","","j","","","","","","","","./tasks/HMM-beads/Images/NewTrialBC.png","lowH","1","49","1","0","0","1","false","",""
"image-keyboard-response","284","323034","0.0-3.0-6.0-1.0-1.49","660468936857e5fb0964cd60","6662009ae78f21dd82fcd179","6662074f98a9d5599327ca22","null","","null","","","","","","","","./tasks/HMM-beads/Images/WhiteBeadChoice.png","","","","","","","","","",""
"image-keyboard-response","285","323550","0.0-3.0-6.0-1.0-2.49","660468936857e5fb0964cd60","6662009ae78f21dd82fcd179","6662074f98a9d5599327ca22","null","","null","","","","","","","","./tasks/HMM-beads/Images/WhiteBeadChoiceWrong.png","","","","","","","","","",""
"image-keyboard-response","286","324045","0.0-3.0-6.0-1.0-0.50","660468936857e5fb0964cd60","6662009ae78f21dd82fcd179","6662074f98a9d5599327ca22","494","","j","","","","","","","","./tasks/HMM-beads/Images/NewTrialBC.png","lowH","1","50","1","1","0","1","true","",""
"image-keyboard-response","287","324359","0.0-3.0-6.0-1.0-1.50","660468936857e5fb0964cd60","6662009ae78f21dd82fcd179","6662074f98a9d5599327ca22","null","","null","","","","","","","","./tasks/HMM-beads/Images/WhiteBeadChoice.png","","","","","","","","","",""
"image-keyboard-response","288","324869","0.0-3.0-6.0-1.0-2.50","660468936857e5fb0964cd60","6662009ae78f21dd82fcd179","6662074f98a9d5599327ca22","null","","null","","","","","","","","./tasks/HMM-beads/Images/WhiteBeadChoiceCorrect.png","","","","","","","","","",""
"image-keyboard-response","289","325283","0.0-3.0-6.0-1.0-0.51","660468936857e5fb0964cd60","6662009ae78f21dd82fcd179","6662074f98a9d5599327ca22","414","","f","","","","","","","","./tasks/HMM-beads/Images/NewTrialWC.png","lowH","1","51","1","1","1","0","false","",""
"image-keyboard-response","290","325593","0.0-3.0-6.0-1.0-1.51","660468936857e5fb0964cd60","6662009ae78f21dd82fcd179","6662074f98a9d5599327ca22","null","","null","","","","","","","","./tasks/HMM-beads/Images/BlackBeadChoice.png","","","","","","","","","",""
"image-keyboard-response","291","326103","0.0-3.0-6.0-1.0-2.51","660468936857e5fb0964cd60","6662009ae78f21dd82fcd179","6662074f98a9d5599327ca22","null","","null","","","","","","","","./tasks/HMM-beads/Images/BlackBeadChoiceWrong.png","","","","","","","","","",""
"image-keyboard-response","292","326430","0.0-3.0-6.0-1.0-0.52","660468936857e5fb0964cd60","6662009ae78f21dd82fcd179","6662074f98a9d5599327ca22","326","","f","","","","","","","","./tasks/HMM-beads/Images/NewTrialWC.png","lowH","1","52","1","1","1","0","false","",""
"image-keyboard-response","293","326745","0.0-3.0-6.0-1.0-1.52","660468936857e5fb0964cd60","6662009ae78f21dd82fcd179","6662074f98a9d5599327ca22","null","","null","","","","","","","","./tasks/HMM-beads/Images/BlackBeadChoice.png","","","","","","","","","",""
"image-keyboard-response","294","327265","0.0-3.0-6.0-1.0-2.52","660468936857e5fb0964cd60","6662009ae78f21dd82fcd179","6662074f98a9d5599327ca22","null","","null","","","","","","","","./tasks/HMM-beads/Images/BlackBeadChoiceWrong.png","","","","","","","","","",""
"image-keyboard-response","295","327666","0.0-3.0-6.0-1.0-0.53","660468936857e5fb0964cd60","6662009ae78f21dd82fcd179","6662074f98a9d5599327ca22","400","","f","","","","","","","","./tasks/HMM-beads/Images/NewTrialWC.png","lowH","1","53","1","1","1","0","false","",""
"image-keyboard-response","296","327979","0.0-3.0-6.0-1.0-1.53","660468936857e5fb0964cd60","6662009ae78f21dd82fcd179","6662074f98a9d5599327ca22","null","","null","","","","","","","","./tasks/HMM-beads/Images/BlackBeadChoice.png","","","","","","","","","",""
"image-keyboard-response","297","328500","0.0-3.0-6.0-1.0-2.53","660468936857e5fb0964cd60","6662009ae78f21dd82fcd179","6662074f98a9d5599327ca22","null","","null","","","","","","","","./tasks/HMM-beads/Images/BlackBeadChoiceWrong.png","","","","","","","","","",""
"image-keyboard-response","298","328857","0.0-3.0-6.0-1.0-0.54","660468936857e5fb0964cd60","6662009ae78f21dd82fcd179","6662074f98a9d5599327ca22","356","","f","","","","","","","","./tasks/HMM-beads/Images/NewTrialWC.png","lowH","1","54","1","1","1","0","false","",""
"image-keyboard-response","299","329163","0.0-3.0-6.0-1.0-1.54","660468936857e5fb0964cd60","6662009ae78f21dd82fcd179","6662074f98a9d5599327ca22","null","","null","","","","","","","","./tasks/HMM-beads/Images/BlackBeadChoice.png","","","","","","","","","",""
"image-keyboard-response","300","329676","0.0-3.0-6.0-1.0-2.54","660468936857e5fb0964cd60","6662009ae78f21dd82fcd179","6662074f98a9d5599327ca22","null","","null","","","","","","","","./tasks/HMM-beads/Images/BlackBeadChoiceWrong.png","","","","","","","","","",""
"image-keyboard-response","301","330113","0.0-3.0-6.0-1.0-0.55","660468936857e5fb0964cd60","6662009ae78f21dd82fcd179","6662074f98a9d5599327ca22","436","","f","","","","","","","","./tasks/HMM-beads/Images/NewTrialWC.png","lowH","1","55","1","1","1","0","false","",""
"image-keyboard-response","302","330423","0.0-3.0-6.0-1.0-1.55","660468936857e5fb0964cd60","6662009ae78f21dd82fcd179","6662074f98a9d5599327ca22","null","","null","","","","","","","","./tasks/HMM-beads/Images/BlackBeadChoice.png","","","","","","","","","",""
"image-keyboard-response","303","330932","0.0-3.0-6.0-1.0-2.55","660468936857e5fb0964cd60","6662009ae78f21dd82fcd179","6662074f98a9d5599327ca22","null","","null","","","","","","","","./tasks/HMM-beads/Images/BlackBeadChoiceWrong.png","","","","","","","","","",""
"image-keyboard-response","304","331340","0.0-3.0-6.0-1.0-0.56","660468936857e5fb0964cd60","6662009ae78f21dd82fcd179","6662074f98a9d5599327ca22","407","","f","","","","","","","","./tasks/HMM-beads/Images/NewTrialWC.png","lowH","1","56","1","1","1","0","false","",""
"image-keyboard-response","305","331646","0.0-3.0-6.0-1.0-1.56","660468936857e5fb0964cd60","6662009ae78f21dd82fcd179","6662074f98a9d5599327ca22","null","","null","","","","","","","","./tasks/HMM-beads/Images/BlackBeadChoice.png","","","","","","","","","",""
"image-keyboard-response","306","332148","0.0-3.0-6.0-1.0-2.56","660468936857e5fb0964cd60","6662009ae78f21dd82fcd179","6662074f98a9d5599327ca22","null","","null","","","","","","","","./tasks/HMM-beads/Images/BlackBeadChoiceWrong.png","","","","","","","","","",""
"image-keyboard-response","307","332620","0.0-3.0-6.0-1.0-0.57","660468936857e5fb0964cd60","6662009ae78f21dd82fcd179","6662074f98a9d5599327ca22","471","","f","","","","","","","","./tasks/HMM-beads/Images/NewTrialWC.png","lowH","1","57","1","1","1","0","false","",""
"image-keyboard-response","308","332922","0.0-3.0-6.0-1.0-1.57","660468936857e5fb0964cd60","6662009ae78f21dd82fcd179","6662074f98a9d5599327ca22","null","","null","","","","","","","","./tasks/HMM-beads/Images/BlackBeadChoice.png","","","","","","","","","",""
"image-keyboard-response","309","333441","0.0-3.0-6.0-1.0-2.57","660468936857e5fb0964cd60","6662009ae78f21dd82fcd179","6662074f98a9d5599327ca22","null","","null","","","","","","","","./tasks/HMM-beads/Images/BlackBeadChoiceWrong.png","","","","","","","","","",""
"image-keyboard-response","310","333962","0.0-3.0-6.0-1.0-0.58","660468936857e5fb0964cd60","6662009ae78f21dd82fcd179","6662074f98a9d5599327ca22","520","","f","","","","","","","","./tasks/HMM-beads/Images/NewTrialWC.png","lowH","1","58","1","1","1","0","false","",""
"image-keyboard-response","311","334273","0.0-3.0-6.0-1.0-1.58","660468936857e5fb0964cd60","6662009ae78f21dd82fcd179","6662074f98a9d5599327ca22","null","","null","","","","","","","","./tasks/HMM-beads/Images/BlackBeadChoice.png","","","","","","","","","",""
"image-keyboard-response","312","334779","0.0-3.0-6.0-1.0-2.58","660468936857e5fb0964cd60","6662009ae78f21dd82fcd179","6662074f98a9d5599327ca22","null","","null","","","","","","","","./tasks/HMM-beads/Images/BlackBeadChoiceWrong.png","","","","","","","","","",""
"image-keyboard-response","313","335150","0.0-3.0-6.0-1.0-0.59","660468936857e5fb0964cd60","6662009ae78f21dd82fcd179","6662074f98a9d5599327ca22","370","","f","","","","","","","","./tasks/HMM-beads/Images/NewTrialWC.png","lowH","1","59","1","0","1","0","true","",""
"image-keyboard-response","314","335461","0.0-3.0-6.0-1.0-1.59","660468936857e5fb0964cd60","6662009ae78f21dd82fcd179","6662074f98a9d5599327ca22","null","","null","","","","","","","","./tasks/HMM-beads/Images/BlackBeadChoice.png","","","","","","","","","",""
"image-keyboard-response","315","335983","0.0-3.0-6.0-1.0-2.59","660468936857e5fb0964cd60","6662009ae78f21dd82fcd179","6662074f98a9d5599327ca22","null","","null","","","","","","","","./tasks/HMM-beads/Images/BlackBeadChoiceCorrect.png","","","","","","","","","",""
"image-keyboard-response","316","335991","0.0-3.0-6.0-1.0-0.60","660468936857e5fb0964cd60","6662009ae78f21dd82fcd179","6662074f98a9d5599327ca22","7","","j","","","","","","","","./tasks/HMM-beads/Images/NewTrialBC.png","lowH","1","60","1","1","0","1","true","",""
"image-keyboard-response","317","336309","0.0-3.0-6.0-1.0-1.60","660468936857e5fb0964cd60","6662009ae78f21dd82fcd179","6662074f98a9d5599327ca22","null","","null","","","","","","","","./tasks/HMM-beads/Images/WhiteBeadChoice.png","","","","","","","","","",""
"image-keyboard-response","318","336811","0.0-3.0-6.0-1.0-2.60","660468936857e5fb0964cd60","6662009ae78f21dd82fcd179","6662074f98a9d5599327ca22","null","","null","","","","","","","","./tasks/HMM-beads/Images/WhiteBeadChoiceCorrect.png","","","","","","","","","",""
"image-keyboard-response","319","336994","0.0-3.0-6.0-1.0-0.61","660468936857e5fb0964cd60","6662009ae78f21dd82fcd179","6662074f98a9d5599327ca22","182","","f","","","","","","","","./tasks/HMM-beads/Images/NewTrialWC.png","lowH","1","61","1","1","1","0","false","",""
"image-keyboard-response","320","337301","0.0-3.0-6.0-1.0-1.61","660468936857e5fb0964cd60","6662009ae78f21dd82fcd179","6662074f98a9d5599327ca22","null","","null","","","","","","","","./tasks/HMM-beads/Images/BlackBeadChoice.png","","","","","","","","","",""
"image-keyboard-response","321","337811","0.0-3.0-6.0-1.0-2.61","660468936857e5fb0964cd60","6662009ae78f21dd82fcd179","6662074f98a9d5599327ca22","null","","null","","","","","","","","./tasks/HMM-beads/Images/BlackBeadChoiceWrong.png","","","","","","","","","",""
"image-keyboard-response","322","338296","0.0-3.0-6.0-1.0-0.62","660468936857e5fb0964cd60","6662009ae78f21dd82fcd179","6662074f98a9d5599327ca22","485","","j","","","","","","","","./tasks/HMM-beads/Images/NewTrialWC.png","lowH","1","62","1","0","1","1","false","",""
"image-keyboard-response","323","338609","0.0-3.0-6.0-1.0-1.62","660468936857e5fb0964cd60","6662009ae78f21dd82fcd179","6662074f98a9d5599327ca22","null","","null","","","","","","","","./tasks/HMM-beads/Images/WhiteBeadChoice.png","","","","","","","","","",""
"image-keyboard-response","324","339130","0.0-3.0-6.0-1.0-2.62","660468936857e5fb0964cd60","6662009ae78f21dd82fcd179","6662074f98a9d5599327ca22","null","","null","","","","","","","","./tasks/HMM-beads/Images/WhiteBeadChoiceWrong.png","","","","","","","","","",""
"image-keyboard-response","325","339613","0.0-3.0-6.0-1.0-0.63","660468936857e5fb0964cd60","6662009ae78f21dd82fcd179","6662074f98a9d5599327ca22","482","","j","","","","","","","","./tasks/HMM-beads/Images/NewTrialBC.png","lowH","1","63","1","1","0","1","true","",""
"image-keyboard-response","326","339926","0.0-3.0-6.0-1.0-1.63","660468936857e5fb0964cd60","6662009ae78f21dd82fcd179","6662074f98a9d5599327ca22","null","","null","","","","","","","","./tasks/HMM-beads/Images/WhiteBeadChoice.png","","","","","","","","","",""
"image-keyboard-response","327","340446","0.0-3.0-6.0-1.0-2.63","660468936857e5fb0964cd60","6662009ae78f21dd82fcd179","6662074f98a9d5599327ca22","null","","null","","","","","","","","./tasks/HMM-beads/Images/WhiteBeadChoiceCorrect.png","","","","","","","","","",""
"image-keyboard-response","328","341045","0.0-3.0-6.0-1.0-0.64","660468936857e5fb0964cd60","6662009ae78f21dd82fcd179","6662074f98a9d5599327ca22","598","","f","","","","","","","","./tasks/HMM-beads/Images/NewTrialWC.png","lowH","1","64","1","1","1","0","false","",""
"image-keyboard-response","329","341356","0.0-3.0-6.0-1.0-1.64","660468936857e5fb0964cd60","6662009ae78f21dd82fcd179","6662074f98a9d5599327ca22","null","","null","","","","","","","","./tasks/HMM-beads/Images/BlackBeadChoice.png","","","","","","","","","",""
"image-keyboard-response","330","341865","0.0-3.0-6.0-1.0-2.64","660468936857e5fb0964cd60","6662009ae78f21dd82fcd179","6662074f98a9d5599327ca22","null","","null","","","","","","","","./tasks/HMM-beads/Images/BlackBeadChoiceWrong.png","","","","","","","","","",""
"image-keyboard-response","331","342291","0.0-3.0-6.0-1.0-0.65","660468936857e5fb0964cd60","6662009ae78f21dd82fcd179","6662074f98a9d5599327ca22","426","","f","","","","","","","","./tasks/HMM-beads/Images/NewTrialWC.png","lowH","1","65","1","1","1","0","false","",""
"image-keyboard-response","332","342609","0.0-3.0-6.0-1.0-1.65","660468936857e5fb0964cd60","6662009ae78f21dd82fcd179","6662074f98a9d5599327ca22","null","","null","","","","","","","","./tasks/HMM-beads/Images/BlackBeadChoice.png","","","","","","","","","",""
"image-keyboard-response","333","343117","0.0-3.0-6.0-1.0-2.65","660468936857e5fb0964cd60","6662009ae78f21dd82fcd179","6662074f98a9d5599327ca22","null","","null","","","","","","","","./tasks/HMM-beads/Images/BlackBeadChoiceWrong.png","","","","","","","","","",""
"image-keyboard-response","334","343512","0.0-3.0-6.0-1.0-0.66","660468936857e5fb0964cd60","6662009ae78f21dd82fcd179","6662074f98a9d5599327ca22","395","","f","","","","","","","","./tasks/HMM-beads/Images/NewTrialWC.png","lowH","1","66","1","1","1","0","false","",""
"image-keyboard-response","335","343828","0.0-3.0-6.0-1.0-1.66","660468936857e5fb0964cd60","6662009ae78f21dd82fcd179","6662074f98a9d5599327ca22","null","","null","","","","","","","","./tasks/HMM-beads/Images/BlackBeadChoice.png","","","","","","","","","",""
"image-keyboard-response","336","344346","0.0-3.0-6.0-1.0-2.66","660468936857e5fb0964cd60","6662009ae78f21dd82fcd179","6662074f98a9d5599327ca22","null","","null","","","","","","","","./tasks/HMM-beads/Images/BlackBeadChoiceWrong.png","","","","","","","","","",""
"image-keyboard-response","337","345144","0.0-3.0-6.0-1.0-0.67","660468936857e5fb0964cd60","6662009ae78f21dd82fcd179","6662074f98a9d5599327ca22","797","","f","","","","","","","","./tasks/HMM-beads/Images/NewTrialWC.png","lowH","1","67","1","0","1","0","true","",""
"image-keyboard-response","338","345449","0.0-3.0-6.0-1.0-1.67","660468936857e5fb0964cd60","6662009ae78f21dd82fcd179","6662074f98a9d5599327ca22","null","","null","","","","","","","","./tasks/HMM-beads/Images/BlackBeadChoice.png","","","","","","","","","",""
"image-keyboard-response","339","345970","0.0-3.0-6.0-1.0-2.67","660468936857e5fb0964cd60","6662009ae78f21dd82fcd179","6662074f98a9d5599327ca22","null","","null","","","","","","","","./tasks/HMM-beads/Images/BlackBeadChoiceCorrect.png","","","","","","","","","",""
"image-keyboard-response","340","346100","0.0-3.0-6.0-1.0-0.68","660468936857e5fb0964cd60","6662009ae78f21dd82fcd179","6662074f98a9d5599327ca22","129","","j","","","","","","","","./tasks/HMM-beads/Images/NewTrialBC.png","lowH","1","68","1","1","0","1","true","",""
"image-keyboard-response","341","346406","0.0-3.0-6.0-1.0-1.68","660468936857e5fb0964cd60","6662009ae78f21dd82fcd179","6662074f98a9d5599327ca22","null","","null","","","","","","","","./tasks/HMM-beads/Images/WhiteBeadChoice.png","","","","","","","","","",""
"image-keyboard-response","342","346928","0.0-3.0-6.0-1.0-2.68","660468936857e5fb0964cd60","6662009ae78f21dd82fcd179","6662074f98a9d5599327ca22","null","","null","","","","","","","","./tasks/HMM-beads/Images/WhiteBeadChoiceCorrect.png","","","","","","","","","",""
"image-keyboard-response","343","347131","0.0-3.0-6.0-1.0-0.69","660468936857e5fb0964cd60","6662009ae78f21dd82fcd179","6662074f98a9d5599327ca22","203","","j","","","","","","","","./tasks/HMM-beads/Images/NewTrialWC.png","lowH","1","69","0","1","1","1","true","",""
"image-keyboard-response","344","347435","0.0-3.0-6.0-1.0-1.69","660468936857e5fb0964cd60","6662009ae78f21dd82fcd179","6662074f98a9d5599327ca22","null","","null","","","","","","","","./tasks/HMM-beads/Images/WhiteBeadChoice.png","","","","","","","","","",""
"image-keyboard-response","345","347949","0.0-3.0-6.0-1.0-2.69","660468936857e5fb0964cd60","6662009ae78f21dd82fcd179","6662074f98a9d5599327ca22","null","","null","","","","","","","","./tasks/HMM-beads/Images/WhiteBeadChoiceCorrect.png","","","","","","","","","",""
"image-keyboard-response","346","348338","0.0-3.0-6.0-1.0-0.70","660468936857e5fb0964cd60","6662009ae78f21dd82fcd179","6662074f98a9d5599327ca22","388","","f","","","","","","","","./tasks/HMM-beads/Images/NewTrialWC.png","lowH","1","70","0","1","1","0","false","",""
"image-keyboard-response","347","348653","0.0-3.0-6.0-1.0-1.70","660468936857e5fb0964cd60","6662009ae78f21dd82fcd179","6662074f98a9d5599327ca22","null","","null","","","","","","","","./tasks/HMM-beads/Images/BlackBeadChoice.png","","","","","","","","","",""
"image-keyboard-response","348","349155","0.0-3.0-6.0-1.0-2.70","660468936857e5fb0964cd60","6662009ae78f21dd82fcd179","6662074f98a9d5599327ca22","null","","null","","","","","","","","./tasks/HMM-beads/Images/BlackBeadChoiceWrong.png","","","","","","","","","",""
"image-keyboard-response","349","349465","0.0-3.0-6.0-1.0-0.71","660468936857e5fb0964cd60","6662009ae78f21dd82fcd179","6662074f98a9d5599327ca22","310","","f","","","","","","","","./tasks/HMM-beads/Images/NewTrialWC.png","lowH","1","71","0","0","1","0","true","",""
"image-keyboard-response","350","349768","0.0-3.0-6.0-1.0-1.71","660468936857e5fb0964cd60","6662009ae78f21dd82fcd179","6662074f98a9d5599327ca22","null","","null","","","","","","","","./tasks/HMM-beads/Images/BlackBeadChoice.png","","","","","","","","","",""
"image-keyboard-response","351","350278","0.0-3.0-6.0-1.0-2.71","660468936857e5fb0964cd60","6662009ae78f21dd82fcd179","6662074f98a9d5599327ca22","null","","null","","","","","","","","./tasks/HMM-beads/Images/BlackBeadChoiceCorrect.png","","","","","","","","","",""
"image-keyboard-response","352","350301","0.0-3.0-6.0-1.0-0.72","660468936857e5fb0964cd60","6662009ae78f21dd82fcd179","6662074f98a9d5599327ca22","22","","j","","","","","","","","./tasks/HMM-beads/Images/NewTrialBC.png","lowH","1","72","0","0","0","1","false","",""
"image-keyboard-response","353","350607","0.0-3.0-6.0-1.0-1.72","660468936857e5fb0964cd60","6662009ae78f21dd82fcd179","6662074f98a9d5599327ca22","null","","null","","","","","","","","./tasks/HMM-beads/Images/WhiteBeadChoice.png","","","","","","","","","",""
"image-keyboard-response","354","351128","0.0-3.0-6.0-1.0-2.72","660468936857e5fb0964cd60","6662009ae78f21dd82fcd179","6662074f98a9d5599327ca22","null","","null","","","","","","","","./tasks/HMM-beads/Images/WhiteBeadChoiceWrong.png","","","","","","","","","",""
"image-keyboard-response","355","351464","0.0-3.0-6.0-1.0-0.73","660468936857e5fb0964cd60","6662009ae78f21dd82fcd179","6662074f98a9d5599327ca22","335","","j","","","","","","","","./tasks/HMM-beads/Images/NewTrialBC.png","lowH","1","73","0","1","0","1","true","",""
"image-keyboard-response","356","351772","0.0-3.0-6.0-1.0-1.73","660468936857e5fb0964cd60","6662009ae78f21dd82fcd179","6662074f98a9d5599327ca22","null","","null","","","","","","","","./tasks/HMM-beads/Images/WhiteBeadChoice.png","","","","","","","","","",""
"image-keyboard-response","357","352281","0.0-3.0-6.0-1.0-2.73","660468936857e5fb0964cd60","6662009ae78f21dd82fcd179","6662074f98a9d5599327ca22","null","","null","","","","","","","","./tasks/HMM-beads/Images/WhiteBeadChoiceCorrect.png","","","","","","","","","",""
"image-keyboard-response","358","352601","0.0-3.0-6.0-1.0-0.74","660468936857e5fb0964cd60","6662009ae78f21dd82fcd179","6662074f98a9d5599327ca22","318","","f","","","","","","","","./tasks/HMM-beads/Images/NewTrialWC.png","lowH","1","74","0","0","1","0","true","",""
"image-keyboard-response","359","352903","0.0-3.0-6.0-1.0-1.74","660468936857e5fb0964cd60","6662009ae78f21dd82fcd179","6662074f98a9d5599327ca22","null","","null","","","","","","","","./tasks/HMM-beads/Images/BlackBeadChoice.png","","","","","","","","","",""
"image-keyboard-response","360","353425","0.0-3.0-6.0-1.0-2.74","660468936857e5fb0964cd60","6662009ae78f21dd82fcd179","6662074f98a9d5599327ca22","null","","null","","","","","","","","./tasks/HMM-beads/Images/BlackBeadChoiceCorrect.png","","","","","","","","","",""
"image-keyboard-response","361","353537","0.0-3.0-6.0-1.0-0.75","660468936857e5fb0964cd60","6662009ae78f21dd82fcd179","6662074f98a9d5599327ca22","111","","j","","","","","","","","./tasks/HMM-beads/Images/NewTrialBC.png","lowH","1","75","0","1","0","1","true","",""
"image-keyboard-response","362","353845","0.0-3.0-6.0-1.0-1.75","660468936857e5fb0964cd60","6662009ae78f21dd82fcd179","6662074f98a9d5599327ca22","null","","null","","","","","","","","./tasks/HMM-beads/Images/WhiteBeadChoice.png","","","","","","","","","",""
"image-keyboard-response","363","354358","0.0-3.0-6.0-1.0-2.75","660468936857e5fb0964cd60","6662009ae78f21dd82fcd179","6662074f98a9d5599327ca22","null","","null","","","","","","","","./tasks/HMM-beads/Images/WhiteBeadChoiceCorrect.png","","","","","","","","","",""
"image-keyboard-response","364","355062","0.0-3.0-6.0-1.0-0.76","660468936857e5fb0964cd60","6662009ae78f21dd82fcd179","6662074f98a9d5599327ca22","702","","f","","","","","","","","./tasks/HMM-beads/Images/NewTrialWC.png","lowH","1","76","0","1","1","0","false","",""
"image-keyboard-response","365","355387","0.0-3.0-6.0-1.0-1.76","660468936857e5fb0964cd60","6662009ae78f21dd82fcd179","6662074f98a9d5599327ca22","null","","null","","","","","","","","./tasks/HMM-beads/Images/BlackBeadChoice.png","","","","","","","","","",""
"image-keyboard-response","366","355897","0.0-3.0-6.0-1.0-2.76","660468936857e5fb0964cd60","6662009ae78f21dd82fcd179","6662074f98a9d5599327ca22","null","","null","","","","","","","","./tasks/HMM-beads/Images/BlackBeadChoiceWrong.png","","","","","","","","","",""
"image-keyboard-response","367","356222","0.0-3.0-6.0-1.0-0.77","660468936857e5fb0964cd60","6662009ae78f21dd82fcd179","6662074f98a9d5599327ca22","324","","f","","","","","","","","./tasks/HMM-beads/Images/NewTrialWC.png","lowH","1","77","0","0","1","0","true","",""
"image-keyboard-response","368","356529","0.0-3.0-6.0-1.0-1.77","660468936857e5fb0964cd60","6662009ae78f21dd82fcd179","6662074f98a9d5599327ca22","null","","null","","","","","","","","./tasks/HMM-beads/Images/BlackBeadChoice.png","","","","","","","","","",""
"image-keyboard-response","369","357042","0.0-3.0-6.0-1.0-2.77","660468936857e5fb0964cd60","6662009ae78f21dd82fcd179","6662074f98a9d5599327ca22","null","","null","","","","","","","","./tasks/HMM-beads/Images/BlackBeadChoiceCorrect.png","","","","","","","","","",""
"image-keyboard-response","370","357447","0.0-3.0-6.0-1.0-0.78","660468936857e5fb0964cd60","6662009ae78f21dd82fcd179","6662074f98a9d5599327ca22","404","","j","","","","","","","","./tasks/HMM-beads/Images/NewTrialBC.png","lowH","1","78","0","0","0","1","false","",""
"image-keyboard-response","371","357767","0.0-3.0-6.0-1.0-1.78","660468936857e5fb0964cd60","6662009ae78f21dd82fcd179","6662074f98a9d5599327ca22","null","","null","","","","","","","","./tasks/HMM-beads/Images/WhiteBeadChoice.png","","","","","","","","","",""
"image-keyboard-response","372","358269","0.0-3.0-6.0-1.0-2.78","660468936857e5fb0964cd60","6662009ae78f21dd82fcd179","6662074f98a9d5599327ca22","null","","null","","","","","","","","./tasks/HMM-beads/Images/WhiteBeadChoiceWrong.png","","","","","","","","","",""
"image-keyboard-response","373","358637","0.0-3.0-6.0-1.0-0.79","660468936857e5fb0964cd60","6662009ae78f21dd82fcd179","6662074f98a9d5599327ca22","367","","j","","","","","","","","./tasks/HMM-beads/Images/NewTrialBC.png","lowH","1","79","0","0","0","1","false","",""
"image-keyboard-response","374","358954","0.0-3.0-6.0-1.0-1.79","660468936857e5fb0964cd60","6662009ae78f21dd82fcd179","6662074f98a9d5599327ca22","null","","null","","","","","","","","./tasks/HMM-beads/Images/WhiteBeadChoice.png","","","","","","","","","",""
