"trial_type","trial_index","time_elapsed","internal_node_id","subject_id","study_id","session_id","rt","url","response","question_order","view_history","success","timeout","failed_images","failed_audio","failed_video","stimulus","block","block_rep","trial_number","jar","bead","previous_bead","choice","correct","lowH_score","total_bonus"
"pavlovia","0","1265","0.0-0.0","654134d0ff22af1e0e59a29f","6662009ae78f21dd82fcd179","66620d16fa43fa0c7e697af7","","","","","","","","","","","","","","","","","","","","",""
"external-html","1","15282","0.0-1.0-0.0","654134d0ff22af1e0e59a29f","6662009ae78f21dd82fcd179","66620d16fa43fa0c7e697af7","13842","new_consent.html","","","","","","","","","","","","","","","","","","",""
"survey-multi-choice","2","22699","0.0-1.0-1.0","654134d0ff22af1e0e59a29f","6662009ae78f21dd82fcd179","66620d16fa43fa0c7e697af7","7414","","{""Q0"":""Female"",""Q1"":""Hispanic or Latino""}","[0,1]","","","","","","","","","","","","","","","","",""
"survey-text","3","26465","0.0-1.0-2.0","654134d0ff22af1e0e59a29f","6662009ae78f21dd82fcd179","66620d16fa43fa0c7e697af7","3762","","{""Q0"":""42""}","","","","","","","","","","","","","","","","","",""
"instructions","4","30320","0.0-2.0","654134d0ff22af1e0e59a29f","6662009ae78f21dd82fcd179","66620d16fa43fa0c7e697af7","3743","","","","[{""page_index"":0,""viewing_time"":3742}]","","","","","","","","","","","","","","","",""
"preload","5","33025","0.0-3.0-0.0","654134d0ff22af1e0e59a29f","6662009ae78f21dd82fcd179","66620d16fa43fa0c7e697af7","","","","","","true","false","[]","[]","[]","","","","","","","","","","",""
"instructions","6","422830","0.0-3.0-1.0","654134d0ff22af1e0e59a29f","6662009ae78f21dd82fcd179","66620d16fa43fa0c7e697af7","389804","","","","[{""page_index"":0,""viewing_time"":20736},{""page_index"":1,""viewing_time"":14911},{""page_index"":2,""viewing_time"":8222},{""page_index"":3,""viewing_time"":4142},{""page_index"":4,""viewing_time"":14309},{""page_index"":5,""viewing_time"":5640},{""page_index"":4,""viewing_time"":4816},{""page_index"":5,""viewing_time"":259586},{""page_index"":6,""viewing_time"":8868},{""page_index"":7,""viewing_time"":4684},{""page_index"":8,""viewing_time"":5917},{""page_index"":9,""viewing_time"":11108},{""page_index"":10,""viewing_time"":15389},{""page_index"":11,""viewing_time"":1911},{""page_index"":10,""viewing_time"":6038},{""page_index"":11,""viewing_time"":3528}]","","","","","","","","","","","","","","","",""
"html-button-response","7","427630","0.0-3.0-2.0-0.0-0.0","654134d0ff22af1e0e59a29f","6662009ae78f21dd82fcd179","66620d16fa43fa0c7e697af7","4798","","1","","","","","","","","<div align=center>Your goal is to predict…?<br><br></div>","","","","","","","","","",""
"html-button-response","8","436344","0.0-3.0-2.0-1.0-0.0","654134d0ff22af1e0e59a29f","6662009ae78f21dd82fcd179","66620d16fa43fa0c7e697af7","6046","","2","","","","","","","","<div align=center>In the jar with mostly white beads, there are ___% white beads and ___% black beads?<br><br></div>","","","","","","","","","",""
"html-button-response","9","449316","0.0-3.0-2.0-2.0-0.0","654134d0ff22af1e0e59a29f","6662009ae78f21dd82fcd179","66620d16fa43fa0c7e697af7","10767","","0","","","","","","","","<div align=center>When there is a 1% probability that the jars will switch, the next bead will most likely be drawn from the…<br><br></div>","","","","","","","","","",""
"html-button-response","10","454396","0.0-3.0-2.0-3.0-0.0","654134d0ff22af1e0e59a29f","6662009ae78f21dd82fcd179","66620d16fa43fa0c7e697af7","3138","","1","","","","","","","","<div align=center>When there is a 99% probability that the jars will switch, the next bead will most likely be drawn from the…<br><br></div>","","","","","","","","","",""
"instructions","11","484490","0.0-3.0-3.0","654134d0ff22af1e0e59a29f","6662009ae78f21dd82fcd179","66620d16fa43fa0c7e697af7","28375","","","","[{""page_index"":0,""viewing_time"":28374}]","","","","","","","","","","","","","","","",""
"html-keyboard-response","12","493813","0.0-3.0-4.0-0.0","654134d0ff22af1e0e59a29f","6662009ae78f21dd82fcd179","66620d16fa43fa0c7e697af7","9321",""," ","","","","","","","","<div align=center>In this practice block, there will be a <b>1% chance</b> that the jar on the next trial will be different from the jar on the current trial.<br><br></div>","","","","","","","","","",""
"image-keyboard-response","13","502368","0.0-3.0-4.0-1.0-0.0","654134d0ff22af1e0e59a29f","6662009ae78f21dd82fcd179","66620d16fa43fa0c7e697af7","8550","","f","","","","","","","","./tasks/HMM-beads/Images/NoChoice.png","practice","0","0","0","0","9","0","true","",""
"image-keyboard-response","14","502678","0.0-3.0-4.0-1.0-1.0","654134d0ff22af1e0e59a29f","6662009ae78f21dd82fcd179","66620d16fa43fa0c7e697af7","null","","null","","","","","","","","./tasks/HMM-beads/Images/BlackBeadChoice.png","","","","","","","","","",""
"image-keyboard-response","15","503186","0.0-3.0-4.0-1.0-2.0","654134d0ff22af1e0e59a29f","6662009ae78f21dd82fcd179","66620d16fa43fa0c7e697af7","null","","null","","","","","","","","./tasks/HMM-beads/Images/BlackBeadChoiceCorrect.png","","","","","","","","","",""
"image-keyboard-response","16","506529","0.0-3.0-4.0-1.0-0.1","654134d0ff22af1e0e59a29f","6662009ae78f21dd82fcd179","66620d16fa43fa0c7e697af7","3341","","f","","","","","","","","./tasks/HMM-beads/Images/NewTrialBC.png","practice","0","1","0","0","0","0","true","",""
"image-keyboard-response","17","506834","0.0-3.0-4.0-1.0-1.1","654134d0ff22af1e0e59a29f","6662009ae78f21dd82fcd179","66620d16fa43fa0c7e697af7","null","","null","","","","","","","","./tasks/HMM-beads/Images/BlackBeadChoice.png","","","","","","","","","",""
"image-keyboard-response","18","507351","0.0-3.0-4.0-1.0-2.1","654134d0ff22af1e0e59a29f","6662009ae78f21dd82fcd179","66620d16fa43fa0c7e697af7","null","","null","","","","","","","","./tasks/HMM-beads/Images/BlackBeadChoiceCorrect.png","","","","","","","","","",""
"image-keyboard-response","19","511306","0.0-3.0-4.0-1.0-0.2","654134d0ff22af1e0e59a29f","6662009ae78f21dd82fcd179","66620d16fa43fa0c7e697af7","3952","","f","","","","","","","","./tasks/HMM-beads/Images/NewTrialBC.png","practice","0","2","0","1","0","0","false","",""
"image-keyboard-response","20","511610","0.0-3.0-4.0-1.0-1.2","654134d0ff22af1e0e59a29f","6662009ae78f21dd82fcd179","66620d16fa43fa0c7e697af7","null","","null","","","","","","","","./tasks/HMM-beads/Images/BlackBeadChoice.png","","","","","","","","","",""
"image-keyboard-response","21","512124","0.0-3.0-4.0-1.0-2.2","654134d0ff22af1e0e59a29f","6662009ae78f21dd82fcd179","66620d16fa43fa0c7e697af7","null","","null","","","","","","","","./tasks/HMM-beads/Images/BlackBeadChoiceWrong.png","","","","","","","","","",""
"image-keyboard-response","22","513462","0.0-3.0-4.0-1.0-0.3","654134d0ff22af1e0e59a29f","6662009ae78f21dd82fcd179","66620d16fa43fa0c7e697af7","1335","","f","","","","","","","","./tasks/HMM-beads/Images/NewTrialWC.png","practice","0","3","0","0","1","0","true","",""
"image-keyboard-response","23","513776","0.0-3.0-4.0-1.0-1.3","654134d0ff22af1e0e59a29f","6662009ae78f21dd82fcd179","66620d16fa43fa0c7e697af7","null","","null","","","","","","","","./tasks/HMM-beads/Images/BlackBeadChoice.png","","","","","","","","","",""
"image-keyboard-response","24","514289","0.0-3.0-4.0-1.0-2.3","654134d0ff22af1e0e59a29f","6662009ae78f21dd82fcd179","66620d16fa43fa0c7e697af7","null","","null","","","","","","","","./tasks/HMM-beads/Images/BlackBeadChoiceCorrect.png","","","","","","","","","",""
"image-keyboard-response","25","515562","0.0-3.0-4.0-1.0-0.4","654134d0ff22af1e0e59a29f","6662009ae78f21dd82fcd179","66620d16fa43fa0c7e697af7","1264","","f","","","","","","","","./tasks/HMM-beads/Images/NewTrialBC.png","practice","0","4","0","0","0","0","true","",""
"image-keyboard-response","26","515866","0.0-3.0-4.0-1.0-1.4","654134d0ff22af1e0e59a29f","6662009ae78f21dd82fcd179","66620d16fa43fa0c7e697af7","null","","null","","","","","","","","./tasks/HMM-beads/Images/BlackBeadChoice.png","","","","","","","","","",""
"image-keyboard-response","27","516379","0.0-3.0-4.0-1.0-2.4","654134d0ff22af1e0e59a29f","6662009ae78f21dd82fcd179","66620d16fa43fa0c7e697af7","null","","null","","","","","","","","./tasks/HMM-beads/Images/BlackBeadChoiceCorrect.png","","","","","","","","","",""
"image-keyboard-response","28","517693","0.0-3.0-4.0-1.0-0.5","654134d0ff22af1e0e59a29f","6662009ae78f21dd82fcd179","66620d16fa43fa0c7e697af7","1312","","j","","","","","","","","./tasks/HMM-beads/Images/NewTrialBC.png","practice","0","5","0","1","0","1","true","",""
"image-keyboard-response","29","517996","0.0-3.0-4.0-1.0-1.5","654134d0ff22af1e0e59a29f","6662009ae78f21dd82fcd179","66620d16fa43fa0c7e697af7","null","","null","","","","","","","","./tasks/HMM-beads/Images/WhiteBeadChoice.png","","","","","","","","","",""
"image-keyboard-response","30","518503","0.0-3.0-4.0-1.0-2.5","654134d0ff22af1e0e59a29f","6662009ae78f21dd82fcd179","66620d16fa43fa0c7e697af7","null","","null","","","","","","","","./tasks/HMM-beads/Images/WhiteBeadChoiceCorrect.png","","","","","","","","","",""
"image-keyboard-response","31","521523","0.0-3.0-4.0-1.0-0.6","654134d0ff22af1e0e59a29f","6662009ae78f21dd82fcd179","66620d16fa43fa0c7e697af7","3018","","f","","","","","","","","./tasks/HMM-beads/Images/NewTrialWC.png","practice","0","6","0","0","1","0","true","",""
"image-keyboard-response","32","521832","0.0-3.0-4.0-1.0-1.6","654134d0ff22af1e0e59a29f","6662009ae78f21dd82fcd179","66620d16fa43fa0c7e697af7","null","","null","","","","","","","","./tasks/HMM-beads/Images/BlackBeadChoice.png","","","","","","","","","",""
"image-keyboard-response","33","522348","0.0-3.0-4.0-1.0-2.6","654134d0ff22af1e0e59a29f","6662009ae78f21dd82fcd179","66620d16fa43fa0c7e697af7","null","","null","","","","","","","","./tasks/HMM-beads/Images/BlackBeadChoiceCorrect.png","","","","","","","","","",""
"image-keyboard-response","34","524113","0.0-3.0-4.0-1.0-0.7","654134d0ff22af1e0e59a29f","6662009ae78f21dd82fcd179","66620d16fa43fa0c7e697af7","1762","","f","","","","","","","","./tasks/HMM-beads/Images/NewTrialBC.png","practice","0","7","0","0","0","0","true","",""
"image-keyboard-response","35","524418","0.0-3.0-4.0-1.0-1.7","654134d0ff22af1e0e59a29f","6662009ae78f21dd82fcd179","66620d16fa43fa0c7e697af7","null","","null","","","","","","","","./tasks/HMM-beads/Images/BlackBeadChoice.png","","","","","","","","","",""
"image-keyboard-response","36","524934","0.0-3.0-4.0-1.0-2.7","654134d0ff22af1e0e59a29f","6662009ae78f21dd82fcd179","66620d16fa43fa0c7e697af7","null","","null","","","","","","","","./tasks/HMM-beads/Images/BlackBeadChoiceCorrect.png","","","","","","","","","",""
"image-keyboard-response","37","525977","0.0-3.0-4.0-1.0-0.8","654134d0ff22af1e0e59a29f","6662009ae78f21dd82fcd179","66620d16fa43fa0c7e697af7","1041","","f","","","","","","","","./tasks/HMM-beads/Images/NewTrialBC.png","practice","0","8","0","0","0","0","true","",""
"image-keyboard-response","38","526300","0.0-3.0-4.0-1.0-1.8","654134d0ff22af1e0e59a29f","6662009ae78f21dd82fcd179","66620d16fa43fa0c7e697af7","null","","null","","","","","","","","./tasks/HMM-beads/Images/BlackBeadChoice.png","","","","","","","","","",""
"image-keyboard-response","39","526817","0.0-3.0-4.0-1.0-2.8","654134d0ff22af1e0e59a29f","6662009ae78f21dd82fcd179","66620d16fa43fa0c7e697af7","null","","null","","","","","","","","./tasks/HMM-beads/Images/BlackBeadChoiceCorrect.png","","","","","","","","","",""
"image-keyboard-response","40","527575","0.0-3.0-4.0-1.0-0.9","654134d0ff22af1e0e59a29f","6662009ae78f21dd82fcd179","66620d16fa43fa0c7e697af7","755","","j","","","","","","","","./tasks/HMM-beads/Images/NewTrialBC.png","practice","0","9","0","1","0","1","true","",""
"image-keyboard-response","41","527882","0.0-3.0-4.0-1.0-1.9","654134d0ff22af1e0e59a29f","6662009ae78f21dd82fcd179","66620d16fa43fa0c7e697af7","null","","null","","","","","","","","./tasks/HMM-beads/Images/WhiteBeadChoice.png","","","","","","","","","",""
"image-keyboard-response","42","528394","0.0-3.0-4.0-1.0-2.9","654134d0ff22af1e0e59a29f","6662009ae78f21dd82fcd179","66620d16fa43fa0c7e697af7","null","","null","","","","","","","","./tasks/HMM-beads/Images/WhiteBeadChoiceCorrect.png","","","","","","","","","",""
"image-keyboard-response","43","529383","0.0-3.0-4.0-1.0-0.10","654134d0ff22af1e0e59a29f","6662009ae78f21dd82fcd179","66620d16fa43fa0c7e697af7","988","","f","","","","","","","","./tasks/HMM-beads/Images/NewTrialWC.png","practice","0","10","0","0","1","0","true","",""
"image-keyboard-response","44","529686","0.0-3.0-4.0-1.0-1.10","654134d0ff22af1e0e59a29f","6662009ae78f21dd82fcd179","66620d16fa43fa0c7e697af7","null","","null","","","","","","","","./tasks/HMM-beads/Images/BlackBeadChoice.png","","","","","","","","","",""
"image-keyboard-response","45","530197","0.0-3.0-4.0-1.0-2.10","654134d0ff22af1e0e59a29f","6662009ae78f21dd82fcd179","66620d16fa43fa0c7e697af7","null","","null","","","","","","","","./tasks/HMM-beads/Images/BlackBeadChoiceCorrect.png","","","","","","","","","",""
"image-keyboard-response","46","530838","0.0-3.0-4.0-1.0-0.11","654134d0ff22af1e0e59a29f","6662009ae78f21dd82fcd179","66620d16fa43fa0c7e697af7","639","","f","","","","","","","","./tasks/HMM-beads/Images/NewTrialBC.png","practice","0","11","0","1","0","0","false","",""
"image-keyboard-response","47","531145","0.0-3.0-4.0-1.0-1.11","654134d0ff22af1e0e59a29f","6662009ae78f21dd82fcd179","66620d16fa43fa0c7e697af7","null","","null","","","","","","","","./tasks/HMM-beads/Images/BlackBeadChoice.png","","","","","","","","","",""
"image-keyboard-response","48","531656","0.0-3.0-4.0-1.0-2.11","654134d0ff22af1e0e59a29f","6662009ae78f21dd82fcd179","66620d16fa43fa0c7e697af7","null","","null","","","","","","","","./tasks/HMM-beads/Images/BlackBeadChoiceWrong.png","","","","","","","","","",""
"image-keyboard-response","49","532348","0.0-3.0-4.0-1.0-0.12","654134d0ff22af1e0e59a29f","6662009ae78f21dd82fcd179","66620d16fa43fa0c7e697af7","690","","f","","","","","","","","./tasks/HMM-beads/Images/NewTrialWC.png","practice","0","12","0","0","1","0","true","",""
"image-keyboard-response","50","532658","0.0-3.0-4.0-1.0-1.12","654134d0ff22af1e0e59a29f","6662009ae78f21dd82fcd179","66620d16fa43fa0c7e697af7","null","","null","","","","","","","","./tasks/HMM-beads/Images/BlackBeadChoice.png","","","","","","","","","",""
"image-keyboard-response","51","533168","0.0-3.0-4.0-1.0-2.12","654134d0ff22af1e0e59a29f","6662009ae78f21dd82fcd179","66620d16fa43fa0c7e697af7","null","","null","","","","","","","","./tasks/HMM-beads/Images/BlackBeadChoiceCorrect.png","","","","","","","","","",""
"image-keyboard-response","52","534240","0.0-3.0-4.0-1.0-0.13","654134d0ff22af1e0e59a29f","6662009ae78f21dd82fcd179","66620d16fa43fa0c7e697af7","1071","","f","","","","","","","","./tasks/HMM-beads/Images/NewTrialBC.png","practice","0","13","0","0","0","0","true","",""
"image-keyboard-response","53","534554","0.0-3.0-4.0-1.0-1.13","654134d0ff22af1e0e59a29f","6662009ae78f21dd82fcd179","66620d16fa43fa0c7e697af7","null","","null","","","","","","","","./tasks/HMM-beads/Images/BlackBeadChoice.png","","","","","","","","","",""
"image-keyboard-response","54","535061","0.0-3.0-4.0-1.0-2.13","654134d0ff22af1e0e59a29f","6662009ae78f21dd82fcd179","66620d16fa43fa0c7e697af7","null","","null","","","","","","","","./tasks/HMM-beads/Images/BlackBeadChoiceCorrect.png","","","","","","","","","",""
"image-keyboard-response","55","535680","0.0-3.0-4.0-1.0-0.14","654134d0ff22af1e0e59a29f","6662009ae78f21dd82fcd179","66620d16fa43fa0c7e697af7","616","","f","","","","","","","","./tasks/HMM-beads/Images/NewTrialBC.png","practice","0","14","0","0","0","0","true","",""
"image-keyboard-response","56","535995","0.0-3.0-4.0-1.0-1.14","654134d0ff22af1e0e59a29f","6662009ae78f21dd82fcd179","66620d16fa43fa0c7e697af7","null","","null","","","","","","","","./tasks/HMM-beads/Images/BlackBeadChoice.png","","","","","","","","","",""
"image-keyboard-response","57","536501","0.0-3.0-4.0-1.0-2.14","654134d0ff22af1e0e59a29f","6662009ae78f21dd82fcd179","66620d16fa43fa0c7e697af7","null","","null","","","","","","","","./tasks/HMM-beads/Images/BlackBeadChoiceCorrect.png","","","","","","","","","",""
"image-keyboard-response","58","537022","0.0-3.0-4.0-1.0-0.15","654134d0ff22af1e0e59a29f","6662009ae78f21dd82fcd179","66620d16fa43fa0c7e697af7","519","","j","","","","","","","","./tasks/HMM-beads/Images/NewTrialBC.png","practice","0","15","0","0","0","1","false","",""
"image-keyboard-response","59","537338","0.0-3.0-4.0-1.0-1.15","654134d0ff22af1e0e59a29f","6662009ae78f21dd82fcd179","66620d16fa43fa0c7e697af7","null","","null","","","","","","","","./tasks/HMM-beads/Images/WhiteBeadChoice.png","","","","","","","","","",""
"image-keyboard-response","60","537853","0.0-3.0-4.0-1.0-2.15","654134d0ff22af1e0e59a29f","6662009ae78f21dd82fcd179","66620d16fa43fa0c7e697af7","null","","null","","","","","","","","./tasks/HMM-beads/Images/WhiteBeadChoiceWrong.png","","","","","","","","","",""
"image-keyboard-response","61","538948","0.0-3.0-4.0-1.0-0.16","654134d0ff22af1e0e59a29f","6662009ae78f21dd82fcd179","66620d16fa43fa0c7e697af7","1091","","j","","","","","","","","./tasks/HMM-beads/Images/NewTrialBC.png","practice","0","16","0","0","0","1","false","",""
"image-keyboard-response","62","539264","0.0-3.0-4.0-1.0-1.16","654134d0ff22af1e0e59a29f","6662009ae78f21dd82fcd179","66620d16fa43fa0c7e697af7","null","","null","","","","","","","","./tasks/HMM-beads/Images/WhiteBeadChoice.png","","","","","","","","","",""
"image-keyboard-response","63","539777","0.0-3.0-4.0-1.0-2.16","654134d0ff22af1e0e59a29f","6662009ae78f21dd82fcd179","66620d16fa43fa0c7e697af7","null","","null","","","","","","","","./tasks/HMM-beads/Images/WhiteBeadChoiceWrong.png","","","","","","","","","",""
"image-keyboard-response","64","539788","0.0-3.0-4.0-1.0-0.17","654134d0ff22af1e0e59a29f","6662009ae78f21dd82fcd179","66620d16fa43fa0c7e697af7","4","","f","","","","","","","","./tasks/HMM-beads/Images/NewTrialBC.png","practice","0","17","0","0","0","0","true","",""
"image-keyboard-response","65","540103","0.0-3.0-4.0-1.0-1.17","654134d0ff22af1e0e59a29f","6662009ae78f21dd82fcd179","66620d16fa43fa0c7e697af7","null","","null","","","","","","","","./tasks/HMM-beads/Images/BlackBeadChoice.png","","","","","","","","","",""
"image-keyboard-response","66","540619","0.0-3.0-4.0-1.0-2.17","654134d0ff22af1e0e59a29f","6662009ae78f21dd82fcd179","66620d16fa43fa0c7e697af7","null","","null","","","","","","","","./tasks/HMM-beads/Images/BlackBeadChoiceCorrect.png","","","","","","","","","",""
"image-keyboard-response","67","540841","0.0-3.0-4.0-1.0-0.18","654134d0ff22af1e0e59a29f","6662009ae78f21dd82fcd179","66620d16fa43fa0c7e697af7","220","","f","","","","","","","","./tasks/HMM-beads/Images/NewTrialBC.png","practice","0","18","0","1","0","0","false","",""
"image-keyboard-response","68","541143","0.0-3.0-4.0-1.0-1.18","654134d0ff22af1e0e59a29f","6662009ae78f21dd82fcd179","66620d16fa43fa0c7e697af7","null","","null","","","","","","","","./tasks/HMM-beads/Images/BlackBeadChoice.png","","","","","","","","","",""
"image-keyboard-response","69","541653","0.0-3.0-4.0-1.0-2.18","654134d0ff22af1e0e59a29f","6662009ae78f21dd82fcd179","66620d16fa43fa0c7e697af7","null","","null","","","","","","","","./tasks/HMM-beads/Images/BlackBeadChoiceWrong.png","","","","","","","","","",""
"image-keyboard-response","70","542301","0.0-3.0-4.0-1.0-0.19","654134d0ff22af1e0e59a29f","6662009ae78f21dd82fcd179","66620d16fa43fa0c7e697af7","647","","f","","","","","","","","./tasks/HMM-beads/Images/NewTrialWC.png","practice","0","19","0","0","1","0","true","",""
"image-keyboard-response","71","542618","0.0-3.0-4.0-1.0-1.19","654134d0ff22af1e0e59a29f","6662009ae78f21dd82fcd179","66620d16fa43fa0c7e697af7","null","","null","","","","","","","","./tasks/HMM-beads/Images/BlackBeadChoice.png","","","","","","","","","",""
"image-keyboard-response","72","543126","0.0-3.0-4.0-1.0-2.19","654134d0ff22af1e0e59a29f","6662009ae78f21dd82fcd179","66620d16fa43fa0c7e697af7","null","","null","","","","","","","","./tasks/HMM-beads/Images/BlackBeadChoiceCorrect.png","","","","","","","","","",""
"image-keyboard-response","73","543333","0.0-3.0-4.0-1.0-0.20","654134d0ff22af1e0e59a29f","6662009ae78f21dd82fcd179","66620d16fa43fa0c7e697af7","204","","f","","","","","","","","./tasks/HMM-beads/Images/NewTrialBC.png","practice","0","20","0","0","0","0","true","",""
"image-keyboard-response","74","543637","0.0-3.0-4.0-1.0-1.20","654134d0ff22af1e0e59a29f","6662009ae78f21dd82fcd179","66620d16fa43fa0c7e697af7","null","","null","","","","","","","","./tasks/HMM-beads/Images/BlackBeadChoice.png","","","","","","","","","",""
"image-keyboard-response","75","544151","0.0-3.0-4.0-1.0-2.20","654134d0ff22af1e0e59a29f","6662009ae78f21dd82fcd179","66620d16fa43fa0c7e697af7","null","","null","","","","","","","","./tasks/HMM-beads/Images/BlackBeadChoiceCorrect.png","","","","","","","","","",""
"image-keyboard-response","76","544494","0.0-3.0-4.0-1.0-0.21","654134d0ff22af1e0e59a29f","6662009ae78f21dd82fcd179","66620d16fa43fa0c7e697af7","341","","f","","","","","","","","./tasks/HMM-beads/Images/NewTrialBC.png","practice","0","21","0","1","0","0","false","",""
"image-keyboard-response","77","544804","0.0-3.0-4.0-1.0-1.21","654134d0ff22af1e0e59a29f","6662009ae78f21dd82fcd179","66620d16fa43fa0c7e697af7","null","","null","","","","","","","","./tasks/HMM-beads/Images/BlackBeadChoice.png","","","","","","","","","",""
"image-keyboard-response","78","545318","0.0-3.0-4.0-1.0-2.21","654134d0ff22af1e0e59a29f","6662009ae78f21dd82fcd179","66620d16fa43fa0c7e697af7","null","","null","","","","","","","","./tasks/HMM-beads/Images/BlackBeadChoiceWrong.png","","","","","","","","","",""
"image-keyboard-response","79","545801","0.0-3.0-4.0-1.0-0.22","654134d0ff22af1e0e59a29f","6662009ae78f21dd82fcd179","66620d16fa43fa0c7e697af7","482","","f","","","","","","","","./tasks/HMM-beads/Images/NewTrialWC.png","practice","0","22","1","1","1","0","false","",""
"image-keyboard-response","80","546112","0.0-3.0-4.0-1.0-1.22","654134d0ff22af1e0e59a29f","6662009ae78f21dd82fcd179","66620d16fa43fa0c7e697af7","null","","null","","","","","","","","./tasks/HMM-beads/Images/BlackBeadChoice.png","","","","","","","","","",""
"image-keyboard-response","81","546625","0.0-3.0-4.0-1.0-2.22","654134d0ff22af1e0e59a29f","6662009ae78f21dd82fcd179","66620d16fa43fa0c7e697af7","null","","null","","","","","","","","./tasks/HMM-beads/Images/BlackBeadChoiceWrong.png","","","","","","","","","",""
"image-keyboard-response","82","547034","0.0-3.0-4.0-1.0-0.23","654134d0ff22af1e0e59a29f","6662009ae78f21dd82fcd179","66620d16fa43fa0c7e697af7","407","","f","","","","","","","","./tasks/HMM-beads/Images/NewTrialWC.png","practice","0","23","1","0","1","0","true","",""
"image-keyboard-response","83","547348","0.0-3.0-4.0-1.0-1.23","654134d0ff22af1e0e59a29f","6662009ae78f21dd82fcd179","66620d16fa43fa0c7e697af7","null","","null","","","","","","","","./tasks/HMM-beads/Images/BlackBeadChoice.png","","","","","","","","","",""
"image-keyboard-response","84","547863","0.0-3.0-4.0-1.0-2.23","654134d0ff22af1e0e59a29f","6662009ae78f21dd82fcd179","66620d16fa43fa0c7e697af7","null","","null","","","","","","","","./tasks/HMM-beads/Images/BlackBeadChoiceCorrect.png","","","","","","","","","",""
"image-keyboard-response","85","548320","0.0-3.0-4.0-1.0-0.24","654134d0ff22af1e0e59a29f","6662009ae78f21dd82fcd179","66620d16fa43fa0c7e697af7","454","","f","","","","","","","","./tasks/HMM-beads/Images/NewTrialBC.png","practice","0","24","1","1","0","0","false","",""
"image-keyboard-response","86","548633","0.0-3.0-4.0-1.0-1.24","654134d0ff22af1e0e59a29f","6662009ae78f21dd82fcd179","66620d16fa43fa0c7e697af7","null","","null","","","","","","","","./tasks/HMM-beads/Images/BlackBeadChoice.png","","","","","","","","","",""
"image-keyboard-response","87","549150","0.0-3.0-4.0-1.0-2.24","654134d0ff22af1e0e59a29f","6662009ae78f21dd82fcd179","66620d16fa43fa0c7e697af7","null","","null","","","","","","","","./tasks/HMM-beads/Images/BlackBeadChoiceWrong.png","","","","","","","","","",""
"image-keyboard-response","88","549552","0.0-3.0-4.0-1.0-0.25","654134d0ff22af1e0e59a29f","6662009ae78f21dd82fcd179","66620d16fa43fa0c7e697af7","400","","f","","","","","","","","./tasks/HMM-beads/Images/NewTrialWC.png","practice","0","25","1","1","1","0","false","",""
"image-keyboard-response","89","549865","0.0-3.0-4.0-1.0-1.25","654134d0ff22af1e0e59a29f","6662009ae78f21dd82fcd179","66620d16fa43fa0c7e697af7","null","","null","","","","","","","","./tasks/HMM-beads/Images/BlackBeadChoice.png","","","","","","","","","",""
"image-keyboard-response","90","550379","0.0-3.0-4.0-1.0-2.25","654134d0ff22af1e0e59a29f","6662009ae78f21dd82fcd179","66620d16fa43fa0c7e697af7","null","","null","","","","","","","","./tasks/HMM-beads/Images/BlackBeadChoiceWrong.png","","","","","","","","","",""
"image-keyboard-response","91","553263","0.0-3.0-4.0-1.0-0.26","654134d0ff22af1e0e59a29f","6662009ae78f21dd82fcd179","66620d16fa43fa0c7e697af7","2882","","j","","","","","","","","./tasks/HMM-beads/Images/NewTrialWC.png","practice","0","26","1","1","1","1","true","",""
"image-keyboard-response","92","553580","0.0-3.0-4.0-1.0-1.26","654134d0ff22af1e0e59a29f","6662009ae78f21dd82fcd179","66620d16fa43fa0c7e697af7","null","","null","","","","","","","","./tasks/HMM-beads/Images/WhiteBeadChoice.png","","","","","","","","","",""
"image-keyboard-response","93","554095","0.0-3.0-4.0-1.0-2.26","654134d0ff22af1e0e59a29f","6662009ae78f21dd82fcd179","66620d16fa43fa0c7e697af7","null","","null","","","","","","","","./tasks/HMM-beads/Images/WhiteBeadChoiceCorrect.png","","","","","","","","","",""
"image-keyboard-response","94","554823","0.0-3.0-4.0-1.0-0.27","654134d0ff22af1e0e59a29f","6662009ae78f21dd82fcd179","66620d16fa43fa0c7e697af7","725","","j","","","","","","","","./tasks/HMM-beads/Images/NewTrialWC.png","practice","0","27","1","1","1","1","true","",""
"image-keyboard-response","95","555128","0.0-3.0-4.0-1.0-1.27","654134d0ff22af1e0e59a29f","6662009ae78f21dd82fcd179","66620d16fa43fa0c7e697af7","null","","null","","","","","","","","./tasks/HMM-beads/Images/WhiteBeadChoice.png","","","","","","","","","",""
"image-keyboard-response","96","555640","0.0-3.0-4.0-1.0-2.27","654134d0ff22af1e0e59a29f","6662009ae78f21dd82fcd179","66620d16fa43fa0c7e697af7","null","","null","","","","","","","","./tasks/HMM-beads/Images/WhiteBeadChoiceCorrect.png","","","","","","","","","",""
"image-keyboard-response","97","557139","0.0-3.0-4.0-1.0-0.28","654134d0ff22af1e0e59a29f","6662009ae78f21dd82fcd179","66620d16fa43fa0c7e697af7","1497","","j","","","","","","","","./tasks/HMM-beads/Images/NewTrialWC.png","practice","0","28","1","0","1","1","false","",""
"image-keyboard-response","98","557454","0.0-3.0-4.0-1.0-1.28","654134d0ff22af1e0e59a29f","6662009ae78f21dd82fcd179","66620d16fa43fa0c7e697af7","null","","null","","","","","","","","./tasks/HMM-beads/Images/WhiteBeadChoice.png","","","","","","","","","",""
"image-keyboard-response","99","557972","0.0-3.0-4.0-1.0-2.28","654134d0ff22af1e0e59a29f","6662009ae78f21dd82fcd179","66620d16fa43fa0c7e697af7","null","","null","","","","","","","","./tasks/HMM-beads/Images/WhiteBeadChoiceWrong.png","","","","","","","","","",""
"image-keyboard-response","100","558901","0.0-3.0-4.0-1.0-0.29","654134d0ff22af1e0e59a29f","6662009ae78f21dd82fcd179","66620d16fa43fa0c7e697af7","927","","f","","","","","","","","./tasks/HMM-beads/Images/NewTrialBC.png","practice","0","29","1","1","0","0","false","",""
"image-keyboard-response","101","559206","0.0-3.0-4.0-1.0-1.29","654134d0ff22af1e0e59a29f","6662009ae78f21dd82fcd179","66620d16fa43fa0c7e697af7","null","","null","","","","","","","","./tasks/HMM-beads/Images/BlackBeadChoice.png","","","","","","","","","",""
"image-keyboard-response","102","559716","0.0-3.0-4.0-1.0-2.29","654134d0ff22af1e0e59a29f","6662009ae78f21dd82fcd179","66620d16fa43fa0c7e697af7","null","","null","","","","","","","","./tasks/HMM-beads/Images/BlackBeadChoiceWrong.png","","","","","","","","","",""
"image-keyboard-response","103","560302","0.0-3.0-4.0-1.0-0.30","654134d0ff22af1e0e59a29f","6662009ae78f21dd82fcd179","66620d16fa43fa0c7e697af7","577","","j","","","","","","","","./tasks/HMM-beads/Images/NewTrialWC.png","practice","0","30","1","0","1","1","false","",""
"image-keyboard-response","104","560610","0.0-3.0-4.0-1.0-1.30","654134d0ff22af1e0e59a29f","6662009ae78f21dd82fcd179","66620d16fa43fa0c7e697af7","null","","null","","","","","","","","./tasks/HMM-beads/Images/WhiteBeadChoice.png","","","","","","","","","",""
"image-keyboard-response","105","561125","0.0-3.0-4.0-1.0-2.30","654134d0ff22af1e0e59a29f","6662009ae78f21dd82fcd179","66620d16fa43fa0c7e697af7","null","","null","","","","","","","","./tasks/HMM-beads/Images/WhiteBeadChoiceWrong.png","","","","","","","","","",""
"image-keyboard-response","106","561584","0.0-3.0-4.0-1.0-0.31","654134d0ff22af1e0e59a29f","6662009ae78f21dd82fcd179","66620d16fa43fa0c7e697af7","457","","j","","","","","","","","./tasks/HMM-beads/Images/NewTrialBC.png","practice","0","31","1","1","0","1","true","",""
"image-keyboard-response","107","561900","0.0-3.0-4.0-1.0-1.31","654134d0ff22af1e0e59a29f","6662009ae78f21dd82fcd179","66620d16fa43fa0c7e697af7","null","","null","","","","","","","","./tasks/HMM-beads/Images/WhiteBeadChoice.png","","","","","","","","","",""
"image-keyboard-response","108","562418","0.0-3.0-4.0-1.0-2.31","654134d0ff22af1e0e59a29f","6662009ae78f21dd82fcd179","66620d16fa43fa0c7e697af7","null","","null","","","","","","","","./tasks/HMM-beads/Images/WhiteBeadChoiceCorrect.png","","","","","","","","","",""
"image-keyboard-response","109","563663","0.0-3.0-4.0-1.0-0.32","654134d0ff22af1e0e59a29f","6662009ae78f21dd82fcd179","66620d16fa43fa0c7e697af7","1242","","j","","","","","","","","./tasks/HMM-beads/Images/NewTrialWC.png","practice","0","32","1","1","1","1","true","",""
"image-keyboard-response","110","563970","0.0-3.0-4.0-1.0-1.32","654134d0ff22af1e0e59a29f","6662009ae78f21dd82fcd179","66620d16fa43fa0c7e697af7","null","","null","","","","","","","","./tasks/HMM-beads/Images/WhiteBeadChoice.png","","","","","","","","","",""
"image-keyboard-response","111","564485","0.0-3.0-4.0-1.0-2.32","654134d0ff22af1e0e59a29f","6662009ae78f21dd82fcd179","66620d16fa43fa0c7e697af7","null","","null","","","","","","","","./tasks/HMM-beads/Images/WhiteBeadChoiceCorrect.png","","","","","","","","","",""
"image-keyboard-response","112","565641","0.0-3.0-4.0-1.0-0.33","654134d0ff22af1e0e59a29f","6662009ae78f21dd82fcd179","66620d16fa43fa0c7e697af7","1153","","j","","","","","","","","./tasks/HMM-beads/Images/NewTrialWC.png","practice","0","33","1","1","1","1","true","",""
"image-keyboard-response","113","565944","0.0-3.0-4.0-1.0-1.33","654134d0ff22af1e0e59a29f","6662009ae78f21dd82fcd179","66620d16fa43fa0c7e697af7","null","","null","","","","","","","","./tasks/HMM-beads/Images/WhiteBeadChoice.png","","","","","","","","","",""
"image-keyboard-response","114","566455","0.0-3.0-4.0-1.0-2.33","654134d0ff22af1e0e59a29f","6662009ae78f21dd82fcd179","66620d16fa43fa0c7e697af7","null","","null","","","","","","","","./tasks/HMM-beads/Images/WhiteBeadChoiceCorrect.png","","","","","","","","","",""
"image-keyboard-response","115","567933","0.0-3.0-4.0-1.0-0.34","654134d0ff22af1e0e59a29f","6662009ae78f21dd82fcd179","66620d16fa43fa0c7e697af7","1476","","f","","","","","","","","./tasks/HMM-beads/Images/NewTrialWC.png","practice","0","34","1","1","1","0","false","",""
"image-keyboard-response","116","568246","0.0-3.0-4.0-1.0-1.34","654134d0ff22af1e0e59a29f","6662009ae78f21dd82fcd179","66620d16fa43fa0c7e697af7","null","","null","","","","","","","","./tasks/HMM-beads/Images/BlackBeadChoice.png","","","","","","","","","",""
"image-keyboard-response","117","568763","0.0-3.0-4.0-1.0-2.34","654134d0ff22af1e0e59a29f","6662009ae78f21dd82fcd179","66620d16fa43fa0c7e697af7","null","","null","","","","","","","","./tasks/HMM-beads/Images/BlackBeadChoiceWrong.png","","","","","","","","","",""
"image-keyboard-response","118","570198","0.0-3.0-4.0-1.0-0.35","654134d0ff22af1e0e59a29f","6662009ae78f21dd82fcd179","66620d16fa43fa0c7e697af7","1434","","j","","","","","","","","./tasks/HMM-beads/Images/NewTrialWC.png","practice","0","35","1","1","1","1","true","",""
"image-keyboard-response","119","570513","0.0-3.0-4.0-1.0-1.35","654134d0ff22af1e0e59a29f","6662009ae78f21dd82fcd179","66620d16fa43fa0c7e697af7","null","","null","","","","","","","","./tasks/HMM-beads/Images/WhiteBeadChoice.png","","","","","","","","","",""
"image-keyboard-response","120","571027","0.0-3.0-4.0-1.0-2.35","654134d0ff22af1e0e59a29f","6662009ae78f21dd82fcd179","66620d16fa43fa0c7e697af7","null","","null","","","","","","","","./tasks/HMM-beads/Images/WhiteBeadChoiceCorrect.png","","","","","","","","","",""
"image-keyboard-response","121","572235","0.0-3.0-4.0-1.0-0.36","654134d0ff22af1e0e59a29f","6662009ae78f21dd82fcd179","66620d16fa43fa0c7e697af7","1206","","j","","","","","","","","./tasks/HMM-beads/Images/NewTrialWC.png","practice","0","36","1","0","1","1","false","",""
"image-keyboard-response","122","572543","0.0-3.0-4.0-1.0-1.36","654134d0ff22af1e0e59a29f","6662009ae78f21dd82fcd179","66620d16fa43fa0c7e697af7","null","","null","","","","","","","","./tasks/HMM-beads/Images/WhiteBeadChoice.png","","","","","","","","","",""
"image-keyboard-response","123","573058","0.0-3.0-4.0-1.0-2.36","654134d0ff22af1e0e59a29f","6662009ae78f21dd82fcd179","66620d16fa43fa0c7e697af7","null","","null","","","","","","","","./tasks/HMM-beads/Images/WhiteBeadChoiceWrong.png","","","","","","","","","",""
"image-keyboard-response","124","573620","0.0-3.0-4.0-1.0-0.37","654134d0ff22af1e0e59a29f","6662009ae78f21dd82fcd179","66620d16fa43fa0c7e697af7","560","","j","","","","","","","","./tasks/HMM-beads/Images/NewTrialBC.png","practice","0","37","1","1","0","1","true","",""
"image-keyboard-response","125","573927","0.0-3.0-4.0-1.0-1.37","654134d0ff22af1e0e59a29f","6662009ae78f21dd82fcd179","66620d16fa43fa0c7e697af7","null","","null","","","","","","","","./tasks/HMM-beads/Images/WhiteBeadChoice.png","","","","","","","","","",""
"image-keyboard-response","126","574437","0.0-3.0-4.0-1.0-2.37","654134d0ff22af1e0e59a29f","6662009ae78f21dd82fcd179","66620d16fa43fa0c7e697af7","null","","null","","","","","","","","./tasks/HMM-beads/Images/WhiteBeadChoiceCorrect.png","","","","","","","","","",""
"image-keyboard-response","127","575284","0.0-3.0-4.0-1.0-0.38","654134d0ff22af1e0e59a29f","6662009ae78f21dd82fcd179","66620d16fa43fa0c7e697af7","846","","j","","","","","","","","./tasks/HMM-beads/Images/NewTrialWC.png","practice","0","38","1","1","1","1","true","",""
"image-keyboard-response","128","575601","0.0-3.0-4.0-1.0-1.38","654134d0ff22af1e0e59a29f","6662009ae78f21dd82fcd179","66620d16fa43fa0c7e697af7","null","","null","","","","","","","","./tasks/HMM-beads/Images/WhiteBeadChoice.png","","","","","","","","","",""
"image-keyboard-response","129","576116","0.0-3.0-4.0-1.0-2.38","654134d0ff22af1e0e59a29f","6662009ae78f21dd82fcd179","66620d16fa43fa0c7e697af7","null","","null","","","","","","","","./tasks/HMM-beads/Images/WhiteBeadChoiceCorrect.png","","","","","","","","","",""
"image-keyboard-response","130","577277","0.0-3.0-4.0-1.0-0.39","654134d0ff22af1e0e59a29f","6662009ae78f21dd82fcd179","66620d16fa43fa0c7e697af7","1158","","j","","","","","","","","./tasks/HMM-beads/Images/NewTrialWC.png","practice","0","39","1","1","1","1","true","",""
"image-keyboard-response","131","577588","0.0-3.0-4.0-1.0-1.39","654134d0ff22af1e0e59a29f","6662009ae78f21dd82fcd179","66620d16fa43fa0c7e697af7","null","","null","","","","","","","","./tasks/HMM-beads/Images/WhiteBeadChoice.png","","","","","","","","","",""
"image-keyboard-response","132","578104","0.0-3.0-4.0-1.0-2.39","654134d0ff22af1e0e59a29f","6662009ae78f21dd82fcd179","66620d16fa43fa0c7e697af7","null","","null","","","","","","","","./tasks/HMM-beads/Images/WhiteBeadChoiceCorrect.png","","","","","","","","","",""
"html-keyboard-response","133","581755","0.0-3.0-4.0-2.0","654134d0ff22af1e0e59a29f","6662009ae78f21dd82fcd179","66620d16fa43fa0c7e697af7","3648",""," ","","","","","","","","","","","","","","","","","",""
"instructions","134","601485","0.0-3.0-5.0","654134d0ff22af1e0e59a29f","6662009ae78f21dd82fcd179","66620d16fa43fa0c7e697af7","19730","","","","[{""page_index"":0,""viewing_time"":14873},{""page_index"":1,""viewing_time"":4855}]","","","","","","","","","","","","","","","",""
"html-keyboard-response","135","613985","0.0-3.0-6.0-0.0","654134d0ff22af1e0e59a29f","6662009ae78f21dd82fcd179","66620d16fa43fa0c7e697af7","12498",""," ","","","","","","","","<div align=center>In this block, there will be a <b>1% chance</b> that the jar on the next trial will be different from the jar on the current trial.<br><br></div>","","","","","","","","","",""
"image-keyboard-response","136","617306","0.0-3.0-6.0-1.0-0.0","654134d0ff22af1e0e59a29f","6662009ae78f21dd82fcd179","66620d16fa43fa0c7e697af7","3318","","f","","","","","","","","./tasks/HMM-beads/Images/NoChoice.png","lowH","1","0","1","0","9","0","true","",""
"image-keyboard-response","137","617613","0.0-3.0-6.0-1.0-1.0","654134d0ff22af1e0e59a29f","6662009ae78f21dd82fcd179","66620d16fa43fa0c7e697af7","null","","null","","","","","","","","./tasks/HMM-beads/Images/BlackBeadChoice.png","","","","","","","","","",""
"image-keyboard-response","138","618126","0.0-3.0-6.0-1.0-2.0","654134d0ff22af1e0e59a29f","6662009ae78f21dd82fcd179","66620d16fa43fa0c7e697af7","null","","null","","","","","","","","./tasks/HMM-beads/Images/BlackBeadChoiceCorrect.png","","","","","","","","","",""
"image-keyboard-response","139","619359","0.0-3.0-6.0-1.0-0.1","654134d0ff22af1e0e59a29f","6662009ae78f21dd82fcd179","66620d16fa43fa0c7e697af7","1231","","f","","","","","","","","./tasks/HMM-beads/Images/NewTrialBC.png","lowH","1","1","1","1","0","0","false","",""
"image-keyboard-response","140","619662","0.0-3.0-6.0-1.0-1.1","654134d0ff22af1e0e59a29f","6662009ae78f21dd82fcd179","66620d16fa43fa0c7e697af7","null","","null","","","","","","","","./tasks/HMM-beads/Images/BlackBeadChoice.png","","","","","","","","","",""
"image-keyboard-response","141","620174","0.0-3.0-6.0-1.0-2.1","654134d0ff22af1e0e59a29f","6662009ae78f21dd82fcd179","66620d16fa43fa0c7e697af7","null","","null","","","","","","","","./tasks/HMM-beads/Images/BlackBeadChoiceWrong.png","","","","","","","","","",""
"image-keyboard-response","142","622114","0.0-3.0-6.0-1.0-0.2","654134d0ff22af1e0e59a29f","6662009ae78f21dd82fcd179","66620d16fa43fa0c7e697af7","1938","","f","","","","","","","","./tasks/HMM-beads/Images/NewTrialWC.png","lowH","1","2","1","1","1","0","false","",""
"image-keyboard-response","143","622418","0.0-3.0-6.0-1.0-1.2","654134d0ff22af1e0e59a29f","6662009ae78f21dd82fcd179","66620d16fa43fa0c7e697af7","null","","null","","","","","","","","./tasks/HMM-beads/Images/BlackBeadChoice.png","","","","","","","","","",""
"image-keyboard-response","144","622932","0.0-3.0-6.0-1.0-2.2","654134d0ff22af1e0e59a29f","6662009ae78f21dd82fcd179","66620d16fa43fa0c7e697af7","null","","null","","","","","","","","./tasks/HMM-beads/Images/BlackBeadChoiceWrong.png","","","","","","","","","",""
"image-keyboard-response","145","623635","0.0-3.0-6.0-1.0-0.3","654134d0ff22af1e0e59a29f","6662009ae78f21dd82fcd179","66620d16fa43fa0c7e697af7","693","","j","","","","","","","","./tasks/HMM-beads/Images/NewTrialWC.png","lowH","1","3","1","1","1","1","true","",""
"image-keyboard-response","146","623950","0.0-3.0-6.0-1.0-1.3","654134d0ff22af1e0e59a29f","6662009ae78f21dd82fcd179","66620d16fa43fa0c7e697af7","null","","null","","","","","","","","./tasks/HMM-beads/Images/WhiteBeadChoice.png","","","","","","","","","",""
"image-keyboard-response","147","624465","0.0-3.0-6.0-1.0-2.3","654134d0ff22af1e0e59a29f","6662009ae78f21dd82fcd179","66620d16fa43fa0c7e697af7","null","","null","","","","","","","","./tasks/HMM-beads/Images/WhiteBeadChoiceCorrect.png","","","","","","","","","",""
"image-keyboard-response","148","626111","0.0-3.0-6.0-1.0-0.4","654134d0ff22af1e0e59a29f","6662009ae78f21dd82fcd179","66620d16fa43fa0c7e697af7","1644","","j","","","","","","","","./tasks/HMM-beads/Images/NewTrialWC.png","lowH","1","4","1","1","1","1","true","",""
"image-keyboard-response","149","626426","0.0-3.0-6.0-1.0-1.4","654134d0ff22af1e0e59a29f","6662009ae78f21dd82fcd179","66620d16fa43fa0c7e697af7","null","","null","","","","","","","","./tasks/HMM-beads/Images/WhiteBeadChoice.png","","","","","","","","","",""
"image-keyboard-response","150","626934","0.0-3.0-6.0-1.0-2.4","654134d0ff22af1e0e59a29f","6662009ae78f21dd82fcd179","66620d16fa43fa0c7e697af7","null","","null","","","","","","","","./tasks/HMM-beads/Images/WhiteBeadChoiceCorrect.png","","","","","","","","","",""
"image-keyboard-response","151","628139","0.0-3.0-6.0-1.0-0.5","654134d0ff22af1e0e59a29f","6662009ae78f21dd82fcd179","66620d16fa43fa0c7e697af7","1204","","j","","","","","","","","./tasks/HMM-beads/Images/NewTrialWC.png","lowH","1","5","1","1","1","1","true","",""
"image-keyboard-response","152","628447","0.0-3.0-6.0-1.0-1.5","654134d0ff22af1e0e59a29f","6662009ae78f21dd82fcd179","66620d16fa43fa0c7e697af7","null","","null","","","","","","","","./tasks/HMM-beads/Images/WhiteBeadChoice.png","","","","","","","","","",""
"image-keyboard-response","153","628963","0.0-3.0-6.0-1.0-2.5","654134d0ff22af1e0e59a29f","6662009ae78f21dd82fcd179","66620d16fa43fa0c7e697af7","null","","null","","","","","","","","./tasks/HMM-beads/Images/WhiteBeadChoiceCorrect.png","","","","","","","","","",""
"image-keyboard-response","154","629921","0.0-3.0-6.0-1.0-0.6","654134d0ff22af1e0e59a29f","6662009ae78f21dd82fcd179","66620d16fa43fa0c7e697af7","956","","j","","","","","","","","./tasks/HMM-beads/Images/NewTrialWC.png","lowH","1","6","1","0","1","1","false","",""
"image-keyboard-response","155","630232","0.0-3.0-6.0-1.0-1.6","654134d0ff22af1e0e59a29f","6662009ae78f21dd82fcd179","66620d16fa43fa0c7e697af7","null","","null","","","","","","","","./tasks/HMM-beads/Images/WhiteBeadChoice.png","","","","","","","","","",""
"image-keyboard-response","156","630743","0.0-3.0-6.0-1.0-2.6","654134d0ff22af1e0e59a29f","6662009ae78f21dd82fcd179","66620d16fa43fa0c7e697af7","null","","null","","","","","","","","./tasks/HMM-beads/Images/WhiteBeadChoiceWrong.png","","","","","","","","","",""
"image-keyboard-response","157","631628","0.0-3.0-6.0-1.0-0.7","654134d0ff22af1e0e59a29f","6662009ae78f21dd82fcd179","66620d16fa43fa0c7e697af7","883","","j","","","","","","","","./tasks/HMM-beads/Images/NewTrialBC.png","lowH","1","7","1","1","0","1","true","",""
"image-keyboard-response","158","631939","0.0-3.0-6.0-1.0-1.7","654134d0ff22af1e0e59a29f","6662009ae78f21dd82fcd179","66620d16fa43fa0c7e697af7","null","","null","","","","","","","","./tasks/HMM-beads/Images/WhiteBeadChoice.png","","","","","","","","","",""
"image-keyboard-response","159","632447","0.0-3.0-6.0-1.0-2.7","654134d0ff22af1e0e59a29f","6662009ae78f21dd82fcd179","66620d16fa43fa0c7e697af7","null","","null","","","","","","","","./tasks/HMM-beads/Images/WhiteBeadChoiceCorrect.png","","","","","","","","","",""
"image-keyboard-response","160","633523","0.0-3.0-6.0-1.0-0.8","654134d0ff22af1e0e59a29f","6662009ae78f21dd82fcd179","66620d16fa43fa0c7e697af7","1074","","j","","","","","","","","./tasks/HMM-beads/Images/NewTrialWC.png","lowH","1","8","1","1","1","1","true","",""
"image-keyboard-response","161","633832","0.0-3.0-6.0-1.0-1.8","654134d0ff22af1e0e59a29f","6662009ae78f21dd82fcd179","66620d16fa43fa0c7e697af7","null","","null","","","","","","","","./tasks/HMM-beads/Images/WhiteBeadChoice.png","","","","","","","","","",""
"image-keyboard-response","162","634347","0.0-3.0-6.0-1.0-2.8","654134d0ff22af1e0e59a29f","6662009ae78f21dd82fcd179","66620d16fa43fa0c7e697af7","null","","null","","","","","","","","./tasks/HMM-beads/Images/WhiteBeadChoiceCorrect.png","","","","","","","","","",""
"image-keyboard-response","163","635541","0.0-3.0-6.0-1.0-0.9","654134d0ff22af1e0e59a29f","6662009ae78f21dd82fcd179","66620d16fa43fa0c7e697af7","1191","","j","","","","","","","","./tasks/HMM-beads/Images/NewTrialWC.png","lowH","1","9","1","1","1","1","true","",""
"image-keyboard-response","164","635857","0.0-3.0-6.0-1.0-1.9","654134d0ff22af1e0e59a29f","6662009ae78f21dd82fcd179","66620d16fa43fa0c7e697af7","null","","null","","","","","","","","./tasks/HMM-beads/Images/WhiteBeadChoice.png","","","","","","","","","",""
"image-keyboard-response","165","636366","0.0-3.0-6.0-1.0-2.9","654134d0ff22af1e0e59a29f","6662009ae78f21dd82fcd179","66620d16fa43fa0c7e697af7","null","","null","","","","","","","","./tasks/HMM-beads/Images/WhiteBeadChoiceCorrect.png","","","","","","","","","",""
"image-keyboard-response","166","637756","0.0-3.0-6.0-1.0-0.10","654134d0ff22af1e0e59a29f","6662009ae78f21dd82fcd179","66620d16fa43fa0c7e697af7","1388","","f","","","","","","","","./tasks/HMM-beads/Images/NewTrialWC.png","lowH","1","10","1","1","1","0","false","",""
"image-keyboard-response","167","638060","0.0-3.0-6.0-1.0-1.10","654134d0ff22af1e0e59a29f","6662009ae78f21dd82fcd179","66620d16fa43fa0c7e697af7","null","","null","","","","","","","","./tasks/HMM-beads/Images/BlackBeadChoice.png","","","","","","","","","",""
"image-keyboard-response","168","638574","0.0-3.0-6.0-1.0-2.10","654134d0ff22af1e0e59a29f","6662009ae78f21dd82fcd179","66620d16fa43fa0c7e697af7","null","","null","","","","","","","","./tasks/HMM-beads/Images/BlackBeadChoiceWrong.png","","","","","","","","","",""
"image-keyboard-response","169","639559","0.0-3.0-6.0-1.0-0.11","654134d0ff22af1e0e59a29f","6662009ae78f21dd82fcd179","66620d16fa43fa0c7e697af7","983","","j","","","","","","","","./tasks/HMM-beads/Images/NewTrialWC.png","lowH","1","11","1","1","1","1","true","",""
"image-keyboard-response","170","639876","0.0-3.0-6.0-1.0-1.11","654134d0ff22af1e0e59a29f","6662009ae78f21dd82fcd179","66620d16fa43fa0c7e697af7","null","","null","","","","","","","","./tasks/HMM-beads/Images/WhiteBeadChoice.png","","","","","","","","","",""
"image-keyboard-response","171","640387","0.0-3.0-6.0-1.0-2.11","654134d0ff22af1e0e59a29f","6662009ae78f21dd82fcd179","66620d16fa43fa0c7e697af7","null","","null","","","","","","","","./tasks/HMM-beads/Images/WhiteBeadChoiceCorrect.png","","","","","","","","","",""
"image-keyboard-response","172","641627","0.0-3.0-6.0-1.0-0.12","654134d0ff22af1e0e59a29f","6662009ae78f21dd82fcd179","66620d16fa43fa0c7e697af7","1239","","f","","","","","","","","./tasks/HMM-beads/Images/NewTrialWC.png","lowH","1","12","1","1","1","0","false","",""
"image-keyboard-response","173","641940","0.0-3.0-6.0-1.0-1.12","654134d0ff22af1e0e59a29f","6662009ae78f21dd82fcd179","66620d16fa43fa0c7e697af7","null","","null","","","","","","","","./tasks/HMM-beads/Images/BlackBeadChoice.png","","","","","","","","","",""
"image-keyboard-response","174","642442","0.0-3.0-6.0-1.0-2.12","654134d0ff22af1e0e59a29f","6662009ae78f21dd82fcd179","66620d16fa43fa0c7e697af7","null","","null","","","","","","","","./tasks/HMM-beads/Images/BlackBeadChoiceWrong.png","","","","","","","","","",""
"image-keyboard-response","175","643008","0.0-3.0-6.0-1.0-0.13","654134d0ff22af1e0e59a29f","6662009ae78f21dd82fcd179","66620d16fa43fa0c7e697af7","564","","j","","","","","","","","./tasks/HMM-beads/Images/NewTrialWC.png","lowH","1","13","1","0","1","1","false","",""
"image-keyboard-response","176","643315","0.0-3.0-6.0-1.0-1.13","654134d0ff22af1e0e59a29f","6662009ae78f21dd82fcd179","66620d16fa43fa0c7e697af7","null","","null","","","","","","","","./tasks/HMM-beads/Images/WhiteBeadChoice.png","","","","","","","","","",""
"image-keyboard-response","177","643833","0.0-3.0-6.0-1.0-2.13","654134d0ff22af1e0e59a29f","6662009ae78f21dd82fcd179","66620d16fa43fa0c7e697af7","null","","null","","","","","","","","./tasks/HMM-beads/Images/WhiteBeadChoiceWrong.png","","","","","","","","","",""
"image-keyboard-response","178","644186","0.0-3.0-6.0-1.0-0.14","654134d0ff22af1e0e59a29f","6662009ae78f21dd82fcd179","66620d16fa43fa0c7e697af7","352","","j","","","","","","","","./tasks/HMM-beads/Images/NewTrialBC.png","lowH","1","14","1","0","0","1","false","",""
"image-keyboard-response","179","644489","0.0-3.0-6.0-1.0-1.14","654134d0ff22af1e0e59a29f","6662009ae78f21dd82fcd179","66620d16fa43fa0c7e697af7","null","","null","","","","","","","","./tasks/HMM-beads/Images/WhiteBeadChoice.png","","","","","","","","","",""
"image-keyboard-response","180","644995","0.0-3.0-6.0-1.0-2.14","654134d0ff22af1e0e59a29f","6662009ae78f21dd82fcd179","66620d16fa43fa0c7e697af7","null","","null","","","","","","","","./tasks/HMM-beads/Images/WhiteBeadChoiceWrong.png","","","","","","","","","",""
"image-keyboard-response","181","645432","0.0-3.0-6.0-1.0-0.15","654134d0ff22af1e0e59a29f","6662009ae78f21dd82fcd179","66620d16fa43fa0c7e697af7","435","","j","","","","","","","","./tasks/HMM-beads/Images/NewTrialBC.png","lowH","1","15","1","1","0","1","true","",""
"image-keyboard-response","182","645742","0.0-3.0-6.0-1.0-1.15","654134d0ff22af1e0e59a29f","6662009ae78f21dd82fcd179","66620d16fa43fa0c7e697af7","null","","null","","","","","","","","./tasks/HMM-beads/Images/WhiteBeadChoice.png","","","","","","","","","",""
"image-keyboard-response","183","646257","0.0-3.0-6.0-1.0-2.15","654134d0ff22af1e0e59a29f","6662009ae78f21dd82fcd179","66620d16fa43fa0c7e697af7","null","","null","","","","","","","","./tasks/HMM-beads/Images/WhiteBeadChoiceCorrect.png","","","","","","","","","",""
"image-keyboard-response","184","646857","0.0-3.0-6.0-1.0-0.16","654134d0ff22af1e0e59a29f","6662009ae78f21dd82fcd179","66620d16fa43fa0c7e697af7","587","","j","","","","","","","","./tasks/HMM-beads/Images/NewTrialWC.png","lowH","1","16","1","1","1","1","true","",""
"image-keyboard-response","185","647168","0.0-3.0-6.0-1.0-1.16","654134d0ff22af1e0e59a29f","6662009ae78f21dd82fcd179","66620d16fa43fa0c7e697af7","null","","null","","","","","","","","./tasks/HMM-beads/Images/WhiteBeadChoice.png","","","","","","","","","",""
"image-keyboard-response","186","647673","0.0-3.0-6.0-1.0-2.16","654134d0ff22af1e0e59a29f","6662009ae78f21dd82fcd179","66620d16fa43fa0c7e697af7","null","","null","","","","","","","","./tasks/HMM-beads/Images/WhiteBeadChoiceCorrect.png","","","","","","","","","",""
"image-keyboard-response","187","648091","0.0-3.0-6.0-1.0-0.17","654134d0ff22af1e0e59a29f","6662009ae78f21dd82fcd179","66620d16fa43fa0c7e697af7","415","","j","","","","","","","","./tasks/HMM-beads/Images/NewTrialWC.png","lowH","1","17","1","1","1","1","true","",""
"image-keyboard-response","188","648395","0.0-3.0-6.0-1.0-1.17","654134d0ff22af1e0e59a29f","6662009ae78f21dd82fcd179","66620d16fa43fa0c7e697af7","null","","null","","","","","","","","./tasks/HMM-beads/Images/WhiteBeadChoice.png","","","","","","","","","",""
"image-keyboard-response","189","648911","0.0-3.0-6.0-1.0-2.17","654134d0ff22af1e0e59a29f","6662009ae78f21dd82fcd179","66620d16fa43fa0c7e697af7","null","","null","","","","","","","","./tasks/HMM-beads/Images/WhiteBeadChoiceCorrect.png","","","","","","","","","",""
"image-keyboard-response","190","649242","0.0-3.0-6.0-1.0-0.18","654134d0ff22af1e0e59a29f","6662009ae78f21dd82fcd179","66620d16fa43fa0c7e697af7","328","","j","","","","","","","","./tasks/HMM-beads/Images/NewTrialWC.png","lowH","1","18","1","1","1","1","true","",""
"image-keyboard-response","191","649550","0.0-3.0-6.0-1.0-1.18","654134d0ff22af1e0e59a29f","6662009ae78f21dd82fcd179","66620d16fa43fa0c7e697af7","null","","null","","","","","","","","./tasks/HMM-beads/Images/WhiteBeadChoice.png","","","","","","","","","",""
"image-keyboard-response","192","650066","0.0-3.0-6.0-1.0-2.18","654134d0ff22af1e0e59a29f","6662009ae78f21dd82fcd179","66620d16fa43fa0c7e697af7","null","","null","","","","","","","","./tasks/HMM-beads/Images/WhiteBeadChoiceCorrect.png","","","","","","","","","",""
"image-keyboard-response","193","650688","0.0-3.0-6.0-1.0-0.19","654134d0ff22af1e0e59a29f","6662009ae78f21dd82fcd179","66620d16fa43fa0c7e697af7","620","","j","","","","","","","","./tasks/HMM-beads/Images/NewTrialWC.png","lowH","1","19","1","1","1","1","true","",""
"image-keyboard-response","194","651005","0.0-3.0-6.0-1.0-1.19","654134d0ff22af1e0e59a29f","6662009ae78f21dd82fcd179","66620d16fa43fa0c7e697af7","null","","null","","","","","","","","./tasks/HMM-beads/Images/WhiteBeadChoice.png","","","","","","","","","",""
"image-keyboard-response","195","651522","0.0-3.0-6.0-1.0-2.19","654134d0ff22af1e0e59a29f","6662009ae78f21dd82fcd179","66620d16fa43fa0c7e697af7","null","","null","","","","","","","","./tasks/HMM-beads/Images/WhiteBeadChoiceCorrect.png","","","","","","","","","",""
"image-keyboard-response","196","651975","0.0-3.0-6.0-1.0-0.20","654134d0ff22af1e0e59a29f","6662009ae78f21dd82fcd179","66620d16fa43fa0c7e697af7","450","","f","","","","","","","","./tasks/HMM-beads/Images/NewTrialWC.png","lowH","1","20","1","1","1","0","false","",""
"image-keyboard-response","197","652294","0.0-3.0-6.0-1.0-1.20","654134d0ff22af1e0e59a29f","6662009ae78f21dd82fcd179","66620d16fa43fa0c7e697af7","null","","null","","","","","","","","./tasks/HMM-beads/Images/BlackBeadChoice.png","","","","","","","","","",""
"image-keyboard-response","198","652810","0.0-3.0-6.0-1.0-2.20","654134d0ff22af1e0e59a29f","6662009ae78f21dd82fcd179","66620d16fa43fa0c7e697af7","null","","null","","","","","","","","./tasks/HMM-beads/Images/BlackBeadChoiceWrong.png","","","","","","","","","",""
"image-keyboard-response","199","653251","0.0-3.0-6.0-1.0-0.21","654134d0ff22af1e0e59a29f","6662009ae78f21dd82fcd179","66620d16fa43fa0c7e697af7","439","","j","","","","","","","","./tasks/HMM-beads/Images/NewTrialWC.png","lowH","1","21","1","1","1","1","true","",""
"image-keyboard-response","200","653566","0.0-3.0-6.0-1.0-1.21","654134d0ff22af1e0e59a29f","6662009ae78f21dd82fcd179","66620d16fa43fa0c7e697af7","null","","null","","","","","","","","./tasks/HMM-beads/Images/WhiteBeadChoice.png","","","","","","","","","",""
"image-keyboard-response","201","654082","0.0-3.0-6.0-1.0-2.21","654134d0ff22af1e0e59a29f","6662009ae78f21dd82fcd179","66620d16fa43fa0c7e697af7","null","","null","","","","","","","","./tasks/HMM-beads/Images/WhiteBeadChoiceCorrect.png","","","","","","","","","",""
"image-keyboard-response","202","654515","0.0-3.0-6.0-1.0-0.22","654134d0ff22af1e0e59a29f","6662009ae78f21dd82fcd179","66620d16fa43fa0c7e697af7","431","","j","","","","","","","","./tasks/HMM-beads/Images/NewTrialWC.png","lowH","1","22","1","1","1","1","true","",""
"image-keyboard-response","203","654824","0.0-3.0-6.0-1.0-1.22","654134d0ff22af1e0e59a29f","6662009ae78f21dd82fcd179","66620d16fa43fa0c7e697af7","null","","null","","","","","","","","./tasks/HMM-beads/Images/WhiteBeadChoice.png","","","","","","","","","",""
"image-keyboard-response","204","655338","0.0-3.0-6.0-1.0-2.22","654134d0ff22af1e0e59a29f","6662009ae78f21dd82fcd179","66620d16fa43fa0c7e697af7","null","","null","","","","","","","","./tasks/HMM-beads/Images/WhiteBeadChoiceCorrect.png","","","","","","","","","",""
"image-keyboard-response","205","656455","0.0-3.0-6.0-1.0-0.23","654134d0ff22af1e0e59a29f","6662009ae78f21dd82fcd179","66620d16fa43fa0c7e697af7","1114","","f","","","","","","","","./tasks/HMM-beads/Images/NewTrialWC.png","lowH","1","23","1","1","1","0","false","",""
"image-keyboard-response","206","656763","0.0-3.0-6.0-1.0-1.23","654134d0ff22af1e0e59a29f","6662009ae78f21dd82fcd179","66620d16fa43fa0c7e697af7","null","","null","","","","","","","","./tasks/HMM-beads/Images/BlackBeadChoice.png","","","","","","","","","",""
"image-keyboard-response","207","657273","0.0-3.0-6.0-1.0-2.23","654134d0ff22af1e0e59a29f","6662009ae78f21dd82fcd179","66620d16fa43fa0c7e697af7","null","","null","","","","","","","","./tasks/HMM-beads/Images/BlackBeadChoiceWrong.png","","","","","","","","","",""
"image-keyboard-response","208","657515","0.0-3.0-6.0-1.0-0.24","654134d0ff22af1e0e59a29f","6662009ae78f21dd82fcd179","66620d16fa43fa0c7e697af7","240","","j","","","","","","","","./tasks/HMM-beads/Images/NewTrialWC.png","lowH","1","24","1","0","1","1","false","",""
"image-keyboard-response","209","657820","0.0-3.0-6.0-1.0-1.24","654134d0ff22af1e0e59a29f","6662009ae78f21dd82fcd179","66620d16fa43fa0c7e697af7","null","","null","","","","","","","","./tasks/HMM-beads/Images/WhiteBeadChoice.png","","","","","","","","","",""
"image-keyboard-response","210","658325","0.0-3.0-6.0-1.0-2.24","654134d0ff22af1e0e59a29f","6662009ae78f21dd82fcd179","66620d16fa43fa0c7e697af7","null","","null","","","","","","","","./tasks/HMM-beads/Images/WhiteBeadChoiceWrong.png","","","","","","","","","",""
"image-keyboard-response","211","659151","0.0-3.0-6.0-1.0-0.25","654134d0ff22af1e0e59a29f","6662009ae78f21dd82fcd179","66620d16fa43fa0c7e697af7","823","","j","","","","","","","","./tasks/HMM-beads/Images/NewTrialBC.png","lowH","1","25","1","1","0","1","true","",""
"image-keyboard-response","212","659463","0.0-3.0-6.0-1.0-1.25","654134d0ff22af1e0e59a29f","6662009ae78f21dd82fcd179","66620d16fa43fa0c7e697af7","null","","null","","","","","","","","./tasks/HMM-beads/Images/WhiteBeadChoice.png","","","","","","","","","",""
"image-keyboard-response","213","659975","0.0-3.0-6.0-1.0-2.25","654134d0ff22af1e0e59a29f","6662009ae78f21dd82fcd179","66620d16fa43fa0c7e697af7","null","","null","","","","","","","","./tasks/HMM-beads/Images/WhiteBeadChoiceCorrect.png","","","","","","","","","",""
"image-keyboard-response","214","660447","0.0-3.0-6.0-1.0-0.26","654134d0ff22af1e0e59a29f","6662009ae78f21dd82fcd179","66620d16fa43fa0c7e697af7","469","","j","","","","","","","","./tasks/HMM-beads/Images/NewTrialWC.png","lowH","1","26","1","0","1","1","false","",""
"image-keyboard-response","215","660751","0.0-3.0-6.0-1.0-1.26","654134d0ff22af1e0e59a29f","6662009ae78f21dd82fcd179","66620d16fa43fa0c7e697af7","null","","null","","","","","","","","./tasks/HMM-beads/Images/WhiteBeadChoice.png","","","","","","","","","",""
"image-keyboard-response","216","661266","0.0-3.0-6.0-1.0-2.26","654134d0ff22af1e0e59a29f","6662009ae78f21dd82fcd179","66620d16fa43fa0c7e697af7","null","","null","","","","","","","","./tasks/HMM-beads/Images/WhiteBeadChoiceWrong.png","","","","","","","","","",""
"image-keyboard-response","217","661889","0.0-3.0-6.0-1.0-0.27","654134d0ff22af1e0e59a29f","6662009ae78f21dd82fcd179","66620d16fa43fa0c7e697af7","622","","j","","","","","","","","./tasks/HMM-beads/Images/NewTrialBC.png","lowH","1","27","1","1","0","1","true","",""
"image-keyboard-response","218","662198","0.0-3.0-6.0-1.0-1.27","654134d0ff22af1e0e59a29f","6662009ae78f21dd82fcd179","66620d16fa43fa0c7e697af7","null","","null","","","","","","","","./tasks/HMM-beads/Images/WhiteBeadChoice.png","","","","","","","","","",""
"image-keyboard-response","219","662706","0.0-3.0-6.0-1.0-2.27","654134d0ff22af1e0e59a29f","6662009ae78f21dd82fcd179","66620d16fa43fa0c7e697af7","null","","null","","","","","","","","./tasks/HMM-beads/Images/WhiteBeadChoiceCorrect.png","","","","","","","","","",""
"image-keyboard-response","220","665787","0.0-3.0-6.0-1.0-0.28","654134d0ff22af1e0e59a29f","6662009ae78f21dd82fcd179","66620d16fa43fa0c7e697af7","3080","","j","","","","","","","","./tasks/HMM-beads/Images/NewTrialWC.png","lowH","1","28","1","1","1","1","true","",""
"image-keyboard-response","221","666099","0.0-3.0-6.0-1.0-1.28","654134d0ff22af1e0e59a29f","6662009ae78f21dd82fcd179","66620d16fa43fa0c7e697af7","null","","null","","","","","","","","./tasks/HMM-beads/Images/WhiteBeadChoice.png","","","","","","","","","",""
"image-keyboard-response","222","666612","0.0-3.0-6.0-1.0-2.28","654134d0ff22af1e0e59a29f","6662009ae78f21dd82fcd179","66620d16fa43fa0c7e697af7","null","","null","","","","","","","","./tasks/HMM-beads/Images/WhiteBeadChoiceCorrect.png","","","","","","","","","",""
"image-keyboard-response","223","667383","0.0-3.0-6.0-1.0-0.29","654134d0ff22af1e0e59a29f","6662009ae78f21dd82fcd179","66620d16fa43fa0c7e697af7","766","","j","","","","","","","","./tasks/HMM-beads/Images/NewTrialWC.png","lowH","1","29","1","1","1","1","true","",""
"image-keyboard-response","224","667693","0.0-3.0-6.0-1.0-1.29","654134d0ff22af1e0e59a29f","6662009ae78f21dd82fcd179","66620d16fa43fa0c7e697af7","null","","null","","","","","","","","./tasks/HMM-beads/Images/WhiteBeadChoice.png","","","","","","","","","",""
"image-keyboard-response","225","668206","0.0-3.0-6.0-1.0-2.29","654134d0ff22af1e0e59a29f","6662009ae78f21dd82fcd179","66620d16fa43fa0c7e697af7","null","","null","","","","","","","","./tasks/HMM-beads/Images/WhiteBeadChoiceCorrect.png","","","","","","","","","",""
"image-keyboard-response","226","669311","0.0-3.0-6.0-1.0-0.30","654134d0ff22af1e0e59a29f","6662009ae78f21dd82fcd179","66620d16fa43fa0c7e697af7","1104","","j","","","","","","","","./tasks/HMM-beads/Images/NewTrialWC.png","lowH","1","30","1","1","1","1","true","",""
"image-keyboard-response","227","669624","0.0-3.0-6.0-1.0-1.30","654134d0ff22af1e0e59a29f","6662009ae78f21dd82fcd179","66620d16fa43fa0c7e697af7","null","","null","","","","","","","","./tasks/HMM-beads/Images/WhiteBeadChoice.png","","","","","","","","","",""
"image-keyboard-response","228","670139","0.0-3.0-6.0-1.0-2.30","654134d0ff22af1e0e59a29f","6662009ae78f21dd82fcd179","66620d16fa43fa0c7e697af7","null","","null","","","","","","","","./tasks/HMM-beads/Images/WhiteBeadChoiceCorrect.png","","","","","","","","","",""
"image-keyboard-response","229","670661","0.0-3.0-6.0-1.0-0.31","654134d0ff22af1e0e59a29f","6662009ae78f21dd82fcd179","66620d16fa43fa0c7e697af7","520","","j","","","","","","","","./tasks/HMM-beads/Images/NewTrialWC.png","lowH","1","31","1","1","1","1","true","",""
"image-keyboard-response","230","670972","0.0-3.0-6.0-1.0-1.31","654134d0ff22af1e0e59a29f","6662009ae78f21dd82fcd179","66620d16fa43fa0c7e697af7","null","","null","","","","","","","","./tasks/HMM-beads/Images/WhiteBeadChoice.png","","","","","","","","","",""
"image-keyboard-response","231","671486","0.0-3.0-6.0-1.0-2.31","654134d0ff22af1e0e59a29f","6662009ae78f21dd82fcd179","66620d16fa43fa0c7e697af7","null","","null","","","","","","","","./tasks/HMM-beads/Images/WhiteBeadChoiceCorrect.png","","","","","","","","","",""
"image-keyboard-response","232","672071","0.0-3.0-6.0-1.0-0.32","654134d0ff22af1e0e59a29f","6662009ae78f21dd82fcd179","66620d16fa43fa0c7e697af7","584","","j","","","","","","","","./tasks/HMM-beads/Images/NewTrialWC.png","lowH","1","32","1","1","1","1","true","",""
"image-keyboard-response","233","672376","0.0-3.0-6.0-1.0-1.32","654134d0ff22af1e0e59a29f","6662009ae78f21dd82fcd179","66620d16fa43fa0c7e697af7","null","","null","","","","","","","","./tasks/HMM-beads/Images/WhiteBeadChoice.png","","","","","","","","","",""
"image-keyboard-response","234","672892","0.0-3.0-6.0-1.0-2.32","654134d0ff22af1e0e59a29f","6662009ae78f21dd82fcd179","66620d16fa43fa0c7e697af7","null","","null","","","","","","","","./tasks/HMM-beads/Images/WhiteBeadChoiceCorrect.png","","","","","","","","","",""
"image-keyboard-response","235","674509","0.0-3.0-6.0-1.0-0.33","654134d0ff22af1e0e59a29f","6662009ae78f21dd82fcd179","66620d16fa43fa0c7e697af7","1614","","j","","","","","","","","./tasks/HMM-beads/Images/NewTrialWC.png","lowH","1","33","1","1","1","1","true","",""
"image-keyboard-response","236","674826","0.0-3.0-6.0-1.0-1.33","654134d0ff22af1e0e59a29f","6662009ae78f21dd82fcd179","66620d16fa43fa0c7e697af7","null","","null","","","","","","","","./tasks/HMM-beads/Images/WhiteBeadChoice.png","","","","","","","","","",""
"image-keyboard-response","237","675341","0.0-3.0-6.0-1.0-2.33","654134d0ff22af1e0e59a29f","6662009ae78f21dd82fcd179","66620d16fa43fa0c7e697af7","null","","null","","","","","","","","./tasks/HMM-beads/Images/WhiteBeadChoiceCorrect.png","","","","","","","","","",""
"image-keyboard-response","238","676079","0.0-3.0-6.0-1.0-0.34","654134d0ff22af1e0e59a29f","6662009ae78f21dd82fcd179","66620d16fa43fa0c7e697af7","736","","f","","","","","","","","./tasks/HMM-beads/Images/NewTrialWC.png","lowH","1","34","1","1","1","0","false","",""
"image-keyboard-response","239","676387","0.0-3.0-6.0-1.0-1.34","654134d0ff22af1e0e59a29f","6662009ae78f21dd82fcd179","66620d16fa43fa0c7e697af7","null","","null","","","","","","","","./tasks/HMM-beads/Images/BlackBeadChoice.png","","","","","","","","","",""
"image-keyboard-response","240","676904","0.0-3.0-6.0-1.0-2.34","654134d0ff22af1e0e59a29f","6662009ae78f21dd82fcd179","66620d16fa43fa0c7e697af7","null","","null","","","","","","","","./tasks/HMM-beads/Images/BlackBeadChoiceWrong.png","","","","","","","","","",""
"image-keyboard-response","241","678200","0.0-3.0-6.0-1.0-0.35","654134d0ff22af1e0e59a29f","6662009ae78f21dd82fcd179","66620d16fa43fa0c7e697af7","1294","","j","","","","","","","","./tasks/HMM-beads/Images/NewTrialWC.png","lowH","1","35","1","1","1","1","true","",""
"image-keyboard-response","242","678513","0.0-3.0-6.0-1.0-1.35","654134d0ff22af1e0e59a29f","6662009ae78f21dd82fcd179","66620d16fa43fa0c7e697af7","null","","null","","","","","","","","./tasks/HMM-beads/Images/WhiteBeadChoice.png","","","","","","","","","",""
"image-keyboard-response","243","679020","0.0-3.0-6.0-1.0-2.35","654134d0ff22af1e0e59a29f","6662009ae78f21dd82fcd179","66620d16fa43fa0c7e697af7","null","","null","","","","","","","","./tasks/HMM-beads/Images/WhiteBeadChoiceCorrect.png","","","","","","","","","",""
"image-keyboard-response","244","679643","0.0-3.0-6.0-1.0-0.36","654134d0ff22af1e0e59a29f","6662009ae78f21dd82fcd179","66620d16fa43fa0c7e697af7","622","","j","","","","","","","","./tasks/HMM-beads/Images/NewTrialWC.png","lowH","1","36","1","1","1","1","true","",""
"image-keyboard-response","245","679951","0.0-3.0-6.0-1.0-1.36","654134d0ff22af1e0e59a29f","6662009ae78f21dd82fcd179","66620d16fa43fa0c7e697af7","null","","null","","","","","","","","./tasks/HMM-beads/Images/WhiteBeadChoice.png","","","","","","","","","",""
"image-keyboard-response","246","680466","0.0-3.0-6.0-1.0-2.36","654134d0ff22af1e0e59a29f","6662009ae78f21dd82fcd179","66620d16fa43fa0c7e697af7","null","","null","","","","","","","","./tasks/HMM-beads/Images/WhiteBeadChoiceCorrect.png","","","","","","","","","",""
"image-keyboard-response","247","681060","0.0-3.0-6.0-1.0-0.37","654134d0ff22af1e0e59a29f","6662009ae78f21dd82fcd179","66620d16fa43fa0c7e697af7","592","","j","","","","","","","","./tasks/HMM-beads/Images/NewTrialWC.png","lowH","1","37","1","1","1","1","true","",""
"image-keyboard-response","248","681370","0.0-3.0-6.0-1.0-1.37","654134d0ff22af1e0e59a29f","6662009ae78f21dd82fcd179","66620d16fa43fa0c7e697af7","null","","null","","","","","","","","./tasks/HMM-beads/Images/WhiteBeadChoice.png","","","","","","","","","",""
"image-keyboard-response","249","681886","0.0-3.0-6.0-1.0-2.37","654134d0ff22af1e0e59a29f","6662009ae78f21dd82fcd179","66620d16fa43fa0c7e697af7","null","","null","","","","","","","","./tasks/HMM-beads/Images/WhiteBeadChoiceCorrect.png","","","","","","","","","",""
"image-keyboard-response","250","682434","0.0-3.0-6.0-1.0-0.38","654134d0ff22af1e0e59a29f","6662009ae78f21dd82fcd179","66620d16fa43fa0c7e697af7","545","","j","","","","","","","","./tasks/HMM-beads/Images/NewTrialWC.png","lowH","1","38","1","1","1","1","true","",""
"image-keyboard-response","251","682742","0.0-3.0-6.0-1.0-1.38","654134d0ff22af1e0e59a29f","6662009ae78f21dd82fcd179","66620d16fa43fa0c7e697af7","null","","null","","","","","","","","./tasks/HMM-beads/Images/WhiteBeadChoice.png","","","","","","","","","",""
"image-keyboard-response","252","683249","0.0-3.0-6.0-1.0-2.38","654134d0ff22af1e0e59a29f","6662009ae78f21dd82fcd179","66620d16fa43fa0c7e697af7","null","","null","","","","","","","","./tasks/HMM-beads/Images/WhiteBeadChoiceCorrect.png","","","","","","","","","",""
"image-keyboard-response","253","683762","0.0-3.0-6.0-1.0-0.39","654134d0ff22af1e0e59a29f","6662009ae78f21dd82fcd179","66620d16fa43fa0c7e697af7","512","","j","","","","","","","","./tasks/HMM-beads/Images/NewTrialWC.png","lowH","1","39","1","1","1","1","true","",""
"image-keyboard-response","254","684076","0.0-3.0-6.0-1.0-1.39","654134d0ff22af1e0e59a29f","6662009ae78f21dd82fcd179","66620d16fa43fa0c7e697af7","null","","null","","","","","","","","./tasks/HMM-beads/Images/WhiteBeadChoice.png","","","","","","","","","",""
"image-keyboard-response","255","684592","0.0-3.0-6.0-1.0-2.39","654134d0ff22af1e0e59a29f","6662009ae78f21dd82fcd179","66620d16fa43fa0c7e697af7","null","","null","","","","","","","","./tasks/HMM-beads/Images/WhiteBeadChoiceCorrect.png","","","","","","","","","",""
"image-keyboard-response","256","685019","0.0-3.0-6.0-1.0-0.40","654134d0ff22af1e0e59a29f","6662009ae78f21dd82fcd179","66620d16fa43fa0c7e697af7","425","","j","","","","","","","","./tasks/HMM-beads/Images/NewTrialWC.png","lowH","1","40","1","1","1","1","true","",""
"image-keyboard-response","257","685323","0.0-3.0-6.0-1.0-1.40","654134d0ff22af1e0e59a29f","6662009ae78f21dd82fcd179","66620d16fa43fa0c7e697af7","null","","null","","","","","","","","./tasks/HMM-beads/Images/WhiteBeadChoice.png","","","","","","","","","",""
"image-keyboard-response","258","685839","0.0-3.0-6.0-1.0-2.40","654134d0ff22af1e0e59a29f","6662009ae78f21dd82fcd179","66620d16fa43fa0c7e697af7","null","","null","","","","","","","","./tasks/HMM-beads/Images/WhiteBeadChoiceCorrect.png","","","","","","","","","",""
"image-keyboard-response","259","686630","0.0-3.0-6.0-1.0-0.41","654134d0ff22af1e0e59a29f","6662009ae78f21dd82fcd179","66620d16fa43fa0c7e697af7","789","","j","","","","","","","","./tasks/HMM-beads/Images/NewTrialWC.png","lowH","1","41","1","1","1","1","true","",""
"image-keyboard-response","260","686937","0.0-3.0-6.0-1.0-1.41","654134d0ff22af1e0e59a29f","6662009ae78f21dd82fcd179","66620d16fa43fa0c7e697af7","null","","null","","","","","","","","./tasks/HMM-beads/Images/WhiteBeadChoice.png","","","","","","","","","",""
"image-keyboard-response","261","687446","0.0-3.0-6.0-1.0-2.41","654134d0ff22af1e0e59a29f","6662009ae78f21dd82fcd179","66620d16fa43fa0c7e697af7","null","","null","","","","","","","","./tasks/HMM-beads/Images/WhiteBeadChoiceCorrect.png","","","","","","","","","",""
"image-keyboard-response","262","687875","0.0-3.0-6.0-1.0-0.42","654134d0ff22af1e0e59a29f","6662009ae78f21dd82fcd179","66620d16fa43fa0c7e697af7","419","","j","","","","","","","","./tasks/HMM-beads/Images/NewTrialWC.png","lowH","1","42","1","1","1","1","true","",""
"image-keyboard-response","263","688188","0.0-3.0-6.0-1.0-1.42","654134d0ff22af1e0e59a29f","6662009ae78f21dd82fcd179","66620d16fa43fa0c7e697af7","null","","null","","","","","","","","./tasks/HMM-beads/Images/WhiteBeadChoice.png","","","","","","","","","",""
"image-keyboard-response","264","688704","0.0-3.0-6.0-1.0-2.42","654134d0ff22af1e0e59a29f","6662009ae78f21dd82fcd179","66620d16fa43fa0c7e697af7","null","","null","","","","","","","","./tasks/HMM-beads/Images/WhiteBeadChoiceCorrect.png","","","","","","","","","",""
"image-keyboard-response","265","689030","0.0-3.0-6.0-1.0-0.43","654134d0ff22af1e0e59a29f","6662009ae78f21dd82fcd179","66620d16fa43fa0c7e697af7","326","","j","","","","","","","","./tasks/HMM-beads/Images/NewTrialWC.png","lowH","1","43","1","1","1","1","true","",""
"image-keyboard-response","266","689342","0.0-3.0-6.0-1.0-1.43","654134d0ff22af1e0e59a29f","6662009ae78f21dd82fcd179","66620d16fa43fa0c7e697af7","null","","null","","","","","","","","./tasks/HMM-beads/Images/WhiteBeadChoice.png","","","","","","","","","",""
"image-keyboard-response","267","689855","0.0-3.0-6.0-1.0-2.43","654134d0ff22af1e0e59a29f","6662009ae78f21dd82fcd179","66620d16fa43fa0c7e697af7","null","","null","","","","","","","","./tasks/HMM-beads/Images/WhiteBeadChoiceCorrect.png","","","","","","","","","",""
"image-keyboard-response","268","690350","0.0-3.0-6.0-1.0-0.44","654134d0ff22af1e0e59a29f","6662009ae78f21dd82fcd179","66620d16fa43fa0c7e697af7","494","","j","","","","","","","","./tasks/HMM-beads/Images/NewTrialWC.png","lowH","1","44","1","1","1","1","true","",""
"image-keyboard-response","269","690666","0.0-3.0-6.0-1.0-1.44","654134d0ff22af1e0e59a29f","6662009ae78f21dd82fcd179","66620d16fa43fa0c7e697af7","null","","null","","","","","","","","./tasks/HMM-beads/Images/WhiteBeadChoice.png","","","","","","","","","",""
"image-keyboard-response","270","691178","0.0-3.0-6.0-1.0-2.44","654134d0ff22af1e0e59a29f","6662009ae78f21dd82fcd179","66620d16fa43fa0c7e697af7","null","","null","","","","","","","","./tasks/HMM-beads/Images/WhiteBeadChoiceCorrect.png","","","","","","","","","",""
"image-keyboard-response","271","691909","0.0-3.0-6.0-1.0-0.45","654134d0ff22af1e0e59a29f","6662009ae78f21dd82fcd179","66620d16fa43fa0c7e697af7","730","","j","","","","","","","","./tasks/HMM-beads/Images/NewTrialWC.png","lowH","1","45","1","1","1","1","true","",""
"image-keyboard-response","272","692223","0.0-3.0-6.0-1.0-1.45","654134d0ff22af1e0e59a29f","6662009ae78f21dd82fcd179","66620d16fa43fa0c7e697af7","null","","null","","","","","","","","./tasks/HMM-beads/Images/WhiteBeadChoice.png","","","","","","","","","",""
"image-keyboard-response","273","692736","0.0-3.0-6.0-1.0-2.45","654134d0ff22af1e0e59a29f","6662009ae78f21dd82fcd179","66620d16fa43fa0c7e697af7","null","","null","","","","","","","","./tasks/HMM-beads/Images/WhiteBeadChoiceCorrect.png","","","","","","","","","",""
"image-keyboard-response","274","693074","0.0-3.0-6.0-1.0-0.46","654134d0ff22af1e0e59a29f","6662009ae78f21dd82fcd179","66620d16fa43fa0c7e697af7","336","","j","","","","","","","","./tasks/HMM-beads/Images/NewTrialWC.png","lowH","1","46","1","1","1","1","true","",""
"image-keyboard-response","275","693390","0.0-3.0-6.0-1.0-1.46","654134d0ff22af1e0e59a29f","6662009ae78f21dd82fcd179","66620d16fa43fa0c7e697af7","null","","null","","","","","","","","./tasks/HMM-beads/Images/WhiteBeadChoice.png","","","","","","","","","",""
"image-keyboard-response","276","693904","0.0-3.0-6.0-1.0-2.46","654134d0ff22af1e0e59a29f","6662009ae78f21dd82fcd179","66620d16fa43fa0c7e697af7","null","","null","","","","","","","","./tasks/HMM-beads/Images/WhiteBeadChoiceCorrect.png","","","","","","","","","",""
"image-keyboard-response","277","694264","0.0-3.0-6.0-1.0-0.47","654134d0ff22af1e0e59a29f","6662009ae78f21dd82fcd179","66620d16fa43fa0c7e697af7","358","","j","","","","","","","","./tasks/HMM-beads/Images/NewTrialWC.png","lowH","1","47","1","0","1","1","false","",""
"image-keyboard-response","278","694575","0.0-3.0-6.0-1.0-1.47","654134d0ff22af1e0e59a29f","6662009ae78f21dd82fcd179","66620d16fa43fa0c7e697af7","null","","null","","","","","","","","./tasks/HMM-beads/Images/WhiteBeadChoice.png","","","","","","","","","",""
"image-keyboard-response","279","695084","0.0-3.0-6.0-1.0-2.47","654134d0ff22af1e0e59a29f","6662009ae78f21dd82fcd179","66620d16fa43fa0c7e697af7","null","","null","","","","","","","","./tasks/HMM-beads/Images/WhiteBeadChoiceWrong.png","","","","","","","","","",""
"image-keyboard-response","280","695994","0.0-3.0-6.0-1.0-0.48","654134d0ff22af1e0e59a29f","6662009ae78f21dd82fcd179","66620d16fa43fa0c7e697af7","909","","j","","","","","","","","./tasks/HMM-beads/Images/NewTrialBC.png","lowH","1","48","1","0","0","1","false","",""
"image-keyboard-response","281","696301","0.0-3.0-6.0-1.0-1.48","654134d0ff22af1e0e59a29f","6662009ae78f21dd82fcd179","66620d16fa43fa0c7e697af7","null","","null","","","","","","","","./tasks/HMM-beads/Images/WhiteBeadChoice.png","","","","","","","","","",""
"image-keyboard-response","282","696806","0.0-3.0-6.0-1.0-2.48","654134d0ff22af1e0e59a29f","6662009ae78f21dd82fcd179","66620d16fa43fa0c7e697af7","null","","null","","","","","","","","./tasks/HMM-beads/Images/WhiteBeadChoiceWrong.png","","","","","","","","","",""
"image-keyboard-response","283","697360","0.0-3.0-6.0-1.0-0.49","654134d0ff22af1e0e59a29f","6662009ae78f21dd82fcd179","66620d16fa43fa0c7e697af7","552","","f","","","","","","","","./tasks/HMM-beads/Images/NewTrialBC.png","lowH","1","49","1","0","0","0","true","",""
"image-keyboard-response","284","697677","0.0-3.0-6.0-1.0-1.49","654134d0ff22af1e0e59a29f","6662009ae78f21dd82fcd179","66620d16fa43fa0c7e697af7","null","","null","","","","","","","","./tasks/HMM-beads/Images/BlackBeadChoice.png","","","","","","","","","",""
"image-keyboard-response","285","698190","0.0-3.0-6.0-1.0-2.49","654134d0ff22af1e0e59a29f","6662009ae78f21dd82fcd179","66620d16fa43fa0c7e697af7","null","","null","","","","","","","","./tasks/HMM-beads/Images/BlackBeadChoiceCorrect.png","","","","","","","","","",""
"image-keyboard-response","286","698620","0.0-3.0-6.0-1.0-0.50","654134d0ff22af1e0e59a29f","6662009ae78f21dd82fcd179","66620d16fa43fa0c7e697af7","427","","f","","","","","","","","./tasks/HMM-beads/Images/NewTrialBC.png","lowH","1","50","1","1","0","0","false","",""
"image-keyboard-response","287","698935","0.0-3.0-6.0-1.0-1.50","654134d0ff22af1e0e59a29f","6662009ae78f21dd82fcd179","66620d16fa43fa0c7e697af7","null","","null","","","","","","","","./tasks/HMM-beads/Images/BlackBeadChoice.png","","","","","","","","","",""
"image-keyboard-response","288","699450","0.0-3.0-6.0-1.0-2.50","654134d0ff22af1e0e59a29f","6662009ae78f21dd82fcd179","66620d16fa43fa0c7e697af7","null","","null","","","","","","","","./tasks/HMM-beads/Images/BlackBeadChoiceWrong.png","","","","","","","","","",""
"image-keyboard-response","289","699608","0.0-3.0-6.0-1.0-0.51","654134d0ff22af1e0e59a29f","6662009ae78f21dd82fcd179","66620d16fa43fa0c7e697af7","155","","j","","","","","","","","./tasks/HMM-beads/Images/NewTrialWC.png","lowH","1","51","1","1","1","1","true","",""
"image-keyboard-response","290","699914","0.0-3.0-6.0-1.0-1.51","654134d0ff22af1e0e59a29f","6662009ae78f21dd82fcd179","66620d16fa43fa0c7e697af7","null","","null","","","","","","","","./tasks/HMM-beads/Images/WhiteBeadChoice.png","","","","","","","","","",""
"image-keyboard-response","291","700423","0.0-3.0-6.0-1.0-2.51","654134d0ff22af1e0e59a29f","6662009ae78f21dd82fcd179","66620d16fa43fa0c7e697af7","null","","null","","","","","","","","./tasks/HMM-beads/Images/WhiteBeadChoiceCorrect.png","","","","","","","","","",""
"image-keyboard-response","292","700479","0.0-3.0-6.0-1.0-0.52","654134d0ff22af1e0e59a29f","6662009ae78f21dd82fcd179","66620d16fa43fa0c7e697af7","55","","j","","","","","","","","./tasks/HMM-beads/Images/NewTrialWC.png","lowH","1","52","1","1","1","1","true","",""
"image-keyboard-response","293","700795","0.0-3.0-6.0-1.0-1.52","654134d0ff22af1e0e59a29f","6662009ae78f21dd82fcd179","66620d16fa43fa0c7e697af7","null","","null","","","","","","","","./tasks/HMM-beads/Images/WhiteBeadChoice.png","","","","","","","","","",""
"image-keyboard-response","294","701307","0.0-3.0-6.0-1.0-2.52","654134d0ff22af1e0e59a29f","6662009ae78f21dd82fcd179","66620d16fa43fa0c7e697af7","null","","null","","","","","","","","./tasks/HMM-beads/Images/WhiteBeadChoiceCorrect.png","","","","","","","","","",""
"image-keyboard-response","295","701451","0.0-3.0-6.0-1.0-0.53","654134d0ff22af1e0e59a29f","6662009ae78f21dd82fcd179","66620d16fa43fa0c7e697af7","142","","j","","","","","","","","./tasks/HMM-beads/Images/NewTrialWC.png","lowH","1","53","1","1","1","1","true","",""
"image-keyboard-response","296","701756","0.0-3.0-6.0-1.0-1.53","654134d0ff22af1e0e59a29f","6662009ae78f21dd82fcd179","66620d16fa43fa0c7e697af7","null","","null","","","","","","","","./tasks/HMM-beads/Images/WhiteBeadChoice.png","","","","","","","","","",""
"image-keyboard-response","297","702272","0.0-3.0-6.0-1.0-2.53","654134d0ff22af1e0e59a29f","6662009ae78f21dd82fcd179","66620d16fa43fa0c7e697af7","null","","null","","","","","","","","./tasks/HMM-beads/Images/WhiteBeadChoiceCorrect.png","","","","","","","","","",""
"image-keyboard-response","298","702345","0.0-3.0-6.0-1.0-0.54","654134d0ff22af1e0e59a29f","6662009ae78f21dd82fcd179","66620d16fa43fa0c7e697af7","72","","j","","","","","","","","./tasks/HMM-beads/Images/NewTrialWC.png","lowH","1","54","1","1","1","1","true","",""
"image-keyboard-response","299","702658","0.0-3.0-6.0-1.0-1.54","654134d0ff22af1e0e59a29f","6662009ae78f21dd82fcd179","66620d16fa43fa0c7e697af7","null","","null","","","","","","","","./tasks/HMM-beads/Images/WhiteBeadChoice.png","","","","","","","","","",""
"image-keyboard-response","300","703170","0.0-3.0-6.0-1.0-2.54","654134d0ff22af1e0e59a29f","6662009ae78f21dd82fcd179","66620d16fa43fa0c7e697af7","null","","null","","","","","","","","./tasks/HMM-beads/Images/WhiteBeadChoiceCorrect.png","","","","","","","","","",""
"image-keyboard-response","301","703940","0.0-3.0-6.0-1.0-0.55","654134d0ff22af1e0e59a29f","6662009ae78f21dd82fcd179","66620d16fa43fa0c7e697af7","757","","j","","","","","","","","./tasks/HMM-beads/Images/NewTrialWC.png","lowH","1","55","1","1","1","1","true","",""
"image-keyboard-response","302","704255","0.0-3.0-6.0-1.0-1.55","654134d0ff22af1e0e59a29f","6662009ae78f21dd82fcd179","66620d16fa43fa0c7e697af7","null","","null","","","","","","","","./tasks/HMM-beads/Images/WhiteBeadChoice.png","","","","","","","","","",""
"image-keyboard-response","303","704767","0.0-3.0-6.0-1.0-2.55","654134d0ff22af1e0e59a29f","6662009ae78f21dd82fcd179","66620d16fa43fa0c7e697af7","null","","null","","","","","","","","./tasks/HMM-beads/Images/WhiteBeadChoiceCorrect.png","","","","","","","","","",""
"image-keyboard-response","304","705554","0.0-3.0-6.0-1.0-0.56","654134d0ff22af1e0e59a29f","6662009ae78f21dd82fcd179","66620d16fa43fa0c7e697af7","785","","j","","","","","","","","./tasks/HMM-beads/Images/NewTrialWC.png","lowH","1","56","1","1","1","1","true","",""
"image-keyboard-response","305","705870","0.0-3.0-6.0-1.0-1.56","654134d0ff22af1e0e59a29f","6662009ae78f21dd82fcd179","66620d16fa43fa0c7e697af7","null","","null","","","","","","","","./tasks/HMM-beads/Images/WhiteBeadChoice.png","","","","","","","","","",""
"image-keyboard-response","306","706386","0.0-3.0-6.0-1.0-2.56","654134d0ff22af1e0e59a29f","6662009ae78f21dd82fcd179","66620d16fa43fa0c7e697af7","null","","null","","","","","","","","./tasks/HMM-beads/Images/WhiteBeadChoiceCorrect.png","","","","","","","","","",""
"image-keyboard-response","307","706857","0.0-3.0-6.0-1.0-0.57","654134d0ff22af1e0e59a29f","6662009ae78f21dd82fcd179","66620d16fa43fa0c7e697af7","469","","j","","","","","","","","./tasks/HMM-beads/Images/NewTrialWC.png","lowH","1","57","1","1","1","1","true","",""
"image-keyboard-response","308","707175","0.0-3.0-6.0-1.0-1.57","654134d0ff22af1e0e59a29f","6662009ae78f21dd82fcd179","66620d16fa43fa0c7e697af7","null","","null","","","","","","","","./tasks/HMM-beads/Images/WhiteBeadChoice.png","","","","","","","","","",""
"image-keyboard-response","309","707687","0.0-3.0-6.0-1.0-2.57","654134d0ff22af1e0e59a29f","6662009ae78f21dd82fcd179","66620d16fa43fa0c7e697af7","null","","null","","","","","","","","./tasks/HMM-beads/Images/WhiteBeadChoiceCorrect.png","","","","","","","","","",""
"image-keyboard-response","310","708067","0.0-3.0-6.0-1.0-0.58","654134d0ff22af1e0e59a29f","6662009ae78f21dd82fcd179","66620d16fa43fa0c7e697af7","377","","j","","","","","","","","./tasks/HMM-beads/Images/NewTrialWC.png","lowH","1","58","1","1","1","1","true","",""
"image-keyboard-response","311","708377","0.0-3.0-6.0-1.0-1.58","654134d0ff22af1e0e59a29f","6662009ae78f21dd82fcd179","66620d16fa43fa0c7e697af7","null","","null","","","","","","","","./tasks/HMM-beads/Images/WhiteBeadChoice.png","","","","","","","","","",""
"image-keyboard-response","312","708893","0.0-3.0-6.0-1.0-2.58","654134d0ff22af1e0e59a29f","6662009ae78f21dd82fcd179","66620d16fa43fa0c7e697af7","null","","null","","","","","","","","./tasks/HMM-beads/Images/WhiteBeadChoiceCorrect.png","","","","","","","","","",""
"image-keyboard-response","313","709118","0.0-3.0-6.0-1.0-0.59","654134d0ff22af1e0e59a29f","6662009ae78f21dd82fcd179","66620d16fa43fa0c7e697af7","222","","j","","","","","","","","./tasks/HMM-beads/Images/NewTrialWC.png","lowH","1","59","1","0","1","1","false","",""
"image-keyboard-response","314","709431","0.0-3.0-6.0-1.0-1.59","654134d0ff22af1e0e59a29f","6662009ae78f21dd82fcd179","66620d16fa43fa0c7e697af7","null","","null","","","","","","","","./tasks/HMM-beads/Images/WhiteBeadChoice.png","","","","","","","","","",""
"image-keyboard-response","315","709944","0.0-3.0-6.0-1.0-2.59","654134d0ff22af1e0e59a29f","6662009ae78f21dd82fcd179","66620d16fa43fa0c7e697af7","null","","null","","","","","","","","./tasks/HMM-beads/Images/WhiteBeadChoiceWrong.png","","","","","","","","","",""
"image-keyboard-response","316","710855","0.0-3.0-6.0-1.0-0.60","654134d0ff22af1e0e59a29f","6662009ae78f21dd82fcd179","66620d16fa43fa0c7e697af7","910","","j","","","","","","","","./tasks/HMM-beads/Images/NewTrialBC.png","lowH","1","60","1","1","0","1","true","",""
"image-keyboard-response","317","711158","0.0-3.0-6.0-1.0-1.60","654134d0ff22af1e0e59a29f","6662009ae78f21dd82fcd179","66620d16fa43fa0c7e697af7","null","","null","","","","","","","","./tasks/HMM-beads/Images/WhiteBeadChoice.png","","","","","","","","","",""
"image-keyboard-response","318","711662","0.0-3.0-6.0-1.0-2.60","654134d0ff22af1e0e59a29f","6662009ae78f21dd82fcd179","66620d16fa43fa0c7e697af7","null","","null","","","","","","","","./tasks/HMM-beads/Images/WhiteBeadChoiceCorrect.png","","","","","","","","","",""
"image-keyboard-response","319","711872","0.0-3.0-6.0-1.0-0.61","654134d0ff22af1e0e59a29f","6662009ae78f21dd82fcd179","66620d16fa43fa0c7e697af7","208","","j","","","","","","","","./tasks/HMM-beads/Images/NewTrialWC.png","lowH","1","61","1","1","1","1","true","",""
"image-keyboard-response","320","712180","0.0-3.0-6.0-1.0-1.61","654134d0ff22af1e0e59a29f","6662009ae78f21dd82fcd179","66620d16fa43fa0c7e697af7","null","","null","","","","","","","","./tasks/HMM-beads/Images/WhiteBeadChoice.png","","","","","","","","","",""
"image-keyboard-response","321","712691","0.0-3.0-6.0-1.0-2.61","654134d0ff22af1e0e59a29f","6662009ae78f21dd82fcd179","66620d16fa43fa0c7e697af7","null","","null","","","","","","","","./tasks/HMM-beads/Images/WhiteBeadChoiceCorrect.png","","","","","","","","","",""
"image-keyboard-response","322","713282","0.0-3.0-6.0-1.0-0.62","654134d0ff22af1e0e59a29f","6662009ae78f21dd82fcd179","66620d16fa43fa0c7e697af7","589","","j","","","","","","","","./tasks/HMM-beads/Images/NewTrialWC.png","lowH","1","62","1","0","1","1","false","",""
"image-keyboard-response","323","713596","0.0-3.0-6.0-1.0-1.62","654134d0ff22af1e0e59a29f","6662009ae78f21dd82fcd179","66620d16fa43fa0c7e697af7","null","","null","","","","","","","","./tasks/HMM-beads/Images/WhiteBeadChoice.png","","","","","","","","","",""
"image-keyboard-response","324","714103","0.0-3.0-6.0-1.0-2.62","654134d0ff22af1e0e59a29f","6662009ae78f21dd82fcd179","66620d16fa43fa0c7e697af7","null","","null","","","","","","","","./tasks/HMM-beads/Images/WhiteBeadChoiceWrong.png","","","","","","","","","",""
"image-keyboard-response","325","714483","0.0-3.0-6.0-1.0-0.63","654134d0ff22af1e0e59a29f","6662009ae78f21dd82fcd179","66620d16fa43fa0c7e697af7","377","","j","","","","","","","","./tasks/HMM-beads/Images/NewTrialBC.png","lowH","1","63","1","1","0","1","true","",""
"image-keyboard-response","326","714797","0.0-3.0-6.0-1.0-1.63","654134d0ff22af1e0e59a29f","6662009ae78f21dd82fcd179","66620d16fa43fa0c7e697af7","null","","null","","","","","","","","./tasks/HMM-beads/Images/WhiteBeadChoice.png","","","","","","","","","",""
"image-keyboard-response","327","715318","0.0-3.0-6.0-1.0-2.63","654134d0ff22af1e0e59a29f","6662009ae78f21dd82fcd179","66620d16fa43fa0c7e697af7","null","","null","","","","","","","","./tasks/HMM-beads/Images/WhiteBeadChoiceCorrect.png","","","","","","","","","",""
"image-keyboard-response","328","715905","0.0-3.0-6.0-1.0-0.64","654134d0ff22af1e0e59a29f","6662009ae78f21dd82fcd179","66620d16fa43fa0c7e697af7","585","","j","","","","","","","","./tasks/HMM-beads/Images/NewTrialWC.png","lowH","1","64","1","1","1","1","true","",""
"image-keyboard-response","329","716214","0.0-3.0-6.0-1.0-1.64","654134d0ff22af1e0e59a29f","6662009ae78f21dd82fcd179","66620d16fa43fa0c7e697af7","null","","null","","","","","","","","./tasks/HMM-beads/Images/WhiteBeadChoice.png","","","","","","","","","",""
"image-keyboard-response","330","716720","0.0-3.0-6.0-1.0-2.64","654134d0ff22af1e0e59a29f","6662009ae78f21dd82fcd179","66620d16fa43fa0c7e697af7","null","","null","","","","","","","","./tasks/HMM-beads/Images/WhiteBeadChoiceCorrect.png","","","","","","","","","",""
"image-keyboard-response","331","716970","0.0-3.0-6.0-1.0-0.65","654134d0ff22af1e0e59a29f","6662009ae78f21dd82fcd179","66620d16fa43fa0c7e697af7","248","","j","","","","","","","","./tasks/HMM-beads/Images/NewTrialWC.png","lowH","1","65","1","1","1","1","true","",""
"image-keyboard-response","332","717285","0.0-3.0-6.0-1.0-1.65","654134d0ff22af1e0e59a29f","6662009ae78f21dd82fcd179","66620d16fa43fa0c7e697af7","null","","null","","","","","","","","./tasks/HMM-beads/Images/WhiteBeadChoice.png","","","","","","","","","",""
"image-keyboard-response","333","717800","0.0-3.0-6.0-1.0-2.65","654134d0ff22af1e0e59a29f","6662009ae78f21dd82fcd179","66620d16fa43fa0c7e697af7","null","","null","","","","","","","","./tasks/HMM-beads/Images/WhiteBeadChoiceCorrect.png","","","","","","","","","",""
"image-keyboard-response","334","718278","0.0-3.0-6.0-1.0-0.66","654134d0ff22af1e0e59a29f","6662009ae78f21dd82fcd179","66620d16fa43fa0c7e697af7","476","","j","","","","","","","","./tasks/HMM-beads/Images/NewTrialWC.png","lowH","1","66","1","1","1","1","true","",""
"image-keyboard-response","335","718585","0.0-3.0-6.0-1.0-1.66","654134d0ff22af1e0e59a29f","6662009ae78f21dd82fcd179","66620d16fa43fa0c7e697af7","null","","null","","","","","","","","./tasks/HMM-beads/Images/WhiteBeadChoice.png","","","","","","","","","",""
"image-keyboard-response","336","719099","0.0-3.0-6.0-1.0-2.66","654134d0ff22af1e0e59a29f","6662009ae78f21dd82fcd179","66620d16fa43fa0c7e697af7","null","","null","","","","","","","","./tasks/HMM-beads/Images/WhiteBeadChoiceCorrect.png","","","","","","","","","",""
"image-keyboard-response","337","719408","0.0-3.0-6.0-1.0-0.67","654134d0ff22af1e0e59a29f","6662009ae78f21dd82fcd179","66620d16fa43fa0c7e697af7","307","","j","","","","","","","","./tasks/HMM-beads/Images/NewTrialWC.png","lowH","1","67","1","0","1","1","false","",""
"image-keyboard-response","338","719723","0.0-3.0-6.0-1.0-1.67","654134d0ff22af1e0e59a29f","6662009ae78f21dd82fcd179","66620d16fa43fa0c7e697af7","null","","null","","","","","","","","./tasks/HMM-beads/Images/WhiteBeadChoice.png","","","","","","","","","",""
"image-keyboard-response","339","720236","0.0-3.0-6.0-1.0-2.67","654134d0ff22af1e0e59a29f","6662009ae78f21dd82fcd179","66620d16fa43fa0c7e697af7","null","","null","","","","","","","","./tasks/HMM-beads/Images/WhiteBeadChoiceWrong.png","","","","","","","","","",""
"image-keyboard-response","340","720731","0.0-3.0-6.0-1.0-0.68","654134d0ff22af1e0e59a29f","6662009ae78f21dd82fcd179","66620d16fa43fa0c7e697af7","486","","j","","","","","","","","./tasks/HMM-beads/Images/NewTrialBC.png","lowH","1","68","1","1","0","1","true","",""
"image-keyboard-response","341","721044","0.0-3.0-6.0-1.0-1.68","654134d0ff22af1e0e59a29f","6662009ae78f21dd82fcd179","66620d16fa43fa0c7e697af7","null","","null","","","","","","","","./tasks/HMM-beads/Images/WhiteBeadChoice.png","","","","","","","","","",""
"image-keyboard-response","342","721551","0.0-3.0-6.0-1.0-2.68","654134d0ff22af1e0e59a29f","6662009ae78f21dd82fcd179","66620d16fa43fa0c7e697af7","null","","null","","","","","","","","./tasks/HMM-beads/Images/WhiteBeadChoiceCorrect.png","","","","","","","","","",""
"image-keyboard-response","343","721834","0.0-3.0-6.0-1.0-0.69","654134d0ff22af1e0e59a29f","6662009ae78f21dd82fcd179","66620d16fa43fa0c7e697af7","281","","j","","","","","","","","./tasks/HMM-beads/Images/NewTrialWC.png","lowH","1","69","0","1","1","1","true","",""
"image-keyboard-response","344","722145","0.0-3.0-6.0-1.0-1.69","654134d0ff22af1e0e59a29f","6662009ae78f21dd82fcd179","66620d16fa43fa0c7e697af7","null","","null","","","","","","","","./tasks/HMM-beads/Images/WhiteBeadChoice.png","","","","","","","","","",""
"image-keyboard-response","345","722652","0.0-3.0-6.0-1.0-2.69","654134d0ff22af1e0e59a29f","6662009ae78f21dd82fcd179","66620d16fa43fa0c7e697af7","null","","null","","","","","","","","./tasks/HMM-beads/Images/WhiteBeadChoiceCorrect.png","","","","","","","","","",""
"image-keyboard-response","346","723348","0.0-3.0-6.0-1.0-0.70","654134d0ff22af1e0e59a29f","6662009ae78f21dd82fcd179","66620d16fa43fa0c7e697af7","694","","j","","","","","","","","./tasks/HMM-beads/Images/NewTrialWC.png","lowH","1","70","0","1","1","1","true","",""
"image-keyboard-response","347","723659","0.0-3.0-6.0-1.0-1.70","654134d0ff22af1e0e59a29f","6662009ae78f21dd82fcd179","66620d16fa43fa0c7e697af7","null","","null","","","","","","","","./tasks/HMM-beads/Images/WhiteBeadChoice.png","","","","","","","","","",""
"image-keyboard-response","348","724162","0.0-3.0-6.0-1.0-2.70","654134d0ff22af1e0e59a29f","6662009ae78f21dd82fcd179","66620d16fa43fa0c7e697af7","null","","null","","","","","","","","./tasks/HMM-beads/Images/WhiteBeadChoiceCorrect.png","","","","","","","","","",""
"image-keyboard-response","349","724822","0.0-3.0-6.0-1.0-0.71","654134d0ff22af1e0e59a29f","6662009ae78f21dd82fcd179","66620d16fa43fa0c7e697af7","659","","j","","","","","","","","./tasks/HMM-beads/Images/NewTrialWC.png","lowH","1","71","0","0","1","1","false","",""
"image-keyboard-response","350","725134","0.0-3.0-6.0-1.0-1.71","654134d0ff22af1e0e59a29f","6662009ae78f21dd82fcd179","66620d16fa43fa0c7e697af7","null","","null","","","","","","","","./tasks/HMM-beads/Images/WhiteBeadChoice.png","","","","","","","","","",""
"image-keyboard-response","351","725640","0.0-3.0-6.0-1.0-2.71","654134d0ff22af1e0e59a29f","6662009ae78f21dd82fcd179","66620d16fa43fa0c7e697af7","null","","null","","","","","","","","./tasks/HMM-beads/Images/WhiteBeadChoiceWrong.png","","","","","","","","","",""
"image-keyboard-response","352","726280","0.0-3.0-6.0-1.0-0.72","654134d0ff22af1e0e59a29f","6662009ae78f21dd82fcd179","66620d16fa43fa0c7e697af7","638","","j","","","","","","","","./tasks/HMM-beads/Images/NewTrialBC.png","lowH","1","72","0","0","0","1","false","",""
"image-keyboard-response","353","726593","0.0-3.0-6.0-1.0-1.72","654134d0ff22af1e0e59a29f","6662009ae78f21dd82fcd179","66620d16fa43fa0c7e697af7","null","","null","","","","","","","","./tasks/HMM-beads/Images/WhiteBeadChoice.png","","","","","","","","","",""
"image-keyboard-response","354","727107","0.0-3.0-6.0-1.0-2.72","654134d0ff22af1e0e59a29f","6662009ae78f21dd82fcd179","66620d16fa43fa0c7e697af7","null","","null","","","","","","","","./tasks/HMM-beads/Images/WhiteBeadChoiceWrong.png","","","","","","","","","",""
"image-keyboard-response","355","728660","0.0-3.0-6.0-1.0-0.73","654134d0ff22af1e0e59a29f","6662009ae78f21dd82fcd179","66620d16fa43fa0c7e697af7","1551","","f","","","","","","","","./tasks/HMM-beads/Images/NewTrialBC.png","lowH","1","73","0","1","0","0","false","",""
"image-keyboard-response","356","728961","0.0-3.0-6.0-1.0-1.73","654134d0ff22af1e0e59a29f","6662009ae78f21dd82fcd179","66620d16fa43fa0c7e697af7","null","","null","","","","","","","","./tasks/HMM-beads/Images/BlackBeadChoice.png","","","","","","","","","",""
"image-keyboard-response","357","729473","0.0-3.0-6.0-1.0-2.73","654134d0ff22af1e0e59a29f","6662009ae78f21dd82fcd179","66620d16fa43fa0c7e697af7","null","","null","","","","","","","","./tasks/HMM-beads/Images/BlackBeadChoiceWrong.png","","","","","","","","","",""
"image-keyboard-response","358","729975","0.0-3.0-6.0-1.0-0.74","654134d0ff22af1e0e59a29f","6662009ae78f21dd82fcd179","66620d16fa43fa0c7e697af7","500","","j","","","","","","","","./tasks/HMM-beads/Images/NewTrialWC.png","lowH","1","74","0","0","1","1","false","",""
"image-keyboard-response","359","730281","0.0-3.0-6.0-1.0-1.74","654134d0ff22af1e0e59a29f","6662009ae78f21dd82fcd179","66620d16fa43fa0c7e697af7","null","","null","","","","","","","","./tasks/HMM-beads/Images/WhiteBeadChoice.png","","","","","","","","","",""
"image-keyboard-response","360","730799","0.0-3.0-6.0-1.0-2.74","654134d0ff22af1e0e59a29f","6662009ae78f21dd82fcd179","66620d16fa43fa0c7e697af7","null","","null","","","","","","","","./tasks/HMM-beads/Images/WhiteBeadChoiceWrong.png","","","","","","","","","",""
"image-keyboard-response","361","731053","0.0-3.0-6.0-1.0-0.75","654134d0ff22af1e0e59a29f","6662009ae78f21dd82fcd179","66620d16fa43fa0c7e697af7","251","","f","","","","","","","","./tasks/HMM-beads/Images/NewTrialBC.png","lowH","1","75","0","1","0","0","false","",""
"image-keyboard-response","362","731358","0.0-3.0-6.0-1.0-1.75","654134d0ff22af1e0e59a29f","6662009ae78f21dd82fcd179","66620d16fa43fa0c7e697af7","null","","null","","","","","","","","./tasks/HMM-beads/Images/BlackBeadChoice.png","","","","","","","","","",""
"image-keyboard-response","363","731871","0.0-3.0-6.0-1.0-2.75","654134d0ff22af1e0e59a29f","6662009ae78f21dd82fcd179","66620d16fa43fa0c7e697af7","null","","null","","","","","","","","./tasks/HMM-beads/Images/BlackBeadChoiceWrong.png","","","","","","","","","",""
"image-keyboard-response","364","732434","0.0-3.0-6.0-1.0-0.76","654134d0ff22af1e0e59a29f","6662009ae78f21dd82fcd179","66620d16fa43fa0c7e697af7","561","","f","","","","","","","","./tasks/HMM-beads/Images/NewTrialWC.png","lowH","1","76","0","1","1","0","false","",""
"image-keyboard-response","365","732747","0.0-3.0-6.0-1.0-1.76","654134d0ff22af1e0e59a29f","6662009ae78f21dd82fcd179","66620d16fa43fa0c7e697af7","null","","null","","","","","","","","./tasks/HMM-beads/Images/BlackBeadChoice.png","","","","","","","","","",""
"image-keyboard-response","366","733271","0.0-3.0-6.0-1.0-2.76","654134d0ff22af1e0e59a29f","6662009ae78f21dd82fcd179","66620d16fa43fa0c7e697af7","null","","null","","","","","","","","./tasks/HMM-beads/Images/BlackBeadChoiceWrong.png","","","","","","","","","",""
"image-keyboard-response","367","733844","0.0-3.0-6.0-1.0-0.77","654134d0ff22af1e0e59a29f","6662009ae78f21dd82fcd179","66620d16fa43fa0c7e697af7","570","","j","","","","","","","","./tasks/HMM-beads/Images/NewTrialWC.png","lowH","1","77","0","0","1","1","false","",""
"image-keyboard-response","368","734159","0.0-3.0-6.0-1.0-1.77","654134d0ff22af1e0e59a29f","6662009ae78f21dd82fcd179","66620d16fa43fa0c7e697af7","null","","null","","","","","","","","./tasks/HMM-beads/Images/WhiteBeadChoice.png","","","","","","","","","",""
"image-keyboard-response","369","734676","0.0-3.0-6.0-1.0-2.77","654134d0ff22af1e0e59a29f","6662009ae78f21dd82fcd179","66620d16fa43fa0c7e697af7","null","","null","","","","","","","","./tasks/HMM-beads/Images/WhiteBeadChoiceWrong.png","","","","","","","","","",""
"image-keyboard-response","370","734988","0.0-3.0-6.0-1.0-0.78","654134d0ff22af1e0e59a29f","6662009ae78f21dd82fcd179","66620d16fa43fa0c7e697af7","310","","j","","","","","","","","./tasks/HMM-beads/Images/NewTrialBC.png","lowH","1","78","0","0","0","1","false","",""
"image-keyboard-response","371","735290","0.0-3.0-6.0-1.0-1.78","654134d0ff22af1e0e59a29f","6662009ae78f21dd82fcd179","66620d16fa43fa0c7e697af7","null","","null","","","","","","","","./tasks/HMM-beads/Images/WhiteBeadChoice.png","","","","","","","","","",""
"image-keyboard-response","372","735806","0.0-3.0-6.0-1.0-2.78","654134d0ff22af1e0e59a29f","6662009ae78f21dd82fcd179","66620d16fa43fa0c7e697af7","null","","null","","","","","","","","./tasks/HMM-beads/Images/WhiteBeadChoiceWrong.png","","","","","","","","","",""
"image-keyboard-response","373","736174","0.0-3.0-6.0-1.0-0.79","654134d0ff22af1e0e59a29f","6662009ae78f21dd82fcd179","66620d16fa43fa0c7e697af7","366","","j","","","","","","","","./tasks/HMM-beads/Images/NewTrialBC.png","lowH","1","79","0","0","0","1","false","",""
