"trial_type","trial_index","time_elapsed","internal_node_id","subject_id","study_id","session_id","rt","url","response","question_order","view_history","success","timeout","failed_images","failed_audio","failed_video","stimulus","block","block_rep","trial_number","jar","bead","previous_bead","choice","correct","lowH_score","total_bonus"
"pavlovia","0","1281","0.0-0.0","637ce608b8f8f923bf784d84","6662009ae78f21dd82fcd179","66620cf0d96dc723aa71696e","","","","","","","","","","","","","","","","","","","","",""
"external-html","1","10553","0.0-1.0-0.0","637ce608b8f8f923bf784d84","6662009ae78f21dd82fcd179","66620cf0d96dc723aa71696e","9065","new_consent.html","","","","","","","","","","","","","","","","","","",""
"survey-multi-choice","2","18528","0.0-1.0-1.0","637ce608b8f8f923bf784d84","6662009ae78f21dd82fcd179","66620cf0d96dc723aa71696e","7971","","{""Q0"":""Female"",""Q1"":""White""}","[0,1]","","","","","","","","","","","","","","","","",""
"survey-text","3","22330","0.0-1.0-2.0","637ce608b8f8f923bf784d84","6662009ae78f21dd82fcd179","66620cf0d96dc723aa71696e","3784","","{""Q0"":""57""}","","","","","","","","","","","","","","","","","",""
"instructions","4","24579","0.0-2.0","637ce608b8f8f923bf784d84","6662009ae78f21dd82fcd179","66620cf0d96dc723aa71696e","2146","","","","[{""page_index"":0,""viewing_time"":2145}]","","","","","","","","","","","","","","","",""
"preload","5","28002","0.0-3.0-0.0","637ce608b8f8f923bf784d84","6662009ae78f21dd82fcd179","66620cf0d96dc723aa71696e","","","","","","true","false","[]","[]","[]","","","","","","","","","","",""
"instructions","6","163559","0.0-3.0-1.0","637ce608b8f8f923bf784d84","6662009ae78f21dd82fcd179","66620cf0d96dc723aa71696e","135555","","","","[{""page_index"":0,""viewing_time"":21229},{""page_index"":1,""viewing_time"":9208},{""page_index"":2,""viewing_time"":7552},{""page_index"":3,""viewing_time"":2752},{""page_index"":4,""viewing_time"":16376},{""page_index"":5,""viewing_time"":23330},{""page_index"":6,""viewing_time"":5068},{""page_index"":7,""viewing_time"":8489},{""page_index"":8,""viewing_time"":4218},{""page_index"":9,""viewing_time"":18079},{""page_index"":10,""viewing_time"":16668},{""page_index"":11,""viewing_time"":2587}]","","","","","","","","","","","","","","","",""
"html-button-response","7","167268","0.0-3.0-2.0-0.0-0.0","637ce608b8f8f923bf784d84","6662009ae78f21dd82fcd179","66620cf0d96dc723aa71696e","3707","","1","","","","","","","","<div align=center>Your goal is to predict…?<br><br></div>","","","","","","","","","",""
"html-button-response","8","175767","0.0-3.0-2.0-1.0-0.0","637ce608b8f8f923bf784d84","6662009ae78f21dd82fcd179","66620cf0d96dc723aa71696e","5759","","2","","","","","","","","<div align=center>In the jar with mostly white beads, there are ___% white beads and ___% black beads?<br><br></div>","","","","","","","","","",""
"html-button-response","9","182934","0.0-3.0-2.0-2.0-0.0","637ce608b8f8f923bf784d84","6662009ae78f21dd82fcd179","66620cf0d96dc723aa71696e","5528","","0","","","","","","","","<div align=center>When there is a 1% probability that the jars will switch, the next bead will most likely be drawn from the…<br><br></div>","","","","","","","","","",""
"html-button-response","10","188677","0.0-3.0-2.0-3.0-0.0","637ce608b8f8f923bf784d84","6662009ae78f21dd82fcd179","66620cf0d96dc723aa71696e","2733","","1","","","","","","","","<div align=center>When there is a 99% probability that the jars will switch, the next bead will most likely be drawn from the…<br><br></div>","","","","","","","","","",""
"instructions","11","198783","0.0-3.0-3.0","637ce608b8f8f923bf784d84","6662009ae78f21dd82fcd179","66620cf0d96dc723aa71696e","8094","","","","[{""page_index"":0,""viewing_time"":8093}]","","","","","","","","","","","","","","","",""
"html-keyboard-response","12","205761","0.0-3.0-4.0-0.0","637ce608b8f8f923bf784d84","6662009ae78f21dd82fcd179","66620cf0d96dc723aa71696e","6977",""," ","","","","","","","","<div align=center>In this practice block, there will be a <b>1% chance</b> that the jar on the next trial will be different from the jar on the current trial.<br><br></div>","","","","","","","","","",""
"image-keyboard-response","13","214769","0.0-3.0-4.0-1.0-0.0","637ce608b8f8f923bf784d84","6662009ae78f21dd82fcd179","66620cf0d96dc723aa71696e","9005","","f","","","","","","","","./tasks/HMM-beads/Images/NoChoice.png","practice","0","0","0","0","9","0","true","",""
"image-keyboard-response","14","215074","0.0-3.0-4.0-1.0-1.0","637ce608b8f8f923bf784d84","6662009ae78f21dd82fcd179","66620cf0d96dc723aa71696e","null","","null","","","","","","","","./tasks/HMM-beads/Images/BlackBeadChoice.png","","","","","","","","","",""
"image-keyboard-response","15","215577","0.0-3.0-4.0-1.0-2.0","637ce608b8f8f923bf784d84","6662009ae78f21dd82fcd179","66620cf0d96dc723aa71696e","null","","null","","","","","","","","./tasks/HMM-beads/Images/BlackBeadChoiceCorrect.png","","","","","","","","","",""
"image-keyboard-response","16","219182","0.0-3.0-4.0-1.0-0.1","637ce608b8f8f923bf784d84","6662009ae78f21dd82fcd179","66620cf0d96dc723aa71696e","3602","","f","","","","","","","","./tasks/HMM-beads/Images/NewTrialBC.png","practice","0","1","0","0","0","0","true","",""
"image-keyboard-response","17","219484","0.0-3.0-4.0-1.0-1.1","637ce608b8f8f923bf784d84","6662009ae78f21dd82fcd179","66620cf0d96dc723aa71696e","null","","null","","","","","","","","./tasks/HMM-beads/Images/BlackBeadChoice.png","","","","","","","","","",""
"image-keyboard-response","18","219988","0.0-3.0-4.0-1.0-2.1","637ce608b8f8f923bf784d84","6662009ae78f21dd82fcd179","66620cf0d96dc723aa71696e","null","","null","","","","","","","","./tasks/HMM-beads/Images/BlackBeadChoiceCorrect.png","","","","","","","","","",""
"image-keyboard-response","19","222604","0.0-3.0-4.0-1.0-0.2","637ce608b8f8f923bf784d84","6662009ae78f21dd82fcd179","66620cf0d96dc723aa71696e","2614","","f","","","","","","","","./tasks/HMM-beads/Images/NewTrialBC.png","practice","0","2","0","1","0","0","false","",""
"image-keyboard-response","20","222908","0.0-3.0-4.0-1.0-1.2","637ce608b8f8f923bf784d84","6662009ae78f21dd82fcd179","66620cf0d96dc723aa71696e","null","","null","","","","","","","","./tasks/HMM-beads/Images/BlackBeadChoice.png","","","","","","","","","",""
"image-keyboard-response","21","223410","0.0-3.0-4.0-1.0-2.2","637ce608b8f8f923bf784d84","6662009ae78f21dd82fcd179","66620cf0d96dc723aa71696e","null","","null","","","","","","","","./tasks/HMM-beads/Images/BlackBeadChoiceWrong.png","","","","","","","","","",""
"image-keyboard-response","22","228005","0.0-3.0-4.0-1.0-0.3","637ce608b8f8f923bf784d84","6662009ae78f21dd82fcd179","66620cf0d96dc723aa71696e","4593","","j","","","","","","","","./tasks/HMM-beads/Images/NewTrialWC.png","practice","0","3","0","0","1","1","false","",""
"image-keyboard-response","23","228307","0.0-3.0-4.0-1.0-1.3","637ce608b8f8f923bf784d84","6662009ae78f21dd82fcd179","66620cf0d96dc723aa71696e","null","","null","","","","","","","","./tasks/HMM-beads/Images/WhiteBeadChoice.png","","","","","","","","","",""
"image-keyboard-response","24","228809","0.0-3.0-4.0-1.0-2.3","637ce608b8f8f923bf784d84","6662009ae78f21dd82fcd179","66620cf0d96dc723aa71696e","null","","null","","","","","","","","./tasks/HMM-beads/Images/WhiteBeadChoiceWrong.png","","","","","","","","","",""
"image-keyboard-response","25","231626","0.0-3.0-4.0-1.0-0.4","637ce608b8f8f923bf784d84","6662009ae78f21dd82fcd179","66620cf0d96dc723aa71696e","2815","","f","","","","","","","","./tasks/HMM-beads/Images/NewTrialBC.png","practice","0","4","0","0","0","0","true","",""
"image-keyboard-response","26","231928","0.0-3.0-4.0-1.0-1.4","637ce608b8f8f923bf784d84","6662009ae78f21dd82fcd179","66620cf0d96dc723aa71696e","null","","null","","","","","","","","./tasks/HMM-beads/Images/BlackBeadChoice.png","","","","","","","","","",""
"image-keyboard-response","27","232429","0.0-3.0-4.0-1.0-2.4","637ce608b8f8f923bf784d84","6662009ae78f21dd82fcd179","66620cf0d96dc723aa71696e","null","","null","","","","","","","","./tasks/HMM-beads/Images/BlackBeadChoiceCorrect.png","","","","","","","","","",""
"image-keyboard-response","28","234003","0.0-3.0-4.0-1.0-0.5","637ce608b8f8f923bf784d84","6662009ae78f21dd82fcd179","66620cf0d96dc723aa71696e","1570","","f","","","","","","","","./tasks/HMM-beads/Images/NewTrialBC.png","practice","0","5","0","1","0","0","false","",""
"image-keyboard-response","29","234306","0.0-3.0-4.0-1.0-1.5","637ce608b8f8f923bf784d84","6662009ae78f21dd82fcd179","66620cf0d96dc723aa71696e","null","","null","","","","","","","","./tasks/HMM-beads/Images/BlackBeadChoice.png","","","","","","","","","",""
"image-keyboard-response","30","234808","0.0-3.0-4.0-1.0-2.5","637ce608b8f8f923bf784d84","6662009ae78f21dd82fcd179","66620cf0d96dc723aa71696e","null","","null","","","","","","","","./tasks/HMM-beads/Images/BlackBeadChoiceWrong.png","","","","","","","","","",""
"image-keyboard-response","31","236475","0.0-3.0-4.0-1.0-0.6","637ce608b8f8f923bf784d84","6662009ae78f21dd82fcd179","66620cf0d96dc723aa71696e","1665","","j","","","","","","","","./tasks/HMM-beads/Images/NewTrialWC.png","practice","0","6","0","0","1","1","false","",""
"image-keyboard-response","32","236777","0.0-3.0-4.0-1.0-1.6","637ce608b8f8f923bf784d84","6662009ae78f21dd82fcd179","66620cf0d96dc723aa71696e","null","","null","","","","","","","","./tasks/HMM-beads/Images/WhiteBeadChoice.png","","","","","","","","","",""
"image-keyboard-response","33","237280","0.0-3.0-4.0-1.0-2.6","637ce608b8f8f923bf784d84","6662009ae78f21dd82fcd179","66620cf0d96dc723aa71696e","null","","null","","","","","","","","./tasks/HMM-beads/Images/WhiteBeadChoiceWrong.png","","","","","","","","","",""
"image-keyboard-response","34","239146","0.0-3.0-4.0-1.0-0.7","637ce608b8f8f923bf784d84","6662009ae78f21dd82fcd179","66620cf0d96dc723aa71696e","1863","","f","","","","","","","","./tasks/HMM-beads/Images/NewTrialBC.png","practice","0","7","0","0","0","0","true","",""
"image-keyboard-response","35","239449","0.0-3.0-4.0-1.0-1.7","637ce608b8f8f923bf784d84","6662009ae78f21dd82fcd179","66620cf0d96dc723aa71696e","null","","null","","","","","","","","./tasks/HMM-beads/Images/BlackBeadChoice.png","","","","","","","","","",""
"image-keyboard-response","36","239952","0.0-3.0-4.0-1.0-2.7","637ce608b8f8f923bf784d84","6662009ae78f21dd82fcd179","66620cf0d96dc723aa71696e","null","","null","","","","","","","","./tasks/HMM-beads/Images/BlackBeadChoiceCorrect.png","","","","","","","","","",""
"image-keyboard-response","37","241024","0.0-3.0-4.0-1.0-0.8","637ce608b8f8f923bf784d84","6662009ae78f21dd82fcd179","66620cf0d96dc723aa71696e","1069","","f","","","","","","","","./tasks/HMM-beads/Images/NewTrialBC.png","practice","0","8","0","0","0","0","true","",""
"image-keyboard-response","38","241326","0.0-3.0-4.0-1.0-1.8","637ce608b8f8f923bf784d84","6662009ae78f21dd82fcd179","66620cf0d96dc723aa71696e","null","","null","","","","","","","","./tasks/HMM-beads/Images/BlackBeadChoice.png","","","","","","","","","",""
"image-keyboard-response","39","241828","0.0-3.0-4.0-1.0-2.8","637ce608b8f8f923bf784d84","6662009ae78f21dd82fcd179","66620cf0d96dc723aa71696e","null","","null","","","","","","","","./tasks/HMM-beads/Images/BlackBeadChoiceCorrect.png","","","","","","","","","",""
"image-keyboard-response","40","242652","0.0-3.0-4.0-1.0-0.9","637ce608b8f8f923bf784d84","6662009ae78f21dd82fcd179","66620cf0d96dc723aa71696e","820","","f","","","","","","","","./tasks/HMM-beads/Images/NewTrialBC.png","practice","0","9","0","1","0","0","false","",""
"image-keyboard-response","41","242955","0.0-3.0-4.0-1.0-1.9","637ce608b8f8f923bf784d84","6662009ae78f21dd82fcd179","66620cf0d96dc723aa71696e","null","","null","","","","","","","","./tasks/HMM-beads/Images/BlackBeadChoice.png","","","","","","","","","",""
"image-keyboard-response","42","243456","0.0-3.0-4.0-1.0-2.9","637ce608b8f8f923bf784d84","6662009ae78f21dd82fcd179","66620cf0d96dc723aa71696e","null","","null","","","","","","","","./tasks/HMM-beads/Images/BlackBeadChoiceWrong.png","","","","","","","","","",""
"image-keyboard-response","43","246591","0.0-3.0-4.0-1.0-0.10","637ce608b8f8f923bf784d84","6662009ae78f21dd82fcd179","66620cf0d96dc723aa71696e","3133","","j","","","","","","","","./tasks/HMM-beads/Images/NewTrialWC.png","practice","0","10","0","0","1","1","false","",""
"image-keyboard-response","44","246892","0.0-3.0-4.0-1.0-1.10","637ce608b8f8f923bf784d84","6662009ae78f21dd82fcd179","66620cf0d96dc723aa71696e","null","","null","","","","","","","","./tasks/HMM-beads/Images/WhiteBeadChoice.png","","","","","","","","","",""
"image-keyboard-response","45","247394","0.0-3.0-4.0-1.0-2.10","637ce608b8f8f923bf784d84","6662009ae78f21dd82fcd179","66620cf0d96dc723aa71696e","null","","null","","","","","","","","./tasks/HMM-beads/Images/WhiteBeadChoiceWrong.png","","","","","","","","","",""
"image-keyboard-response","46","248410","0.0-3.0-4.0-1.0-0.11","637ce608b8f8f923bf784d84","6662009ae78f21dd82fcd179","66620cf0d96dc723aa71696e","1014","","f","","","","","","","","./tasks/HMM-beads/Images/NewTrialBC.png","practice","0","11","0","1","0","0","false","",""
"image-keyboard-response","47","248712","0.0-3.0-4.0-1.0-1.11","637ce608b8f8f923bf784d84","6662009ae78f21dd82fcd179","66620cf0d96dc723aa71696e","null","","null","","","","","","","","./tasks/HMM-beads/Images/BlackBeadChoice.png","","","","","","","","","",""
"image-keyboard-response","48","249215","0.0-3.0-4.0-1.0-2.11","637ce608b8f8f923bf784d84","6662009ae78f21dd82fcd179","66620cf0d96dc723aa71696e","null","","null","","","","","","","","./tasks/HMM-beads/Images/BlackBeadChoiceWrong.png","","","","","","","","","",""
"image-keyboard-response","49","257531","0.0-3.0-4.0-1.0-0.12","637ce608b8f8f923bf784d84","6662009ae78f21dd82fcd179","66620cf0d96dc723aa71696e","8313","","f","","","","","","","","./tasks/HMM-beads/Images/NewTrialWC.png","practice","0","12","0","0","1","0","true","",""
"image-keyboard-response","50","257844","0.0-3.0-4.0-1.0-1.12","637ce608b8f8f923bf784d84","6662009ae78f21dd82fcd179","66620cf0d96dc723aa71696e","null","","null","","","","","","","","./tasks/HMM-beads/Images/BlackBeadChoice.png","","","","","","","","","",""
"image-keyboard-response","51","258346","0.0-3.0-4.0-1.0-2.12","637ce608b8f8f923bf784d84","6662009ae78f21dd82fcd179","66620cf0d96dc723aa71696e","null","","null","","","","","","","","./tasks/HMM-beads/Images/BlackBeadChoiceCorrect.png","","","","","","","","","",""
"image-keyboard-response","52","260731","0.0-3.0-4.0-1.0-0.13","637ce608b8f8f923bf784d84","6662009ae78f21dd82fcd179","66620cf0d96dc723aa71696e","2383","","f","","","","","","","","./tasks/HMM-beads/Images/NewTrialBC.png","practice","0","13","0","0","0","0","true","",""
"image-keyboard-response","53","261034","0.0-3.0-4.0-1.0-1.13","637ce608b8f8f923bf784d84","6662009ae78f21dd82fcd179","66620cf0d96dc723aa71696e","null","","null","","","","","","","","./tasks/HMM-beads/Images/BlackBeadChoice.png","","","","","","","","","",""
"image-keyboard-response","54","261537","0.0-3.0-4.0-1.0-2.13","637ce608b8f8f923bf784d84","6662009ae78f21dd82fcd179","66620cf0d96dc723aa71696e","null","","null","","","","","","","","./tasks/HMM-beads/Images/BlackBeadChoiceCorrect.png","","","","","","","","","",""
"image-keyboard-response","55","267062","0.0-3.0-4.0-1.0-0.14","637ce608b8f8f923bf784d84","6662009ae78f21dd82fcd179","66620cf0d96dc723aa71696e","5523","","j","","","","","","","","./tasks/HMM-beads/Images/NewTrialBC.png","practice","0","14","0","0","0","1","false","",""
"image-keyboard-response","56","267363","0.0-3.0-4.0-1.0-1.14","637ce608b8f8f923bf784d84","6662009ae78f21dd82fcd179","66620cf0d96dc723aa71696e","null","","null","","","","","","","","./tasks/HMM-beads/Images/WhiteBeadChoice.png","","","","","","","","","",""
"image-keyboard-response","57","267865","0.0-3.0-4.0-1.0-2.14","637ce608b8f8f923bf784d84","6662009ae78f21dd82fcd179","66620cf0d96dc723aa71696e","null","","null","","","","","","","","./tasks/HMM-beads/Images/WhiteBeadChoiceWrong.png","","","","","","","","","",""
"image-keyboard-response","58","269037","0.0-3.0-4.0-1.0-0.15","637ce608b8f8f923bf784d84","6662009ae78f21dd82fcd179","66620cf0d96dc723aa71696e","1169","","j","","","","","","","","./tasks/HMM-beads/Images/NewTrialBC.png","practice","0","15","0","0","0","1","false","",""
"image-keyboard-response","59","269341","0.0-3.0-4.0-1.0-1.15","637ce608b8f8f923bf784d84","6662009ae78f21dd82fcd179","66620cf0d96dc723aa71696e","null","","null","","","","","","","","./tasks/HMM-beads/Images/WhiteBeadChoice.png","","","","","","","","","",""
"image-keyboard-response","60","269844","0.0-3.0-4.0-1.0-2.15","637ce608b8f8f923bf784d84","6662009ae78f21dd82fcd179","66620cf0d96dc723aa71696e","null","","null","","","","","","","","./tasks/HMM-beads/Images/WhiteBeadChoiceWrong.png","","","","","","","","","",""
"image-keyboard-response","61","270905","0.0-3.0-4.0-1.0-0.16","637ce608b8f8f923bf784d84","6662009ae78f21dd82fcd179","66620cf0d96dc723aa71696e","1058","","j","","","","","","","","./tasks/HMM-beads/Images/NewTrialBC.png","practice","0","16","0","0","0","1","false","",""
"image-keyboard-response","62","271208","0.0-3.0-4.0-1.0-1.16","637ce608b8f8f923bf784d84","6662009ae78f21dd82fcd179","66620cf0d96dc723aa71696e","null","","null","","","","","","","","./tasks/HMM-beads/Images/WhiteBeadChoice.png","","","","","","","","","",""
"image-keyboard-response","63","271711","0.0-3.0-4.0-1.0-2.16","637ce608b8f8f923bf784d84","6662009ae78f21dd82fcd179","66620cf0d96dc723aa71696e","null","","null","","","","","","","","./tasks/HMM-beads/Images/WhiteBeadChoiceWrong.png","","","","","","","","","",""
"image-keyboard-response","64","272845","0.0-3.0-4.0-1.0-0.17","637ce608b8f8f923bf784d84","6662009ae78f21dd82fcd179","66620cf0d96dc723aa71696e","1131","","j","","","","","","","","./tasks/HMM-beads/Images/NewTrialBC.png","practice","0","17","0","0","0","1","false","",""
"image-keyboard-response","65","273147","0.0-3.0-4.0-1.0-1.17","637ce608b8f8f923bf784d84","6662009ae78f21dd82fcd179","66620cf0d96dc723aa71696e","null","","null","","","","","","","","./tasks/HMM-beads/Images/WhiteBeadChoice.png","","","","","","","","","",""
"image-keyboard-response","66","273650","0.0-3.0-4.0-1.0-2.17","637ce608b8f8f923bf784d84","6662009ae78f21dd82fcd179","66620cf0d96dc723aa71696e","null","","null","","","","","","","","./tasks/HMM-beads/Images/WhiteBeadChoiceWrong.png","","","","","","","","","",""
"image-keyboard-response","67","276322","0.0-3.0-4.0-1.0-0.18","637ce608b8f8f923bf784d84","6662009ae78f21dd82fcd179","66620cf0d96dc723aa71696e","2670","","j","","","","","","","","./tasks/HMM-beads/Images/NewTrialBC.png","practice","0","18","0","1","0","1","true","",""
"image-keyboard-response","68","276626","0.0-3.0-4.0-1.0-1.18","637ce608b8f8f923bf784d84","6662009ae78f21dd82fcd179","66620cf0d96dc723aa71696e","null","","null","","","","","","","","./tasks/HMM-beads/Images/WhiteBeadChoice.png","","","","","","","","","",""
"image-keyboard-response","69","277128","0.0-3.0-4.0-1.0-2.18","637ce608b8f8f923bf784d84","6662009ae78f21dd82fcd179","66620cf0d96dc723aa71696e","null","","null","","","","","","","","./tasks/HMM-beads/Images/WhiteBeadChoiceCorrect.png","","","","","","","","","",""
"image-keyboard-response","70","278893","0.0-3.0-4.0-1.0-0.19","637ce608b8f8f923bf784d84","6662009ae78f21dd82fcd179","66620cf0d96dc723aa71696e","1764","","j","","","","","","","","./tasks/HMM-beads/Images/NewTrialWC.png","practice","0","19","0","0","1","1","false","",""
"image-keyboard-response","71","279196","0.0-3.0-4.0-1.0-1.19","637ce608b8f8f923bf784d84","6662009ae78f21dd82fcd179","66620cf0d96dc723aa71696e","null","","null","","","","","","","","./tasks/HMM-beads/Images/WhiteBeadChoice.png","","","","","","","","","",""
"image-keyboard-response","72","279699","0.0-3.0-4.0-1.0-2.19","637ce608b8f8f923bf784d84","6662009ae78f21dd82fcd179","66620cf0d96dc723aa71696e","null","","null","","","","","","","","./tasks/HMM-beads/Images/WhiteBeadChoiceWrong.png","","","","","","","","","",""
"image-keyboard-response","73","280907","0.0-3.0-4.0-1.0-0.20","637ce608b8f8f923bf784d84","6662009ae78f21dd82fcd179","66620cf0d96dc723aa71696e","1205","","f","","","","","","","","./tasks/HMM-beads/Images/NewTrialBC.png","practice","0","20","0","0","0","0","true","",""
"image-keyboard-response","74","281209","0.0-3.0-4.0-1.0-1.20","637ce608b8f8f923bf784d84","6662009ae78f21dd82fcd179","66620cf0d96dc723aa71696e","null","","null","","","","","","","","./tasks/HMM-beads/Images/BlackBeadChoice.png","","","","","","","","","",""
"image-keyboard-response","75","281711","0.0-3.0-4.0-1.0-2.20","637ce608b8f8f923bf784d84","6662009ae78f21dd82fcd179","66620cf0d96dc723aa71696e","null","","null","","","","","","","","./tasks/HMM-beads/Images/BlackBeadChoiceCorrect.png","","","","","","","","","",""
"image-keyboard-response","76","283082","0.0-3.0-4.0-1.0-0.21","637ce608b8f8f923bf784d84","6662009ae78f21dd82fcd179","66620cf0d96dc723aa71696e","1369","","f","","","","","","","","./tasks/HMM-beads/Images/NewTrialBC.png","practice","0","21","0","1","0","0","false","",""
"image-keyboard-response","77","283385","0.0-3.0-4.0-1.0-1.21","637ce608b8f8f923bf784d84","6662009ae78f21dd82fcd179","66620cf0d96dc723aa71696e","null","","null","","","","","","","","./tasks/HMM-beads/Images/BlackBeadChoice.png","","","","","","","","","",""
"image-keyboard-response","78","283887","0.0-3.0-4.0-1.0-2.21","637ce608b8f8f923bf784d84","6662009ae78f21dd82fcd179","66620cf0d96dc723aa71696e","null","","null","","","","","","","","./tasks/HMM-beads/Images/BlackBeadChoiceWrong.png","","","","","","","","","",""
"image-keyboard-response","79","285279","0.0-3.0-4.0-1.0-0.22","637ce608b8f8f923bf784d84","6662009ae78f21dd82fcd179","66620cf0d96dc723aa71696e","1390","","j","","","","","","","","./tasks/HMM-beads/Images/NewTrialWC.png","practice","0","22","1","1","1","1","true","",""
"image-keyboard-response","80","285580","0.0-3.0-4.0-1.0-1.22","637ce608b8f8f923bf784d84","6662009ae78f21dd82fcd179","66620cf0d96dc723aa71696e","null","","null","","","","","","","","./tasks/HMM-beads/Images/WhiteBeadChoice.png","","","","","","","","","",""
"image-keyboard-response","81","286082","0.0-3.0-4.0-1.0-2.22","637ce608b8f8f923bf784d84","6662009ae78f21dd82fcd179","66620cf0d96dc723aa71696e","null","","null","","","","","","","","./tasks/HMM-beads/Images/WhiteBeadChoiceCorrect.png","","","","","","","","","",""
"image-keyboard-response","82","286852","0.0-3.0-4.0-1.0-0.23","637ce608b8f8f923bf784d84","6662009ae78f21dd82fcd179","66620cf0d96dc723aa71696e","768","","f","","","","","","","","./tasks/HMM-beads/Images/NewTrialWC.png","practice","0","23","1","0","1","0","true","",""
"image-keyboard-response","83","287155","0.0-3.0-4.0-1.0-1.23","637ce608b8f8f923bf784d84","6662009ae78f21dd82fcd179","66620cf0d96dc723aa71696e","null","","null","","","","","","","","./tasks/HMM-beads/Images/BlackBeadChoice.png","","","","","","","","","",""
"image-keyboard-response","84","287656","0.0-3.0-4.0-1.0-2.23","637ce608b8f8f923bf784d84","6662009ae78f21dd82fcd179","66620cf0d96dc723aa71696e","null","","null","","","","","","","","./tasks/HMM-beads/Images/BlackBeadChoiceCorrect.png","","","","","","","","","",""
"image-keyboard-response","85","288701","0.0-3.0-4.0-1.0-0.24","637ce608b8f8f923bf784d84","6662009ae78f21dd82fcd179","66620cf0d96dc723aa71696e","1041","","f","","","","","","","","./tasks/HMM-beads/Images/NewTrialBC.png","practice","0","24","1","1","0","0","false","",""
"image-keyboard-response","86","289003","0.0-3.0-4.0-1.0-1.24","637ce608b8f8f923bf784d84","6662009ae78f21dd82fcd179","66620cf0d96dc723aa71696e","null","","null","","","","","","","","./tasks/HMM-beads/Images/BlackBeadChoice.png","","","","","","","","","",""
"image-keyboard-response","87","289506","0.0-3.0-4.0-1.0-2.24","637ce608b8f8f923bf784d84","6662009ae78f21dd82fcd179","66620cf0d96dc723aa71696e","null","","null","","","","","","","","./tasks/HMM-beads/Images/BlackBeadChoiceWrong.png","","","","","","","","","",""
"image-keyboard-response","88","290439","0.0-3.0-4.0-1.0-0.25","637ce608b8f8f923bf784d84","6662009ae78f21dd82fcd179","66620cf0d96dc723aa71696e","931","","f","","","","","","","","./tasks/HMM-beads/Images/NewTrialWC.png","practice","0","25","1","1","1","0","false","",""
"image-keyboard-response","89","290742","0.0-3.0-4.0-1.0-1.25","637ce608b8f8f923bf784d84","6662009ae78f21dd82fcd179","66620cf0d96dc723aa71696e","null","","null","","","","","","","","./tasks/HMM-beads/Images/BlackBeadChoice.png","","","","","","","","","",""
"image-keyboard-response","90","291244","0.0-3.0-4.0-1.0-2.25","637ce608b8f8f923bf784d84","6662009ae78f21dd82fcd179","66620cf0d96dc723aa71696e","null","","null","","","","","","","","./tasks/HMM-beads/Images/BlackBeadChoiceWrong.png","","","","","","","","","",""
"image-keyboard-response","91","292075","0.0-3.0-4.0-1.0-0.26","637ce608b8f8f923bf784d84","6662009ae78f21dd82fcd179","66620cf0d96dc723aa71696e","829","","f","","","","","","","","./tasks/HMM-beads/Images/NewTrialWC.png","practice","0","26","1","1","1","0","false","",""
"image-keyboard-response","92","292378","0.0-3.0-4.0-1.0-1.26","637ce608b8f8f923bf784d84","6662009ae78f21dd82fcd179","66620cf0d96dc723aa71696e","null","","null","","","","","","","","./tasks/HMM-beads/Images/BlackBeadChoice.png","","","","","","","","","",""
"image-keyboard-response","93","292880","0.0-3.0-4.0-1.0-2.26","637ce608b8f8f923bf784d84","6662009ae78f21dd82fcd179","66620cf0d96dc723aa71696e","null","","null","","","","","","","","./tasks/HMM-beads/Images/BlackBeadChoiceWrong.png","","","","","","","","","",""
"image-keyboard-response","94","293759","0.0-3.0-4.0-1.0-0.27","637ce608b8f8f923bf784d84","6662009ae78f21dd82fcd179","66620cf0d96dc723aa71696e","876","","f","","","","","","","","./tasks/HMM-beads/Images/NewTrialWC.png","practice","0","27","1","1","1","0","false","",""
"image-keyboard-response","95","294061","0.0-3.0-4.0-1.0-1.27","637ce608b8f8f923bf784d84","6662009ae78f21dd82fcd179","66620cf0d96dc723aa71696e","null","","null","","","","","","","","./tasks/HMM-beads/Images/BlackBeadChoice.png","","","","","","","","","",""
"image-keyboard-response","96","294564","0.0-3.0-4.0-1.0-2.27","637ce608b8f8f923bf784d84","6662009ae78f21dd82fcd179","66620cf0d96dc723aa71696e","null","","null","","","","","","","","./tasks/HMM-beads/Images/BlackBeadChoiceWrong.png","","","","","","","","","",""
"image-keyboard-response","97","295628","0.0-3.0-4.0-1.0-0.28","637ce608b8f8f923bf784d84","6662009ae78f21dd82fcd179","66620cf0d96dc723aa71696e","1062","","f","","","","","","","","./tasks/HMM-beads/Images/NewTrialWC.png","practice","0","28","1","0","1","0","true","",""
"image-keyboard-response","98","295931","0.0-3.0-4.0-1.0-1.28","637ce608b8f8f923bf784d84","6662009ae78f21dd82fcd179","66620cf0d96dc723aa71696e","null","","null","","","","","","","","./tasks/HMM-beads/Images/BlackBeadChoice.png","","","","","","","","","",""
"image-keyboard-response","99","296433","0.0-3.0-4.0-1.0-2.28","637ce608b8f8f923bf784d84","6662009ae78f21dd82fcd179","66620cf0d96dc723aa71696e","null","","null","","","","","","","","./tasks/HMM-beads/Images/BlackBeadChoiceCorrect.png","","","","","","","","","",""
"image-keyboard-response","100","298082","0.0-3.0-4.0-1.0-0.29","637ce608b8f8f923bf784d84","6662009ae78f21dd82fcd179","66620cf0d96dc723aa71696e","1647","","f","","","","","","","","./tasks/HMM-beads/Images/NewTrialBC.png","practice","0","29","1","1","0","0","false","",""
"image-keyboard-response","101","298385","0.0-3.0-4.0-1.0-1.29","637ce608b8f8f923bf784d84","6662009ae78f21dd82fcd179","66620cf0d96dc723aa71696e","null","","null","","","","","","","","./tasks/HMM-beads/Images/BlackBeadChoice.png","","","","","","","","","",""
"image-keyboard-response","102","298916","0.0-3.0-4.0-1.0-2.29","637ce608b8f8f923bf784d84","6662009ae78f21dd82fcd179","66620cf0d96dc723aa71696e","null","","null","","","","","","","","./tasks/HMM-beads/Images/BlackBeadChoiceWrong.png","","","","","","","","","",""
"image-keyboard-response","103","299809","0.0-3.0-4.0-1.0-0.30","637ce608b8f8f923bf784d84","6662009ae78f21dd82fcd179","66620cf0d96dc723aa71696e","889","","j","","","","","","","","./tasks/HMM-beads/Images/NewTrialWC.png","practice","0","30","1","0","1","1","false","",""
"image-keyboard-response","104","300111","0.0-3.0-4.0-1.0-1.30","637ce608b8f8f923bf784d84","6662009ae78f21dd82fcd179","66620cf0d96dc723aa71696e","null","","null","","","","","","","","./tasks/HMM-beads/Images/WhiteBeadChoice.png","","","","","","","","","",""
"image-keyboard-response","105","300612","0.0-3.0-4.0-1.0-2.30","637ce608b8f8f923bf784d84","6662009ae78f21dd82fcd179","66620cf0d96dc723aa71696e","null","","null","","","","","","","","./tasks/HMM-beads/Images/WhiteBeadChoiceWrong.png","","","","","","","","","",""
"image-keyboard-response","106","301446","0.0-3.0-4.0-1.0-0.31","637ce608b8f8f923bf784d84","6662009ae78f21dd82fcd179","66620cf0d96dc723aa71696e","831","","j","","","","","","","","./tasks/HMM-beads/Images/NewTrialBC.png","practice","0","31","1","1","0","1","true","",""
"image-keyboard-response","107","301749","0.0-3.0-4.0-1.0-1.31","637ce608b8f8f923bf784d84","6662009ae78f21dd82fcd179","66620cf0d96dc723aa71696e","null","","null","","","","","","","","./tasks/HMM-beads/Images/WhiteBeadChoice.png","","","","","","","","","",""
"image-keyboard-response","108","302252","0.0-3.0-4.0-1.0-2.31","637ce608b8f8f923bf784d84","6662009ae78f21dd82fcd179","66620cf0d96dc723aa71696e","null","","null","","","","","","","","./tasks/HMM-beads/Images/WhiteBeadChoiceCorrect.png","","","","","","","","","",""
"image-keyboard-response","109","303744","0.0-3.0-4.0-1.0-0.32","637ce608b8f8f923bf784d84","6662009ae78f21dd82fcd179","66620cf0d96dc723aa71696e","1490","","j","","","","","","","","./tasks/HMM-beads/Images/NewTrialWC.png","practice","0","32","1","1","1","1","true","",""
"image-keyboard-response","110","304046","0.0-3.0-4.0-1.0-1.32","637ce608b8f8f923bf784d84","6662009ae78f21dd82fcd179","66620cf0d96dc723aa71696e","null","","null","","","","","","","","./tasks/HMM-beads/Images/WhiteBeadChoice.png","","","","","","","","","",""
"image-keyboard-response","111","304549","0.0-3.0-4.0-1.0-2.32","637ce608b8f8f923bf784d84","6662009ae78f21dd82fcd179","66620cf0d96dc723aa71696e","null","","null","","","","","","","","./tasks/HMM-beads/Images/WhiteBeadChoiceCorrect.png","","","","","","","","","",""
"image-keyboard-response","112","305280","0.0-3.0-4.0-1.0-0.33","637ce608b8f8f923bf784d84","6662009ae78f21dd82fcd179","66620cf0d96dc723aa71696e","729","","j","","","","","","","","./tasks/HMM-beads/Images/NewTrialWC.png","practice","0","33","1","1","1","1","true","",""
"image-keyboard-response","113","305584","0.0-3.0-4.0-1.0-1.33","637ce608b8f8f923bf784d84","6662009ae78f21dd82fcd179","66620cf0d96dc723aa71696e","null","","null","","","","","","","","./tasks/HMM-beads/Images/WhiteBeadChoice.png","","","","","","","","","",""
"image-keyboard-response","114","306087","0.0-3.0-4.0-1.0-2.33","637ce608b8f8f923bf784d84","6662009ae78f21dd82fcd179","66620cf0d96dc723aa71696e","null","","null","","","","","","","","./tasks/HMM-beads/Images/WhiteBeadChoiceCorrect.png","","","","","","","","","",""
"image-keyboard-response","115","306817","0.0-3.0-4.0-1.0-0.34","637ce608b8f8f923bf784d84","6662009ae78f21dd82fcd179","66620cf0d96dc723aa71696e","728","","j","","","","","","","","./tasks/HMM-beads/Images/NewTrialWC.png","practice","0","34","1","1","1","1","true","",""
"image-keyboard-response","116","307119","0.0-3.0-4.0-1.0-1.34","637ce608b8f8f923bf784d84","6662009ae78f21dd82fcd179","66620cf0d96dc723aa71696e","null","","null","","","","","","","","./tasks/HMM-beads/Images/WhiteBeadChoice.png","","","","","","","","","",""
"image-keyboard-response","117","307621","0.0-3.0-4.0-1.0-2.34","637ce608b8f8f923bf784d84","6662009ae78f21dd82fcd179","66620cf0d96dc723aa71696e","null","","null","","","","","","","","./tasks/HMM-beads/Images/WhiteBeadChoiceCorrect.png","","","","","","","","","",""
"image-keyboard-response","118","308703","0.0-3.0-4.0-1.0-0.35","637ce608b8f8f923bf784d84","6662009ae78f21dd82fcd179","66620cf0d96dc723aa71696e","1080","","j","","","","","","","","./tasks/HMM-beads/Images/NewTrialWC.png","practice","0","35","1","1","1","1","true","",""
"image-keyboard-response","119","309005","0.0-3.0-4.0-1.0-1.35","637ce608b8f8f923bf784d84","6662009ae78f21dd82fcd179","66620cf0d96dc723aa71696e","null","","null","","","","","","","","./tasks/HMM-beads/Images/WhiteBeadChoice.png","","","","","","","","","",""
"image-keyboard-response","120","309508","0.0-3.0-4.0-1.0-2.35","637ce608b8f8f923bf784d84","6662009ae78f21dd82fcd179","66620cf0d96dc723aa71696e","null","","null","","","","","","","","./tasks/HMM-beads/Images/WhiteBeadChoiceCorrect.png","","","","","","","","","",""
"image-keyboard-response","121","310209","0.0-3.0-4.0-1.0-0.36","637ce608b8f8f923bf784d84","6662009ae78f21dd82fcd179","66620cf0d96dc723aa71696e","698","","j","","","","","","","","./tasks/HMM-beads/Images/NewTrialWC.png","practice","0","36","1","0","1","1","false","",""
"image-keyboard-response","122","310511","0.0-3.0-4.0-1.0-1.36","637ce608b8f8f923bf784d84","6662009ae78f21dd82fcd179","66620cf0d96dc723aa71696e","null","","null","","","","","","","","./tasks/HMM-beads/Images/WhiteBeadChoice.png","","","","","","","","","",""
"image-keyboard-response","123","311013","0.0-3.0-4.0-1.0-2.36","637ce608b8f8f923bf784d84","6662009ae78f21dd82fcd179","66620cf0d96dc723aa71696e","null","","null","","","","","","","","./tasks/HMM-beads/Images/WhiteBeadChoiceWrong.png","","","","","","","","","",""
"image-keyboard-response","124","312159","0.0-3.0-4.0-1.0-0.37","637ce608b8f8f923bf784d84","6662009ae78f21dd82fcd179","66620cf0d96dc723aa71696e","1142","","f","","","","","","","","./tasks/HMM-beads/Images/NewTrialBC.png","practice","0","37","1","1","0","0","false","",""
"image-keyboard-response","125","312461","0.0-3.0-4.0-1.0-1.37","637ce608b8f8f923bf784d84","6662009ae78f21dd82fcd179","66620cf0d96dc723aa71696e","null","","null","","","","","","","","./tasks/HMM-beads/Images/BlackBeadChoice.png","","","","","","","","","",""
"image-keyboard-response","126","312963","0.0-3.0-4.0-1.0-2.37","637ce608b8f8f923bf784d84","6662009ae78f21dd82fcd179","66620cf0d96dc723aa71696e","null","","null","","","","","","","","./tasks/HMM-beads/Images/BlackBeadChoiceWrong.png","","","","","","","","","",""
"image-keyboard-response","127","314126","0.0-3.0-4.0-1.0-0.38","637ce608b8f8f923bf784d84","6662009ae78f21dd82fcd179","66620cf0d96dc723aa71696e","1160","","f","","","","","","","","./tasks/HMM-beads/Images/NewTrialWC.png","practice","0","38","1","1","1","0","false","",""
"image-keyboard-response","128","314429","0.0-3.0-4.0-1.0-1.38","637ce608b8f8f923bf784d84","6662009ae78f21dd82fcd179","66620cf0d96dc723aa71696e","null","","null","","","","","","","","./tasks/HMM-beads/Images/BlackBeadChoice.png","","","","","","","","","",""
"image-keyboard-response","129","314930","0.0-3.0-4.0-1.0-2.38","637ce608b8f8f923bf784d84","6662009ae78f21dd82fcd179","66620cf0d96dc723aa71696e","null","","null","","","","","","","","./tasks/HMM-beads/Images/BlackBeadChoiceWrong.png","","","","","","","","","",""
"image-keyboard-response","130","315913","0.0-3.0-4.0-1.0-0.39","637ce608b8f8f923bf784d84","6662009ae78f21dd82fcd179","66620cf0d96dc723aa71696e","981","","j","","","","","","","","./tasks/HMM-beads/Images/NewTrialWC.png","practice","0","39","1","1","1","1","true","",""
"image-keyboard-response","131","316215","0.0-3.0-4.0-1.0-1.39","637ce608b8f8f923bf784d84","6662009ae78f21dd82fcd179","66620cf0d96dc723aa71696e","null","","null","","","","","","","","./tasks/HMM-beads/Images/WhiteBeadChoice.png","","","","","","","","","",""
"image-keyboard-response","132","316717","0.0-3.0-4.0-1.0-2.39","637ce608b8f8f923bf784d84","6662009ae78f21dd82fcd179","66620cf0d96dc723aa71696e","null","","null","","","","","","","","./tasks/HMM-beads/Images/WhiteBeadChoiceCorrect.png","","","","","","","","","",""
"html-keyboard-response","133","321928","0.0-3.0-4.0-2.0","637ce608b8f8f923bf784d84","6662009ae78f21dd82fcd179","66620cf0d96dc723aa71696e","5208",""," ","","","","","","","","","","","","","","","","","",""
"instructions","134","344879","0.0-3.0-5.0","637ce608b8f8f923bf784d84","6662009ae78f21dd82fcd179","66620cf0d96dc723aa71696e","22948","","","","[{""page_index"":0,""viewing_time"":16433},{""page_index"":1,""viewing_time"":6514}]","","","","","","","","","","","","","","","",""
"html-keyboard-response","135","356330","0.0-3.0-6.0-0.0","637ce608b8f8f923bf784d84","6662009ae78f21dd82fcd179","66620cf0d96dc723aa71696e","11448",""," ","","","","","","","","<div align=center>In this block, there will be a <b>1% chance</b> that the jar on the next trial will be different from the jar on the current trial.<br><br></div>","","","","","","","","","",""
"image-keyboard-response","136","358248","0.0-3.0-6.0-1.0-0.0","637ce608b8f8f923bf784d84","6662009ae78f21dd82fcd179","66620cf0d96dc723aa71696e","1917","","f","","","","","","","","./tasks/HMM-beads/Images/NoChoice.png","lowH","1","0","1","0","9","0","true","",""
"image-keyboard-response","137","358550","0.0-3.0-6.0-1.0-1.0","637ce608b8f8f923bf784d84","6662009ae78f21dd82fcd179","66620cf0d96dc723aa71696e","null","","null","","","","","","","","./tasks/HMM-beads/Images/BlackBeadChoice.png","","","","","","","","","",""
"image-keyboard-response","138","359052","0.0-3.0-6.0-1.0-2.0","637ce608b8f8f923bf784d84","6662009ae78f21dd82fcd179","66620cf0d96dc723aa71696e","null","","null","","","","","","","","./tasks/HMM-beads/Images/BlackBeadChoiceCorrect.png","","","","","","","","","",""
"image-keyboard-response","139","359989","0.0-3.0-6.0-1.0-0.1","637ce608b8f8f923bf784d84","6662009ae78f21dd82fcd179","66620cf0d96dc723aa71696e","935","","f","","","","","","","","./tasks/HMM-beads/Images/NewTrialBC.png","lowH","1","1","1","1","0","0","false","",""
"image-keyboard-response","140","360292","0.0-3.0-6.0-1.0-1.1","637ce608b8f8f923bf784d84","6662009ae78f21dd82fcd179","66620cf0d96dc723aa71696e","null","","null","","","","","","","","./tasks/HMM-beads/Images/BlackBeadChoice.png","","","","","","","","","",""
"image-keyboard-response","141","360795","0.0-3.0-6.0-1.0-2.1","637ce608b8f8f923bf784d84","6662009ae78f21dd82fcd179","66620cf0d96dc723aa71696e","null","","null","","","","","","","","./tasks/HMM-beads/Images/BlackBeadChoiceWrong.png","","","","","","","","","",""
"image-keyboard-response","142","362385","0.0-3.0-6.0-1.0-0.2","637ce608b8f8f923bf784d84","6662009ae78f21dd82fcd179","66620cf0d96dc723aa71696e","1587","","f","","","","","","","","./tasks/HMM-beads/Images/NewTrialWC.png","lowH","1","2","1","1","1","0","false","",""
"image-keyboard-response","143","362687","0.0-3.0-6.0-1.0-1.2","637ce608b8f8f923bf784d84","6662009ae78f21dd82fcd179","66620cf0d96dc723aa71696e","null","","null","","","","","","","","./tasks/HMM-beads/Images/BlackBeadChoice.png","","","","","","","","","",""
"image-keyboard-response","144","363189","0.0-3.0-6.0-1.0-2.2","637ce608b8f8f923bf784d84","6662009ae78f21dd82fcd179","66620cf0d96dc723aa71696e","null","","null","","","","","","","","./tasks/HMM-beads/Images/BlackBeadChoiceWrong.png","","","","","","","","","",""
"image-keyboard-response","145","364455","0.0-3.0-6.0-1.0-0.3","637ce608b8f8f923bf784d84","6662009ae78f21dd82fcd179","66620cf0d96dc723aa71696e","1265","","j","","","","","","","","./tasks/HMM-beads/Images/NewTrialWC.png","lowH","1","3","1","1","1","1","true","",""
"image-keyboard-response","146","364757","0.0-3.0-6.0-1.0-1.3","637ce608b8f8f923bf784d84","6662009ae78f21dd82fcd179","66620cf0d96dc723aa71696e","null","","null","","","","","","","","./tasks/HMM-beads/Images/WhiteBeadChoice.png","","","","","","","","","",""
"image-keyboard-response","147","365259","0.0-3.0-6.0-1.0-2.3","637ce608b8f8f923bf784d84","6662009ae78f21dd82fcd179","66620cf0d96dc723aa71696e","null","","null","","","","","","","","./tasks/HMM-beads/Images/WhiteBeadChoiceCorrect.png","","","","","","","","","",""
"image-keyboard-response","148","366233","0.0-3.0-6.0-1.0-0.4","637ce608b8f8f923bf784d84","6662009ae78f21dd82fcd179","66620cf0d96dc723aa71696e","972","","j","","","","","","","","./tasks/HMM-beads/Images/NewTrialWC.png","lowH","1","4","1","1","1","1","true","",""
"image-keyboard-response","149","366536","0.0-3.0-6.0-1.0-1.4","637ce608b8f8f923bf784d84","6662009ae78f21dd82fcd179","66620cf0d96dc723aa71696e","null","","null","","","","","","","","./tasks/HMM-beads/Images/WhiteBeadChoice.png","","","","","","","","","",""
"image-keyboard-response","150","367038","0.0-3.0-6.0-1.0-2.4","637ce608b8f8f923bf784d84","6662009ae78f21dd82fcd179","66620cf0d96dc723aa71696e","null","","null","","","","","","","","./tasks/HMM-beads/Images/WhiteBeadChoiceCorrect.png","","","","","","","","","",""
"image-keyboard-response","151","367884","0.0-3.0-6.0-1.0-0.5","637ce608b8f8f923bf784d84","6662009ae78f21dd82fcd179","66620cf0d96dc723aa71696e","843","","j","","","","","","","","./tasks/HMM-beads/Images/NewTrialWC.png","lowH","1","5","1","1","1","1","true","",""
"image-keyboard-response","152","368187","0.0-3.0-6.0-1.0-1.5","637ce608b8f8f923bf784d84","6662009ae78f21dd82fcd179","66620cf0d96dc723aa71696e","null","","null","","","","","","","","./tasks/HMM-beads/Images/WhiteBeadChoice.png","","","","","","","","","",""
"image-keyboard-response","153","368690","0.0-3.0-6.0-1.0-2.5","637ce608b8f8f923bf784d84","6662009ae78f21dd82fcd179","66620cf0d96dc723aa71696e","null","","null","","","","","","","","./tasks/HMM-beads/Images/WhiteBeadChoiceCorrect.png","","","","","","","","","",""
"image-keyboard-response","154","369441","0.0-3.0-6.0-1.0-0.6","637ce608b8f8f923bf784d84","6662009ae78f21dd82fcd179","66620cf0d96dc723aa71696e","749","","f","","","","","","","","./tasks/HMM-beads/Images/NewTrialWC.png","lowH","1","6","1","0","1","0","true","",""
"image-keyboard-response","155","369743","0.0-3.0-6.0-1.0-1.6","637ce608b8f8f923bf784d84","6662009ae78f21dd82fcd179","66620cf0d96dc723aa71696e","null","","null","","","","","","","","./tasks/HMM-beads/Images/BlackBeadChoice.png","","","","","","","","","",""
"image-keyboard-response","156","370245","0.0-3.0-6.0-1.0-2.6","637ce608b8f8f923bf784d84","6662009ae78f21dd82fcd179","66620cf0d96dc723aa71696e","null","","null","","","","","","","","./tasks/HMM-beads/Images/BlackBeadChoiceCorrect.png","","","","","","","","","",""
"image-keyboard-response","157","371608","0.0-3.0-6.0-1.0-0.7","637ce608b8f8f923bf784d84","6662009ae78f21dd82fcd179","66620cf0d96dc723aa71696e","1361","","f","","","","","","","","./tasks/HMM-beads/Images/NewTrialBC.png","lowH","1","7","1","1","0","0","false","",""
"image-keyboard-response","158","371910","0.0-3.0-6.0-1.0-1.7","637ce608b8f8f923bf784d84","6662009ae78f21dd82fcd179","66620cf0d96dc723aa71696e","null","","null","","","","","","","","./tasks/HMM-beads/Images/BlackBeadChoice.png","","","","","","","","","",""
"image-keyboard-response","159","372412","0.0-3.0-6.0-1.0-2.7","637ce608b8f8f923bf784d84","6662009ae78f21dd82fcd179","66620cf0d96dc723aa71696e","null","","null","","","","","","","","./tasks/HMM-beads/Images/BlackBeadChoiceWrong.png","","","","","","","","","",""
"image-keyboard-response","160","373458","0.0-3.0-6.0-1.0-0.8","637ce608b8f8f923bf784d84","6662009ae78f21dd82fcd179","66620cf0d96dc723aa71696e","1044","","j","","","","","","","","./tasks/HMM-beads/Images/NewTrialWC.png","lowH","1","8","1","1","1","1","true","",""
"image-keyboard-response","161","373759","0.0-3.0-6.0-1.0-1.8","637ce608b8f8f923bf784d84","6662009ae78f21dd82fcd179","66620cf0d96dc723aa71696e","null","","null","","","","","","","","./tasks/HMM-beads/Images/WhiteBeadChoice.png","","","","","","","","","",""
"image-keyboard-response","162","374261","0.0-3.0-6.0-1.0-2.8","637ce608b8f8f923bf784d84","6662009ae78f21dd82fcd179","66620cf0d96dc723aa71696e","null","","null","","","","","","","","./tasks/HMM-beads/Images/WhiteBeadChoiceCorrect.png","","","","","","","","","",""
"image-keyboard-response","163","375139","0.0-3.0-6.0-1.0-0.9","637ce608b8f8f923bf784d84","6662009ae78f21dd82fcd179","66620cf0d96dc723aa71696e","876","","j","","","","","","","","./tasks/HMM-beads/Images/NewTrialWC.png","lowH","1","9","1","1","1","1","true","",""
"image-keyboard-response","164","375441","0.0-3.0-6.0-1.0-1.9","637ce608b8f8f923bf784d84","6662009ae78f21dd82fcd179","66620cf0d96dc723aa71696e","null","","null","","","","","","","","./tasks/HMM-beads/Images/WhiteBeadChoice.png","","","","","","","","","",""
"image-keyboard-response","165","375944","0.0-3.0-6.0-1.0-2.9","637ce608b8f8f923bf784d84","6662009ae78f21dd82fcd179","66620cf0d96dc723aa71696e","null","","null","","","","","","","","./tasks/HMM-beads/Images/WhiteBeadChoiceCorrect.png","","","","","","","","","",""
"image-keyboard-response","166","376814","0.0-3.0-6.0-1.0-0.10","637ce608b8f8f923bf784d84","6662009ae78f21dd82fcd179","66620cf0d96dc723aa71696e","867","","j","","","","","","","","./tasks/HMM-beads/Images/NewTrialWC.png","lowH","1","10","1","1","1","1","true","",""
"image-keyboard-response","167","377117","0.0-3.0-6.0-1.0-1.10","637ce608b8f8f923bf784d84","6662009ae78f21dd82fcd179","66620cf0d96dc723aa71696e","null","","null","","","","","","","","./tasks/HMM-beads/Images/WhiteBeadChoice.png","","","","","","","","","",""
"image-keyboard-response","168","377620","0.0-3.0-6.0-1.0-2.10","637ce608b8f8f923bf784d84","6662009ae78f21dd82fcd179","66620cf0d96dc723aa71696e","null","","null","","","","","","","","./tasks/HMM-beads/Images/WhiteBeadChoiceCorrect.png","","","","","","","","","",""
"image-keyboard-response","169","378819","0.0-3.0-6.0-1.0-0.11","637ce608b8f8f923bf784d84","6662009ae78f21dd82fcd179","66620cf0d96dc723aa71696e","1196","","j","","","","","","","","./tasks/HMM-beads/Images/NewTrialWC.png","lowH","1","11","1","1","1","1","true","",""
"image-keyboard-response","170","379120","0.0-3.0-6.0-1.0-1.11","637ce608b8f8f923bf784d84","6662009ae78f21dd82fcd179","66620cf0d96dc723aa71696e","null","","null","","","","","","","","./tasks/HMM-beads/Images/WhiteBeadChoice.png","","","","","","","","","",""
"image-keyboard-response","171","379621","0.0-3.0-6.0-1.0-2.11","637ce608b8f8f923bf784d84","6662009ae78f21dd82fcd179","66620cf0d96dc723aa71696e","null","","null","","","","","","","","./tasks/HMM-beads/Images/WhiteBeadChoiceCorrect.png","","","","","","","","","",""
"image-keyboard-response","172","380308","0.0-3.0-6.0-1.0-0.12","637ce608b8f8f923bf784d84","6662009ae78f21dd82fcd179","66620cf0d96dc723aa71696e","684","","f","","","","","","","","./tasks/HMM-beads/Images/NewTrialWC.png","lowH","1","12","1","1","1","0","false","",""
"image-keyboard-response","173","380609","0.0-3.0-6.0-1.0-1.12","637ce608b8f8f923bf784d84","6662009ae78f21dd82fcd179","66620cf0d96dc723aa71696e","null","","null","","","","","","","","./tasks/HMM-beads/Images/BlackBeadChoice.png","","","","","","","","","",""
"image-keyboard-response","174","381111","0.0-3.0-6.0-1.0-2.12","637ce608b8f8f923bf784d84","6662009ae78f21dd82fcd179","66620cf0d96dc723aa71696e","null","","null","","","","","","","","./tasks/HMM-beads/Images/BlackBeadChoiceWrong.png","","","","","","","","","",""
"image-keyboard-response","175","381780","0.0-3.0-6.0-1.0-0.13","637ce608b8f8f923bf784d84","6662009ae78f21dd82fcd179","66620cf0d96dc723aa71696e","666","","f","","","","","","","","./tasks/HMM-beads/Images/NewTrialWC.png","lowH","1","13","1","0","1","0","true","",""
"image-keyboard-response","176","382083","0.0-3.0-6.0-1.0-1.13","637ce608b8f8f923bf784d84","6662009ae78f21dd82fcd179","66620cf0d96dc723aa71696e","null","","null","","","","","","","","./tasks/HMM-beads/Images/BlackBeadChoice.png","","","","","","","","","",""
"image-keyboard-response","177","382585","0.0-3.0-6.0-1.0-2.13","637ce608b8f8f923bf784d84","6662009ae78f21dd82fcd179","66620cf0d96dc723aa71696e","null","","null","","","","","","","","./tasks/HMM-beads/Images/BlackBeadChoiceCorrect.png","","","","","","","","","",""
"image-keyboard-response","178","383626","0.0-3.0-6.0-1.0-0.14","637ce608b8f8f923bf784d84","6662009ae78f21dd82fcd179","66620cf0d96dc723aa71696e","1038","","f","","","","","","","","./tasks/HMM-beads/Images/NewTrialBC.png","lowH","1","14","1","0","0","0","true","",""
"image-keyboard-response","179","383928","0.0-3.0-6.0-1.0-1.14","637ce608b8f8f923bf784d84","6662009ae78f21dd82fcd179","66620cf0d96dc723aa71696e","null","","null","","","","","","","","./tasks/HMM-beads/Images/BlackBeadChoice.png","","","","","","","","","",""
"image-keyboard-response","180","384432","0.0-3.0-6.0-1.0-2.14","637ce608b8f8f923bf784d84","6662009ae78f21dd82fcd179","66620cf0d96dc723aa71696e","null","","null","","","","","","","","./tasks/HMM-beads/Images/BlackBeadChoiceCorrect.png","","","","","","","","","",""
"image-keyboard-response","181","385124","0.0-3.0-6.0-1.0-0.15","637ce608b8f8f923bf784d84","6662009ae78f21dd82fcd179","66620cf0d96dc723aa71696e","690","","f","","","","","","","","./tasks/HMM-beads/Images/NewTrialBC.png","lowH","1","15","1","1","0","0","false","",""
"image-keyboard-response","182","385427","0.0-3.0-6.0-1.0-1.15","637ce608b8f8f923bf784d84","6662009ae78f21dd82fcd179","66620cf0d96dc723aa71696e","null","","null","","","","","","","","./tasks/HMM-beads/Images/BlackBeadChoice.png","","","","","","","","","",""
"image-keyboard-response","183","385930","0.0-3.0-6.0-1.0-2.15","637ce608b8f8f923bf784d84","6662009ae78f21dd82fcd179","66620cf0d96dc723aa71696e","null","","null","","","","","","","","./tasks/HMM-beads/Images/BlackBeadChoiceWrong.png","","","","","","","","","",""
"image-keyboard-response","184","386544","0.0-3.0-6.0-1.0-0.16","637ce608b8f8f923bf784d84","6662009ae78f21dd82fcd179","66620cf0d96dc723aa71696e","612","","j","","","","","","","","./tasks/HMM-beads/Images/NewTrialWC.png","lowH","1","16","1","1","1","1","true","",""
"image-keyboard-response","185","386845","0.0-3.0-6.0-1.0-1.16","637ce608b8f8f923bf784d84","6662009ae78f21dd82fcd179","66620cf0d96dc723aa71696e","null","","null","","","","","","","","./tasks/HMM-beads/Images/WhiteBeadChoice.png","","","","","","","","","",""
"image-keyboard-response","186","387347","0.0-3.0-6.0-1.0-2.16","637ce608b8f8f923bf784d84","6662009ae78f21dd82fcd179","66620cf0d96dc723aa71696e","null","","null","","","","","","","","./tasks/HMM-beads/Images/WhiteBeadChoiceCorrect.png","","","","","","","","","",""
"image-keyboard-response","187","387827","0.0-3.0-6.0-1.0-0.17","637ce608b8f8f923bf784d84","6662009ae78f21dd82fcd179","66620cf0d96dc723aa71696e","476","","j","","","","","","","","./tasks/HMM-beads/Images/NewTrialWC.png","lowH","1","17","1","1","1","1","true","",""
"image-keyboard-response","188","388129","0.0-3.0-6.0-1.0-1.17","637ce608b8f8f923bf784d84","6662009ae78f21dd82fcd179","66620cf0d96dc723aa71696e","null","","null","","","","","","","","./tasks/HMM-beads/Images/WhiteBeadChoice.png","","","","","","","","","",""
"image-keyboard-response","189","388631","0.0-3.0-6.0-1.0-2.17","637ce608b8f8f923bf784d84","6662009ae78f21dd82fcd179","66620cf0d96dc723aa71696e","null","","null","","","","","","","","./tasks/HMM-beads/Images/WhiteBeadChoiceCorrect.png","","","","","","","","","",""
"image-keyboard-response","190","389072","0.0-3.0-6.0-1.0-0.18","637ce608b8f8f923bf784d84","6662009ae78f21dd82fcd179","66620cf0d96dc723aa71696e","439","","j","","","","","","","","./tasks/HMM-beads/Images/NewTrialWC.png","lowH","1","18","1","1","1","1","true","",""
"image-keyboard-response","191","389375","0.0-3.0-6.0-1.0-1.18","637ce608b8f8f923bf784d84","6662009ae78f21dd82fcd179","66620cf0d96dc723aa71696e","null","","null","","","","","","","","./tasks/HMM-beads/Images/WhiteBeadChoice.png","","","","","","","","","",""
"image-keyboard-response","192","389877","0.0-3.0-6.0-1.0-2.18","637ce608b8f8f923bf784d84","6662009ae78f21dd82fcd179","66620cf0d96dc723aa71696e","null","","null","","","","","","","","./tasks/HMM-beads/Images/WhiteBeadChoiceCorrect.png","","","","","","","","","",""
"image-keyboard-response","193","389977","0.0-3.0-6.0-1.0-0.19","637ce608b8f8f923bf784d84","6662009ae78f21dd82fcd179","66620cf0d96dc723aa71696e","97","","j","","","","","","","","./tasks/HMM-beads/Images/NewTrialWC.png","lowH","1","19","1","1","1","1","true","",""
"image-keyboard-response","194","390280","0.0-3.0-6.0-1.0-1.19","637ce608b8f8f923bf784d84","6662009ae78f21dd82fcd179","66620cf0d96dc723aa71696e","null","","null","","","","","","","","./tasks/HMM-beads/Images/WhiteBeadChoice.png","","","","","","","","","",""
"image-keyboard-response","195","390806","0.0-3.0-6.0-1.0-2.19","637ce608b8f8f923bf784d84","6662009ae78f21dd82fcd179","66620cf0d96dc723aa71696e","null","","null","","","","","","","","./tasks/HMM-beads/Images/WhiteBeadChoiceCorrect.png","","","","","","","","","",""
"image-keyboard-response","196","391614","0.0-3.0-6.0-1.0-0.20","637ce608b8f8f923bf784d84","6662009ae78f21dd82fcd179","66620cf0d96dc723aa71696e","807","","j","","","","","","","","./tasks/HMM-beads/Images/NewTrialWC.png","lowH","1","20","1","1","1","1","true","",""
"image-keyboard-response","197","391917","0.0-3.0-6.0-1.0-1.20","637ce608b8f8f923bf784d84","6662009ae78f21dd82fcd179","66620cf0d96dc723aa71696e","null","","null","","","","","","","","./tasks/HMM-beads/Images/WhiteBeadChoice.png","","","","","","","","","",""
"image-keyboard-response","198","392421","0.0-3.0-6.0-1.0-2.20","637ce608b8f8f923bf784d84","6662009ae78f21dd82fcd179","66620cf0d96dc723aa71696e","null","","null","","","","","","","","./tasks/HMM-beads/Images/WhiteBeadChoiceCorrect.png","","","","","","","","","",""
"image-keyboard-response","199","392444","0.0-3.0-6.0-1.0-0.21","637ce608b8f8f923bf784d84","6662009ae78f21dd82fcd179","66620cf0d96dc723aa71696e","21","","j","","","","","","","","./tasks/HMM-beads/Images/NewTrialWC.png","lowH","1","21","1","1","1","1","true","",""
"image-keyboard-response","200","392746","0.0-3.0-6.0-1.0-1.21","637ce608b8f8f923bf784d84","6662009ae78f21dd82fcd179","66620cf0d96dc723aa71696e","null","","null","","","","","","","","./tasks/HMM-beads/Images/WhiteBeadChoice.png","","","","","","","","","",""
"image-keyboard-response","201","393249","0.0-3.0-6.0-1.0-2.21","637ce608b8f8f923bf784d84","6662009ae78f21dd82fcd179","66620cf0d96dc723aa71696e","null","","null","","","","","","","","./tasks/HMM-beads/Images/WhiteBeadChoiceCorrect.png","","","","","","","","","",""
"image-keyboard-response","202","394063","0.0-3.0-6.0-1.0-0.22","637ce608b8f8f923bf784d84","6662009ae78f21dd82fcd179","66620cf0d96dc723aa71696e","811","","j","","","","","","","","./tasks/HMM-beads/Images/NewTrialWC.png","lowH","1","22","1","1","1","1","true","",""
"image-keyboard-response","203","394365","0.0-3.0-6.0-1.0-1.22","637ce608b8f8f923bf784d84","6662009ae78f21dd82fcd179","66620cf0d96dc723aa71696e","null","","null","","","","","","","","./tasks/HMM-beads/Images/WhiteBeadChoice.png","","","","","","","","","",""
"image-keyboard-response","204","394868","0.0-3.0-6.0-1.0-2.22","637ce608b8f8f923bf784d84","6662009ae78f21dd82fcd179","66620cf0d96dc723aa71696e","null","","null","","","","","","","","./tasks/HMM-beads/Images/WhiteBeadChoiceCorrect.png","","","","","","","","","",""
"image-keyboard-response","205","394893","0.0-3.0-6.0-1.0-0.23","637ce608b8f8f923bf784d84","6662009ae78f21dd82fcd179","66620cf0d96dc723aa71696e","23","","j","","","","","","","","./tasks/HMM-beads/Images/NewTrialWC.png","lowH","1","23","1","1","1","1","true","",""
"image-keyboard-response","206","395195","0.0-3.0-6.0-1.0-1.23","637ce608b8f8f923bf784d84","6662009ae78f21dd82fcd179","66620cf0d96dc723aa71696e","null","","null","","","","","","","","./tasks/HMM-beads/Images/WhiteBeadChoice.png","","","","","","","","","",""
"image-keyboard-response","207","395698","0.0-3.0-6.0-1.0-2.23","637ce608b8f8f923bf784d84","6662009ae78f21dd82fcd179","66620cf0d96dc723aa71696e","null","","null","","","","","","","","./tasks/HMM-beads/Images/WhiteBeadChoiceCorrect.png","","","","","","","","","",""
"image-keyboard-response","208","396286","0.0-3.0-6.0-1.0-0.24","637ce608b8f8f923bf784d84","6662009ae78f21dd82fcd179","66620cf0d96dc723aa71696e","585","","j","","","","","","","","./tasks/HMM-beads/Images/NewTrialWC.png","lowH","1","24","1","0","1","1","false","",""
"image-keyboard-response","209","396588","0.0-3.0-6.0-1.0-1.24","637ce608b8f8f923bf784d84","6662009ae78f21dd82fcd179","66620cf0d96dc723aa71696e","null","","null","","","","","","","","./tasks/HMM-beads/Images/WhiteBeadChoice.png","","","","","","","","","",""
"image-keyboard-response","210","397091","0.0-3.0-6.0-1.0-2.24","637ce608b8f8f923bf784d84","6662009ae78f21dd82fcd179","66620cf0d96dc723aa71696e","null","","null","","","","","","","","./tasks/HMM-beads/Images/WhiteBeadChoiceWrong.png","","","","","","","","","",""
"image-keyboard-response","211","397654","0.0-3.0-6.0-1.0-0.25","637ce608b8f8f923bf784d84","6662009ae78f21dd82fcd179","66620cf0d96dc723aa71696e","561","","f","","","","","","","","./tasks/HMM-beads/Images/NewTrialBC.png","lowH","1","25","1","1","0","0","false","",""
"image-keyboard-response","212","397956","0.0-3.0-6.0-1.0-1.25","637ce608b8f8f923bf784d84","6662009ae78f21dd82fcd179","66620cf0d96dc723aa71696e","null","","null","","","","","","","","./tasks/HMM-beads/Images/BlackBeadChoice.png","","","","","","","","","",""
"image-keyboard-response","213","398458","0.0-3.0-6.0-1.0-2.25","637ce608b8f8f923bf784d84","6662009ae78f21dd82fcd179","66620cf0d96dc723aa71696e","null","","null","","","","","","","","./tasks/HMM-beads/Images/BlackBeadChoiceWrong.png","","","","","","","","","",""
"image-keyboard-response","214","398665","0.0-3.0-6.0-1.0-0.26","637ce608b8f8f923bf784d84","6662009ae78f21dd82fcd179","66620cf0d96dc723aa71696e","204","","j","","","","","","","","./tasks/HMM-beads/Images/NewTrialWC.png","lowH","1","26","1","0","1","1","false","",""
"image-keyboard-response","215","398968","0.0-3.0-6.0-1.0-1.26","637ce608b8f8f923bf784d84","6662009ae78f21dd82fcd179","66620cf0d96dc723aa71696e","null","","null","","","","","","","","./tasks/HMM-beads/Images/WhiteBeadChoice.png","","","","","","","","","",""
"image-keyboard-response","216","399471","0.0-3.0-6.0-1.0-2.26","637ce608b8f8f923bf784d84","6662009ae78f21dd82fcd179","66620cf0d96dc723aa71696e","null","","null","","","","","","","","./tasks/HMM-beads/Images/WhiteBeadChoiceWrong.png","","","","","","","","","",""
"image-keyboard-response","217","399522","0.0-3.0-6.0-1.0-0.27","637ce608b8f8f923bf784d84","6662009ae78f21dd82fcd179","66620cf0d96dc723aa71696e","48","","f","","","","","","","","./tasks/HMM-beads/Images/NewTrialBC.png","lowH","1","27","1","1","0","0","false","",""
"image-keyboard-response","218","399825","0.0-3.0-6.0-1.0-1.27","637ce608b8f8f923bf784d84","6662009ae78f21dd82fcd179","66620cf0d96dc723aa71696e","null","","null","","","","","","","","./tasks/HMM-beads/Images/BlackBeadChoice.png","","","","","","","","","",""
"image-keyboard-response","219","400328","0.0-3.0-6.0-1.0-2.27","637ce608b8f8f923bf784d84","6662009ae78f21dd82fcd179","66620cf0d96dc723aa71696e","null","","null","","","","","","","","./tasks/HMM-beads/Images/BlackBeadChoiceWrong.png","","","","","","","","","",""
"image-keyboard-response","220","400335","0.0-3.0-6.0-1.0-0.28","637ce608b8f8f923bf784d84","6662009ae78f21dd82fcd179","66620cf0d96dc723aa71696e","4","","f","","","","","","","","./tasks/HMM-beads/Images/NewTrialWC.png","lowH","1","28","1","1","1","0","false","",""
"image-keyboard-response","221","400642","0.0-3.0-6.0-1.0-1.28","637ce608b8f8f923bf784d84","6662009ae78f21dd82fcd179","66620cf0d96dc723aa71696e","null","","null","","","","","","","","./tasks/HMM-beads/Images/BlackBeadChoice.png","","","","","","","","","",""
"image-keyboard-response","222","401144","0.0-3.0-6.0-1.0-2.28","637ce608b8f8f923bf784d84","6662009ae78f21dd82fcd179","66620cf0d96dc723aa71696e","null","","null","","","","","","","","./tasks/HMM-beads/Images/BlackBeadChoiceWrong.png","","","","","","","","","",""
"image-keyboard-response","223","401719","0.0-3.0-6.0-1.0-0.29","637ce608b8f8f923bf784d84","6662009ae78f21dd82fcd179","66620cf0d96dc723aa71696e","573","","j","","","","","","","","./tasks/HMM-beads/Images/NewTrialWC.png","lowH","1","29","1","1","1","1","true","",""
"image-keyboard-response","224","402021","0.0-3.0-6.0-1.0-1.29","637ce608b8f8f923bf784d84","6662009ae78f21dd82fcd179","66620cf0d96dc723aa71696e","null","","null","","","","","","","","./tasks/HMM-beads/Images/WhiteBeadChoice.png","","","","","","","","","",""
"image-keyboard-response","225","402523","0.0-3.0-6.0-1.0-2.29","637ce608b8f8f923bf784d84","6662009ae78f21dd82fcd179","66620cf0d96dc723aa71696e","null","","null","","","","","","","","./tasks/HMM-beads/Images/WhiteBeadChoiceCorrect.png","","","","","","","","","",""
"image-keyboard-response","226","403336","0.0-3.0-6.0-1.0-0.30","637ce608b8f8f923bf784d84","6662009ae78f21dd82fcd179","66620cf0d96dc723aa71696e","810","","j","","","","","","","","./tasks/HMM-beads/Images/NewTrialWC.png","lowH","1","30","1","1","1","1","true","",""
"image-keyboard-response","227","403638","0.0-3.0-6.0-1.0-1.30","637ce608b8f8f923bf784d84","6662009ae78f21dd82fcd179","66620cf0d96dc723aa71696e","null","","null","","","","","","","","./tasks/HMM-beads/Images/WhiteBeadChoice.png","","","","","","","","","",""
"image-keyboard-response","228","404141","0.0-3.0-6.0-1.0-2.30","637ce608b8f8f923bf784d84","6662009ae78f21dd82fcd179","66620cf0d96dc723aa71696e","null","","null","","","","","","","","./tasks/HMM-beads/Images/WhiteBeadChoiceCorrect.png","","","","","","","","","",""
"image-keyboard-response","229","404646","0.0-3.0-6.0-1.0-0.31","637ce608b8f8f923bf784d84","6662009ae78f21dd82fcd179","66620cf0d96dc723aa71696e","502","","j","","","","","","","","./tasks/HMM-beads/Images/NewTrialWC.png","lowH","1","31","1","1","1","1","true","",""
"image-keyboard-response","230","404949","0.0-3.0-6.0-1.0-1.31","637ce608b8f8f923bf784d84","6662009ae78f21dd82fcd179","66620cf0d96dc723aa71696e","null","","null","","","","","","","","./tasks/HMM-beads/Images/WhiteBeadChoice.png","","","","","","","","","",""
"image-keyboard-response","231","405452","0.0-3.0-6.0-1.0-2.31","637ce608b8f8f923bf784d84","6662009ae78f21dd82fcd179","66620cf0d96dc723aa71696e","null","","null","","","","","","","","./tasks/HMM-beads/Images/WhiteBeadChoiceCorrect.png","","","","","","","","","",""
"image-keyboard-response","232","406123","0.0-3.0-6.0-1.0-0.32","637ce608b8f8f923bf784d84","6662009ae78f21dd82fcd179","66620cf0d96dc723aa71696e","669","","j","","","","","","","","./tasks/HMM-beads/Images/NewTrialWC.png","lowH","1","32","1","1","1","1","true","",""
"image-keyboard-response","233","406425","0.0-3.0-6.0-1.0-1.32","637ce608b8f8f923bf784d84","6662009ae78f21dd82fcd179","66620cf0d96dc723aa71696e","null","","null","","","","","","","","./tasks/HMM-beads/Images/WhiteBeadChoice.png","","","","","","","","","",""
"image-keyboard-response","234","406950","0.0-3.0-6.0-1.0-2.32","637ce608b8f8f923bf784d84","6662009ae78f21dd82fcd179","66620cf0d96dc723aa71696e","null","","null","","","","","","","","./tasks/HMM-beads/Images/WhiteBeadChoiceCorrect.png","","","","","","","","","",""
"image-keyboard-response","235","407562","0.0-3.0-6.0-1.0-0.33","637ce608b8f8f923bf784d84","6662009ae78f21dd82fcd179","66620cf0d96dc723aa71696e","610","","j","","","","","","","","./tasks/HMM-beads/Images/NewTrialWC.png","lowH","1","33","1","1","1","1","true","",""
"image-keyboard-response","236","407864","0.0-3.0-6.0-1.0-1.33","637ce608b8f8f923bf784d84","6662009ae78f21dd82fcd179","66620cf0d96dc723aa71696e","null","","null","","","","","","","","./tasks/HMM-beads/Images/WhiteBeadChoice.png","","","","","","","","","",""
"image-keyboard-response","237","408366","0.0-3.0-6.0-1.0-2.33","637ce608b8f8f923bf784d84","6662009ae78f21dd82fcd179","66620cf0d96dc723aa71696e","null","","null","","","","","","","","./tasks/HMM-beads/Images/WhiteBeadChoiceCorrect.png","","","","","","","","","",""
"image-keyboard-response","238","408932","0.0-3.0-6.0-1.0-0.34","637ce608b8f8f923bf784d84","6662009ae78f21dd82fcd179","66620cf0d96dc723aa71696e","563","","j","","","","","","","","./tasks/HMM-beads/Images/NewTrialWC.png","lowH","1","34","1","1","1","1","true","",""
"image-keyboard-response","239","409235","0.0-3.0-6.0-1.0-1.34","637ce608b8f8f923bf784d84","6662009ae78f21dd82fcd179","66620cf0d96dc723aa71696e","null","","null","","","","","","","","./tasks/HMM-beads/Images/WhiteBeadChoice.png","","","","","","","","","",""
"image-keyboard-response","240","409738","0.0-3.0-6.0-1.0-2.34","637ce608b8f8f923bf784d84","6662009ae78f21dd82fcd179","66620cf0d96dc723aa71696e","null","","null","","","","","","","","./tasks/HMM-beads/Images/WhiteBeadChoiceCorrect.png","","","","","","","","","",""
"image-keyboard-response","241","410274","0.0-3.0-6.0-1.0-0.35","637ce608b8f8f923bf784d84","6662009ae78f21dd82fcd179","66620cf0d96dc723aa71696e","532","","j","","","","","","","","./tasks/HMM-beads/Images/NewTrialWC.png","lowH","1","35","1","1","1","1","true","",""
"image-keyboard-response","242","410577","0.0-3.0-6.0-1.0-1.35","637ce608b8f8f923bf784d84","6662009ae78f21dd82fcd179","66620cf0d96dc723aa71696e","null","","null","","","","","","","","./tasks/HMM-beads/Images/WhiteBeadChoice.png","","","","","","","","","",""
"image-keyboard-response","243","411079","0.0-3.0-6.0-1.0-2.35","637ce608b8f8f923bf784d84","6662009ae78f21dd82fcd179","66620cf0d96dc723aa71696e","null","","null","","","","","","","","./tasks/HMM-beads/Images/WhiteBeadChoiceCorrect.png","","","","","","","","","",""
"image-keyboard-response","244","411707","0.0-3.0-6.0-1.0-0.36","637ce608b8f8f923bf784d84","6662009ae78f21dd82fcd179","66620cf0d96dc723aa71696e","625","","j","","","","","","","","./tasks/HMM-beads/Images/NewTrialWC.png","lowH","1","36","1","1","1","1","true","",""
"image-keyboard-response","245","412009","0.0-3.0-6.0-1.0-1.36","637ce608b8f8f923bf784d84","6662009ae78f21dd82fcd179","66620cf0d96dc723aa71696e","null","","null","","","","","","","","./tasks/HMM-beads/Images/WhiteBeadChoice.png","","","","","","","","","",""
"image-keyboard-response","246","412514","0.0-3.0-6.0-1.0-2.36","637ce608b8f8f923bf784d84","6662009ae78f21dd82fcd179","66620cf0d96dc723aa71696e","null","","null","","","","","","","","./tasks/HMM-beads/Images/WhiteBeadChoiceCorrect.png","","","","","","","","","",""
"image-keyboard-response","247","413059","0.0-3.0-6.0-1.0-0.37","637ce608b8f8f923bf784d84","6662009ae78f21dd82fcd179","66620cf0d96dc723aa71696e","541","","j","","","","","","","","./tasks/HMM-beads/Images/NewTrialWC.png","lowH","1","37","1","1","1","1","true","",""
"image-keyboard-response","248","413360","0.0-3.0-6.0-1.0-1.37","637ce608b8f8f923bf784d84","6662009ae78f21dd82fcd179","66620cf0d96dc723aa71696e","null","","null","","","","","","","","./tasks/HMM-beads/Images/WhiteBeadChoice.png","","","","","","","","","",""
"image-keyboard-response","249","413862","0.0-3.0-6.0-1.0-2.37","637ce608b8f8f923bf784d84","6662009ae78f21dd82fcd179","66620cf0d96dc723aa71696e","null","","null","","","","","","","","./tasks/HMM-beads/Images/WhiteBeadChoiceCorrect.png","","","","","","","","","",""
"image-keyboard-response","250","414434","0.0-3.0-6.0-1.0-0.38","637ce608b8f8f923bf784d84","6662009ae78f21dd82fcd179","66620cf0d96dc723aa71696e","569","","j","","","","","","","","./tasks/HMM-beads/Images/NewTrialWC.png","lowH","1","38","1","1","1","1","true","",""
"image-keyboard-response","251","414737","0.0-3.0-6.0-1.0-1.38","637ce608b8f8f923bf784d84","6662009ae78f21dd82fcd179","66620cf0d96dc723aa71696e","null","","null","","","","","","","","./tasks/HMM-beads/Images/WhiteBeadChoice.png","","","","","","","","","",""
"image-keyboard-response","252","415241","0.0-3.0-6.0-1.0-2.38","637ce608b8f8f923bf784d84","6662009ae78f21dd82fcd179","66620cf0d96dc723aa71696e","null","","null","","","","","","","","./tasks/HMM-beads/Images/WhiteBeadChoiceCorrect.png","","","","","","","","","",""
"image-keyboard-response","253","415661","0.0-3.0-6.0-1.0-0.39","637ce608b8f8f923bf784d84","6662009ae78f21dd82fcd179","66620cf0d96dc723aa71696e","418","","j","","","","","","","","./tasks/HMM-beads/Images/NewTrialWC.png","lowH","1","39","1","1","1","1","true","",""
"image-keyboard-response","254","415964","0.0-3.0-6.0-1.0-1.39","637ce608b8f8f923bf784d84","6662009ae78f21dd82fcd179","66620cf0d96dc723aa71696e","null","","null","","","","","","","","./tasks/HMM-beads/Images/WhiteBeadChoice.png","","","","","","","","","",""
"image-keyboard-response","255","416467","0.0-3.0-6.0-1.0-2.39","637ce608b8f8f923bf784d84","6662009ae78f21dd82fcd179","66620cf0d96dc723aa71696e","null","","null","","","","","","","","./tasks/HMM-beads/Images/WhiteBeadChoiceCorrect.png","","","","","","","","","",""
"image-keyboard-response","256","416832","0.0-3.0-6.0-1.0-0.40","637ce608b8f8f923bf784d84","6662009ae78f21dd82fcd179","66620cf0d96dc723aa71696e","362","","j","","","","","","","","./tasks/HMM-beads/Images/NewTrialWC.png","lowH","1","40","1","1","1","1","true","",""
"image-keyboard-response","257","417135","0.0-3.0-6.0-1.0-1.40","637ce608b8f8f923bf784d84","6662009ae78f21dd82fcd179","66620cf0d96dc723aa71696e","null","","null","","","","","","","","./tasks/HMM-beads/Images/WhiteBeadChoice.png","","","","","","","","","",""
"image-keyboard-response","258","417638","0.0-3.0-6.0-1.0-2.40","637ce608b8f8f923bf784d84","6662009ae78f21dd82fcd179","66620cf0d96dc723aa71696e","null","","null","","","","","","","","./tasks/HMM-beads/Images/WhiteBeadChoiceCorrect.png","","","","","","","","","",""
"image-keyboard-response","259","418228","0.0-3.0-6.0-1.0-0.41","637ce608b8f8f923bf784d84","6662009ae78f21dd82fcd179","66620cf0d96dc723aa71696e","588","","j","","","","","","","","./tasks/HMM-beads/Images/NewTrialWC.png","lowH","1","41","1","1","1","1","true","",""
"image-keyboard-response","260","418543","0.0-3.0-6.0-1.0-1.41","637ce608b8f8f923bf784d84","6662009ae78f21dd82fcd179","66620cf0d96dc723aa71696e","null","","null","","","","","","","","./tasks/HMM-beads/Images/WhiteBeadChoice.png","","","","","","","","","",""
"image-keyboard-response","261","419044","0.0-3.0-6.0-1.0-2.41","637ce608b8f8f923bf784d84","6662009ae78f21dd82fcd179","66620cf0d96dc723aa71696e","null","","null","","","","","","","","./tasks/HMM-beads/Images/WhiteBeadChoiceCorrect.png","","","","","","","","","",""
"image-keyboard-response","262","419888","0.0-3.0-6.0-1.0-0.42","637ce608b8f8f923bf784d84","6662009ae78f21dd82fcd179","66620cf0d96dc723aa71696e","842","","j","","","","","","","","./tasks/HMM-beads/Images/NewTrialWC.png","lowH","1","42","1","1","1","1","true","",""
"image-keyboard-response","263","420191","0.0-3.0-6.0-1.0-1.42","637ce608b8f8f923bf784d84","6662009ae78f21dd82fcd179","66620cf0d96dc723aa71696e","null","","null","","","","","","","","./tasks/HMM-beads/Images/WhiteBeadChoice.png","","","","","","","","","",""
"image-keyboard-response","264","420694","0.0-3.0-6.0-1.0-2.42","637ce608b8f8f923bf784d84","6662009ae78f21dd82fcd179","66620cf0d96dc723aa71696e","null","","null","","","","","","","","./tasks/HMM-beads/Images/WhiteBeadChoiceCorrect.png","","","","","","","","","",""
"image-keyboard-response","265","421277","0.0-3.0-6.0-1.0-0.43","637ce608b8f8f923bf784d84","6662009ae78f21dd82fcd179","66620cf0d96dc723aa71696e","580","","j","","","","","","","","./tasks/HMM-beads/Images/NewTrialWC.png","lowH","1","43","1","1","1","1","true","",""
"image-keyboard-response","266","421581","0.0-3.0-6.0-1.0-1.43","637ce608b8f8f923bf784d84","6662009ae78f21dd82fcd179","66620cf0d96dc723aa71696e","null","","null","","","","","","","","./tasks/HMM-beads/Images/WhiteBeadChoice.png","","","","","","","","","",""
"image-keyboard-response","267","422083","0.0-3.0-6.0-1.0-2.43","637ce608b8f8f923bf784d84","6662009ae78f21dd82fcd179","66620cf0d96dc723aa71696e","null","","null","","","","","","","","./tasks/HMM-beads/Images/WhiteBeadChoiceCorrect.png","","","","","","","","","",""
"image-keyboard-response","268","422893","0.0-3.0-6.0-1.0-0.44","637ce608b8f8f923bf784d84","6662009ae78f21dd82fcd179","66620cf0d96dc723aa71696e","808","","j","","","","","","","","./tasks/HMM-beads/Images/NewTrialWC.png","lowH","1","44","1","1","1","1","true","",""
"image-keyboard-response","269","423196","0.0-3.0-6.0-1.0-1.44","637ce608b8f8f923bf784d84","6662009ae78f21dd82fcd179","66620cf0d96dc723aa71696e","null","","null","","","","","","","","./tasks/HMM-beads/Images/WhiteBeadChoice.png","","","","","","","","","",""
"image-keyboard-response","270","423699","0.0-3.0-6.0-1.0-2.44","637ce608b8f8f923bf784d84","6662009ae78f21dd82fcd179","66620cf0d96dc723aa71696e","null","","null","","","","","","","","./tasks/HMM-beads/Images/WhiteBeadChoiceCorrect.png","","","","","","","","","",""
"image-keyboard-response","271","424281","0.0-3.0-6.0-1.0-0.45","637ce608b8f8f923bf784d84","6662009ae78f21dd82fcd179","66620cf0d96dc723aa71696e","580","","j","","","","","","","","./tasks/HMM-beads/Images/NewTrialWC.png","lowH","1","45","1","1","1","1","true","",""
"image-keyboard-response","272","424584","0.0-3.0-6.0-1.0-1.45","637ce608b8f8f923bf784d84","6662009ae78f21dd82fcd179","66620cf0d96dc723aa71696e","null","","null","","","","","","","","./tasks/HMM-beads/Images/WhiteBeadChoice.png","","","","","","","","","",""
"image-keyboard-response","273","425094","0.0-3.0-6.0-1.0-2.45","637ce608b8f8f923bf784d84","6662009ae78f21dd82fcd179","66620cf0d96dc723aa71696e","null","","null","","","","","","","","./tasks/HMM-beads/Images/WhiteBeadChoiceCorrect.png","","","","","","","","","",""
"image-keyboard-response","274","425945","0.0-3.0-6.0-1.0-0.46","637ce608b8f8f923bf784d84","6662009ae78f21dd82fcd179","66620cf0d96dc723aa71696e","849","","j","","","","","","","","./tasks/HMM-beads/Images/NewTrialWC.png","lowH","1","46","1","1","1","1","true","",""
"image-keyboard-response","275","426248","0.0-3.0-6.0-1.0-1.46","637ce608b8f8f923bf784d84","6662009ae78f21dd82fcd179","66620cf0d96dc723aa71696e","null","","null","","","","","","","","./tasks/HMM-beads/Images/WhiteBeadChoice.png","","","","","","","","","",""
"image-keyboard-response","276","426751","0.0-3.0-6.0-1.0-2.46","637ce608b8f8f923bf784d84","6662009ae78f21dd82fcd179","66620cf0d96dc723aa71696e","null","","null","","","","","","","","./tasks/HMM-beads/Images/WhiteBeadChoiceCorrect.png","","","","","","","","","",""
"image-keyboard-response","277","427084","0.0-3.0-6.0-1.0-0.47","637ce608b8f8f923bf784d84","6662009ae78f21dd82fcd179","66620cf0d96dc723aa71696e","330","","j","","","","","","","","./tasks/HMM-beads/Images/NewTrialWC.png","lowH","1","47","1","0","1","1","false","",""
"image-keyboard-response","278","427386","0.0-3.0-6.0-1.0-1.47","637ce608b8f8f923bf784d84","6662009ae78f21dd82fcd179","66620cf0d96dc723aa71696e","null","","null","","","","","","","","./tasks/HMM-beads/Images/WhiteBeadChoice.png","","","","","","","","","",""
"image-keyboard-response","279","427888","0.0-3.0-6.0-1.0-2.47","637ce608b8f8f923bf784d84","6662009ae78f21dd82fcd179","66620cf0d96dc723aa71696e","null","","null","","","","","","","","./tasks/HMM-beads/Images/WhiteBeadChoiceWrong.png","","","","","","","","","",""
"image-keyboard-response","280","428933","0.0-3.0-6.0-1.0-0.48","637ce608b8f8f923bf784d84","6662009ae78f21dd82fcd179","66620cf0d96dc723aa71696e","1042","","f","","","","","","","","./tasks/HMM-beads/Images/NewTrialBC.png","lowH","1","48","1","0","0","0","true","",""
"image-keyboard-response","281","429235","0.0-3.0-6.0-1.0-1.48","637ce608b8f8f923bf784d84","6662009ae78f21dd82fcd179","66620cf0d96dc723aa71696e","null","","null","","","","","","","","./tasks/HMM-beads/Images/BlackBeadChoice.png","","","","","","","","","",""
"image-keyboard-response","282","429737","0.0-3.0-6.0-1.0-2.48","637ce608b8f8f923bf784d84","6662009ae78f21dd82fcd179","66620cf0d96dc723aa71696e","null","","null","","","","","","","","./tasks/HMM-beads/Images/BlackBeadChoiceCorrect.png","","","","","","","","","",""
"image-keyboard-response","283","430311","0.0-3.0-6.0-1.0-0.49","637ce608b8f8f923bf784d84","6662009ae78f21dd82fcd179","66620cf0d96dc723aa71696e","572","","f","","","","","","","","./tasks/HMM-beads/Images/NewTrialBC.png","lowH","1","49","1","0","0","0","true","",""
"image-keyboard-response","284","430614","0.0-3.0-6.0-1.0-1.49","637ce608b8f8f923bf784d84","6662009ae78f21dd82fcd179","66620cf0d96dc723aa71696e","null","","null","","","","","","","","./tasks/HMM-beads/Images/BlackBeadChoice.png","","","","","","","","","",""
"image-keyboard-response","285","431117","0.0-3.0-6.0-1.0-2.49","637ce608b8f8f923bf784d84","6662009ae78f21dd82fcd179","66620cf0d96dc723aa71696e","null","","null","","","","","","","","./tasks/HMM-beads/Images/BlackBeadChoiceCorrect.png","","","","","","","","","",""
"image-keyboard-response","286","431753","0.0-3.0-6.0-1.0-0.50","637ce608b8f8f923bf784d84","6662009ae78f21dd82fcd179","66620cf0d96dc723aa71696e","634","","f","","","","","","","","./tasks/HMM-beads/Images/NewTrialBC.png","lowH","1","50","1","1","0","0","false","",""
"image-keyboard-response","287","432056","0.0-3.0-6.0-1.0-1.50","637ce608b8f8f923bf784d84","6662009ae78f21dd82fcd179","66620cf0d96dc723aa71696e","null","","null","","","","","","","","./tasks/HMM-beads/Images/BlackBeadChoice.png","","","","","","","","","",""
"image-keyboard-response","288","432558","0.0-3.0-6.0-1.0-2.50","637ce608b8f8f923bf784d84","6662009ae78f21dd82fcd179","66620cf0d96dc723aa71696e","null","","null","","","","","","","","./tasks/HMM-beads/Images/BlackBeadChoiceWrong.png","","","","","","","","","",""
"image-keyboard-response","289","433596","0.0-3.0-6.0-1.0-0.51","637ce608b8f8f923bf784d84","6662009ae78f21dd82fcd179","66620cf0d96dc723aa71696e","1036","","j","","","","","","","","./tasks/HMM-beads/Images/NewTrialWC.png","lowH","1","51","1","1","1","1","true","",""
"image-keyboard-response","290","433899","0.0-3.0-6.0-1.0-1.51","637ce608b8f8f923bf784d84","6662009ae78f21dd82fcd179","66620cf0d96dc723aa71696e","null","","null","","","","","","","","./tasks/HMM-beads/Images/WhiteBeadChoice.png","","","","","","","","","",""
"image-keyboard-response","291","434400","0.0-3.0-6.0-1.0-2.51","637ce608b8f8f923bf784d84","6662009ae78f21dd82fcd179","66620cf0d96dc723aa71696e","null","","null","","","","","","","","./tasks/HMM-beads/Images/WhiteBeadChoiceCorrect.png","","","","","","","","","",""
"image-keyboard-response","292","434661","0.0-3.0-6.0-1.0-0.52","637ce608b8f8f923bf784d84","6662009ae78f21dd82fcd179","66620cf0d96dc723aa71696e","259","","j","","","","","","","","./tasks/HMM-beads/Images/NewTrialWC.png","lowH","1","52","1","1","1","1","true","",""
"image-keyboard-response","293","434964","0.0-3.0-6.0-1.0-1.52","637ce608b8f8f923bf784d84","6662009ae78f21dd82fcd179","66620cf0d96dc723aa71696e","null","","null","","","","","","","","./tasks/HMM-beads/Images/WhiteBeadChoice.png","","","","","","","","","",""
"image-keyboard-response","294","435466","0.0-3.0-6.0-1.0-2.52","637ce608b8f8f923bf784d84","6662009ae78f21dd82fcd179","66620cf0d96dc723aa71696e","null","","null","","","","","","","","./tasks/HMM-beads/Images/WhiteBeadChoiceCorrect.png","","","","","","","","","",""
"image-keyboard-response","295","435631","0.0-3.0-6.0-1.0-0.53","637ce608b8f8f923bf784d84","6662009ae78f21dd82fcd179","66620cf0d96dc723aa71696e","163","","j","","","","","","","","./tasks/HMM-beads/Images/NewTrialWC.png","lowH","1","53","1","1","1","1","true","",""
"image-keyboard-response","296","435934","0.0-3.0-6.0-1.0-1.53","637ce608b8f8f923bf784d84","6662009ae78f21dd82fcd179","66620cf0d96dc723aa71696e","null","","null","","","","","","","","./tasks/HMM-beads/Images/WhiteBeadChoice.png","","","","","","","","","",""
"image-keyboard-response","297","436437","0.0-3.0-6.0-1.0-2.53","637ce608b8f8f923bf784d84","6662009ae78f21dd82fcd179","66620cf0d96dc723aa71696e","null","","null","","","","","","","","./tasks/HMM-beads/Images/WhiteBeadChoiceCorrect.png","","","","","","","","","",""
"image-keyboard-response","298","436640","0.0-3.0-6.0-1.0-0.54","637ce608b8f8f923bf784d84","6662009ae78f21dd82fcd179","66620cf0d96dc723aa71696e","200","","j","","","","","","","","./tasks/HMM-beads/Images/NewTrialWC.png","lowH","1","54","1","1","1","1","true","",""
"image-keyboard-response","299","436953","0.0-3.0-6.0-1.0-1.54","637ce608b8f8f923bf784d84","6662009ae78f21dd82fcd179","66620cf0d96dc723aa71696e","null","","null","","","","","","","","./tasks/HMM-beads/Images/WhiteBeadChoice.png","","","","","","","","","",""
"image-keyboard-response","300","437455","0.0-3.0-6.0-1.0-2.54","637ce608b8f8f923bf784d84","6662009ae78f21dd82fcd179","66620cf0d96dc723aa71696e","null","","null","","","","","","","","./tasks/HMM-beads/Images/WhiteBeadChoiceCorrect.png","","","","","","","","","",""
"image-keyboard-response","301","437616","0.0-3.0-6.0-1.0-0.55","637ce608b8f8f923bf784d84","6662009ae78f21dd82fcd179","66620cf0d96dc723aa71696e","159","","j","","","","","","","","./tasks/HMM-beads/Images/NewTrialWC.png","lowH","1","55","1","1","1","1","true","",""
"image-keyboard-response","302","437918","0.0-3.0-6.0-1.0-1.55","637ce608b8f8f923bf784d84","6662009ae78f21dd82fcd179","66620cf0d96dc723aa71696e","null","","null","","","","","","","","./tasks/HMM-beads/Images/WhiteBeadChoice.png","","","","","","","","","",""
"image-keyboard-response","303","438421","0.0-3.0-6.0-1.0-2.55","637ce608b8f8f923bf784d84","6662009ae78f21dd82fcd179","66620cf0d96dc723aa71696e","null","","null","","","","","","","","./tasks/HMM-beads/Images/WhiteBeadChoiceCorrect.png","","","","","","","","","",""
"image-keyboard-response","304","438608","0.0-3.0-6.0-1.0-0.56","637ce608b8f8f923bf784d84","6662009ae78f21dd82fcd179","66620cf0d96dc723aa71696e","185","","j","","","","","","","","./tasks/HMM-beads/Images/NewTrialWC.png","lowH","1","56","1","1","1","1","true","",""
"image-keyboard-response","305","438911","0.0-3.0-6.0-1.0-1.56","637ce608b8f8f923bf784d84","6662009ae78f21dd82fcd179","66620cf0d96dc723aa71696e","null","","null","","","","","","","","./tasks/HMM-beads/Images/WhiteBeadChoice.png","","","","","","","","","",""
"image-keyboard-response","306","439414","0.0-3.0-6.0-1.0-2.56","637ce608b8f8f923bf784d84","6662009ae78f21dd82fcd179","66620cf0d96dc723aa71696e","null","","null","","","","","","","","./tasks/HMM-beads/Images/WhiteBeadChoiceCorrect.png","","","","","","","","","",""
"image-keyboard-response","307","439655","0.0-3.0-6.0-1.0-0.57","637ce608b8f8f923bf784d84","6662009ae78f21dd82fcd179","66620cf0d96dc723aa71696e","240","","j","","","","","","","","./tasks/HMM-beads/Images/NewTrialWC.png","lowH","1","57","1","1","1","1","true","",""
"image-keyboard-response","308","439958","0.0-3.0-6.0-1.0-1.57","637ce608b8f8f923bf784d84","6662009ae78f21dd82fcd179","66620cf0d96dc723aa71696e","null","","null","","","","","","","","./tasks/HMM-beads/Images/WhiteBeadChoice.png","","","","","","","","","",""
"image-keyboard-response","309","440461","0.0-3.0-6.0-1.0-2.57","637ce608b8f8f923bf784d84","6662009ae78f21dd82fcd179","66620cf0d96dc723aa71696e","null","","null","","","","","","","","./tasks/HMM-beads/Images/WhiteBeadChoiceCorrect.png","","","","","","","","","",""
"image-keyboard-response","310","440734","0.0-3.0-6.0-1.0-0.58","637ce608b8f8f923bf784d84","6662009ae78f21dd82fcd179","66620cf0d96dc723aa71696e","270","","j","","","","","","","","./tasks/HMM-beads/Images/NewTrialWC.png","lowH","1","58","1","1","1","1","true","",""
"image-keyboard-response","311","441037","0.0-3.0-6.0-1.0-1.58","637ce608b8f8f923bf784d84","6662009ae78f21dd82fcd179","66620cf0d96dc723aa71696e","null","","null","","","","","","","","./tasks/HMM-beads/Images/WhiteBeadChoice.png","","","","","","","","","",""
"image-keyboard-response","312","441541","0.0-3.0-6.0-1.0-2.58","637ce608b8f8f923bf784d84","6662009ae78f21dd82fcd179","66620cf0d96dc723aa71696e","null","","null","","","","","","","","./tasks/HMM-beads/Images/WhiteBeadChoiceCorrect.png","","","","","","","","","",""
"image-keyboard-response","313","441742","0.0-3.0-6.0-1.0-0.59","637ce608b8f8f923bf784d84","6662009ae78f21dd82fcd179","66620cf0d96dc723aa71696e","199","","j","","","","","","","","./tasks/HMM-beads/Images/NewTrialWC.png","lowH","1","59","1","0","1","1","false","",""
"image-keyboard-response","314","442044","0.0-3.0-6.0-1.0-1.59","637ce608b8f8f923bf784d84","6662009ae78f21dd82fcd179","66620cf0d96dc723aa71696e","null","","null","","","","","","","","./tasks/HMM-beads/Images/WhiteBeadChoice.png","","","","","","","","","",""
"image-keyboard-response","315","442546","0.0-3.0-6.0-1.0-2.59","637ce608b8f8f923bf784d84","6662009ae78f21dd82fcd179","66620cf0d96dc723aa71696e","null","","null","","","","","","","","./tasks/HMM-beads/Images/WhiteBeadChoiceWrong.png","","","","","","","","","",""
"image-keyboard-response","316","442848","0.0-3.0-6.0-1.0-0.60","637ce608b8f8f923bf784d84","6662009ae78f21dd82fcd179","66620cf0d96dc723aa71696e","300","","f","","","","","","","","./tasks/HMM-beads/Images/NewTrialBC.png","lowH","1","60","1","1","0","0","false","",""
"image-keyboard-response","317","443150","0.0-3.0-6.0-1.0-1.60","637ce608b8f8f923bf784d84","6662009ae78f21dd82fcd179","66620cf0d96dc723aa71696e","null","","null","","","","","","","","./tasks/HMM-beads/Images/BlackBeadChoice.png","","","","","","","","","",""
"image-keyboard-response","318","443652","0.0-3.0-6.0-1.0-2.60","637ce608b8f8f923bf784d84","6662009ae78f21dd82fcd179","66620cf0d96dc723aa71696e","null","","null","","","","","","","","./tasks/HMM-beads/Images/BlackBeadChoiceWrong.png","","","","","","","","","",""
"image-keyboard-response","319","444100","0.0-3.0-6.0-1.0-0.61","637ce608b8f8f923bf784d84","6662009ae78f21dd82fcd179","66620cf0d96dc723aa71696e","446","","f","","","","","","","","./tasks/HMM-beads/Images/NewTrialWC.png","lowH","1","61","1","1","1","0","false","",""
"image-keyboard-response","320","444403","0.0-3.0-6.0-1.0-1.61","637ce608b8f8f923bf784d84","6662009ae78f21dd82fcd179","66620cf0d96dc723aa71696e","null","","null","","","","","","","","./tasks/HMM-beads/Images/BlackBeadChoice.png","","","","","","","","","",""
"image-keyboard-response","321","444906","0.0-3.0-6.0-1.0-2.61","637ce608b8f8f923bf784d84","6662009ae78f21dd82fcd179","66620cf0d96dc723aa71696e","null","","null","","","","","","","","./tasks/HMM-beads/Images/BlackBeadChoiceWrong.png","","","","","","","","","",""
"image-keyboard-response","322","445038","0.0-3.0-6.0-1.0-0.62","637ce608b8f8f923bf784d84","6662009ae78f21dd82fcd179","66620cf0d96dc723aa71696e","129","","j","","","","","","","","./tasks/HMM-beads/Images/NewTrialWC.png","lowH","1","62","1","0","1","1","false","",""
"image-keyboard-response","323","445340","0.0-3.0-6.0-1.0-1.62","637ce608b8f8f923bf784d84","6662009ae78f21dd82fcd179","66620cf0d96dc723aa71696e","null","","null","","","","","","","","./tasks/HMM-beads/Images/WhiteBeadChoice.png","","","","","","","","","",""
"image-keyboard-response","324","445843","0.0-3.0-6.0-1.0-2.62","637ce608b8f8f923bf784d84","6662009ae78f21dd82fcd179","66620cf0d96dc723aa71696e","null","","null","","","","","","","","./tasks/HMM-beads/Images/WhiteBeadChoiceWrong.png","","","","","","","","","",""
"image-keyboard-response","325","446243","0.0-3.0-6.0-1.0-0.63","637ce608b8f8f923bf784d84","6662009ae78f21dd82fcd179","66620cf0d96dc723aa71696e","396","","f","","","","","","","","./tasks/HMM-beads/Images/NewTrialBC.png","lowH","1","63","1","1","0","0","false","",""
"image-keyboard-response","326","446545","0.0-3.0-6.0-1.0-1.63","637ce608b8f8f923bf784d84","6662009ae78f21dd82fcd179","66620cf0d96dc723aa71696e","null","","null","","","","","","","","./tasks/HMM-beads/Images/BlackBeadChoice.png","","","","","","","","","",""
"image-keyboard-response","327","447048","0.0-3.0-6.0-1.0-2.63","637ce608b8f8f923bf784d84","6662009ae78f21dd82fcd179","66620cf0d96dc723aa71696e","null","","null","","","","","","","","./tasks/HMM-beads/Images/BlackBeadChoiceWrong.png","","","","","","","","","",""
"image-keyboard-response","328","447492","0.0-3.0-6.0-1.0-0.64","637ce608b8f8f923bf784d84","6662009ae78f21dd82fcd179","66620cf0d96dc723aa71696e","442","","f","","","","","","","","./tasks/HMM-beads/Images/NewTrialWC.png","lowH","1","64","1","1","1","0","false","",""
"image-keyboard-response","329","447795","0.0-3.0-6.0-1.0-1.64","637ce608b8f8f923bf784d84","6662009ae78f21dd82fcd179","66620cf0d96dc723aa71696e","null","","null","","","","","","","","./tasks/HMM-beads/Images/BlackBeadChoice.png","","","","","","","","","",""
"image-keyboard-response","330","448298","0.0-3.0-6.0-1.0-2.64","637ce608b8f8f923bf784d84","6662009ae78f21dd82fcd179","66620cf0d96dc723aa71696e","null","","null","","","","","","","","./tasks/HMM-beads/Images/BlackBeadChoiceWrong.png","","","","","","","","","",""
"image-keyboard-response","331","448848","0.0-3.0-6.0-1.0-0.65","637ce608b8f8f923bf784d84","6662009ae78f21dd82fcd179","66620cf0d96dc723aa71696e","548","","j","","","","","","","","./tasks/HMM-beads/Images/NewTrialWC.png","lowH","1","65","1","1","1","1","true","",""
"image-keyboard-response","332","449149","0.0-3.0-6.0-1.0-1.65","637ce608b8f8f923bf784d84","6662009ae78f21dd82fcd179","66620cf0d96dc723aa71696e","null","","null","","","","","","","","./tasks/HMM-beads/Images/WhiteBeadChoice.png","","","","","","","","","",""
"image-keyboard-response","333","449652","0.0-3.0-6.0-1.0-2.65","637ce608b8f8f923bf784d84","6662009ae78f21dd82fcd179","66620cf0d96dc723aa71696e","null","","null","","","","","","","","./tasks/HMM-beads/Images/WhiteBeadChoiceCorrect.png","","","","","","","","","",""
"image-keyboard-response","334","449909","0.0-3.0-6.0-1.0-0.66","637ce608b8f8f923bf784d84","6662009ae78f21dd82fcd179","66620cf0d96dc723aa71696e","255","","j","","","","","","","","./tasks/HMM-beads/Images/NewTrialWC.png","lowH","1","66","1","1","1","1","true","",""
"image-keyboard-response","335","450212","0.0-3.0-6.0-1.0-1.66","637ce608b8f8f923bf784d84","6662009ae78f21dd82fcd179","66620cf0d96dc723aa71696e","null","","null","","","","","","","","./tasks/HMM-beads/Images/WhiteBeadChoice.png","","","","","","","","","",""
"image-keyboard-response","336","450716","0.0-3.0-6.0-1.0-2.66","637ce608b8f8f923bf784d84","6662009ae78f21dd82fcd179","66620cf0d96dc723aa71696e","null","","null","","","","","","","","./tasks/HMM-beads/Images/WhiteBeadChoiceCorrect.png","","","","","","","","","",""
"image-keyboard-response","337","450985","0.0-3.0-6.0-1.0-0.67","637ce608b8f8f923bf784d84","6662009ae78f21dd82fcd179","66620cf0d96dc723aa71696e","267","","j","","","","","","","","./tasks/HMM-beads/Images/NewTrialWC.png","lowH","1","67","1","0","1","1","false","",""
"image-keyboard-response","338","451289","0.0-3.0-6.0-1.0-1.67","637ce608b8f8f923bf784d84","6662009ae78f21dd82fcd179","66620cf0d96dc723aa71696e","null","","null","","","","","","","","./tasks/HMM-beads/Images/WhiteBeadChoice.png","","","","","","","","","",""
"image-keyboard-response","339","451791","0.0-3.0-6.0-1.0-2.67","637ce608b8f8f923bf784d84","6662009ae78f21dd82fcd179","66620cf0d96dc723aa71696e","null","","null","","","","","","","","./tasks/HMM-beads/Images/WhiteBeadChoiceWrong.png","","","","","","","","","",""
"image-keyboard-response","340","452305","0.0-3.0-6.0-1.0-0.68","637ce608b8f8f923bf784d84","6662009ae78f21dd82fcd179","66620cf0d96dc723aa71696e","511","","f","","","","","","","","./tasks/HMM-beads/Images/NewTrialBC.png","lowH","1","68","1","1","0","0","false","",""
"image-keyboard-response","341","452606","0.0-3.0-6.0-1.0-1.68","637ce608b8f8f923bf784d84","6662009ae78f21dd82fcd179","66620cf0d96dc723aa71696e","null","","null","","","","","","","","./tasks/HMM-beads/Images/BlackBeadChoice.png","","","","","","","","","",""
"image-keyboard-response","342","453110","0.0-3.0-6.0-1.0-2.68","637ce608b8f8f923bf784d84","6662009ae78f21dd82fcd179","66620cf0d96dc723aa71696e","null","","null","","","","","","","","./tasks/HMM-beads/Images/BlackBeadChoiceWrong.png","","","","","","","","","",""
"image-keyboard-response","343","453396","0.0-3.0-6.0-1.0-0.69","637ce608b8f8f923bf784d84","6662009ae78f21dd82fcd179","66620cf0d96dc723aa71696e","285","","j","","","","","","","","./tasks/HMM-beads/Images/NewTrialWC.png","lowH","1","69","0","1","1","1","true","",""
"image-keyboard-response","344","453700","0.0-3.0-6.0-1.0-1.69","637ce608b8f8f923bf784d84","6662009ae78f21dd82fcd179","66620cf0d96dc723aa71696e","null","","null","","","","","","","","./tasks/HMM-beads/Images/WhiteBeadChoice.png","","","","","","","","","",""
"image-keyboard-response","345","454202","0.0-3.0-6.0-1.0-2.69","637ce608b8f8f923bf784d84","6662009ae78f21dd82fcd179","66620cf0d96dc723aa71696e","null","","null","","","","","","","","./tasks/HMM-beads/Images/WhiteBeadChoiceCorrect.png","","","","","","","","","",""
"image-keyboard-response","346","454389","0.0-3.0-6.0-1.0-0.70","637ce608b8f8f923bf784d84","6662009ae78f21dd82fcd179","66620cf0d96dc723aa71696e","184","","j","","","","","","","","./tasks/HMM-beads/Images/NewTrialWC.png","lowH","1","70","0","1","1","1","true","",""
"image-keyboard-response","347","454691","0.0-3.0-6.0-1.0-1.70","637ce608b8f8f923bf784d84","6662009ae78f21dd82fcd179","66620cf0d96dc723aa71696e","null","","null","","","","","","","","./tasks/HMM-beads/Images/WhiteBeadChoice.png","","","","","","","","","",""
"image-keyboard-response","348","455194","0.0-3.0-6.0-1.0-2.70","637ce608b8f8f923bf784d84","6662009ae78f21dd82fcd179","66620cf0d96dc723aa71696e","null","","null","","","","","","","","./tasks/HMM-beads/Images/WhiteBeadChoiceCorrect.png","","","","","","","","","",""
"image-keyboard-response","349","455316","0.0-3.0-6.0-1.0-0.71","637ce608b8f8f923bf784d84","6662009ae78f21dd82fcd179","66620cf0d96dc723aa71696e","118","","j","","","","","","","","./tasks/HMM-beads/Images/NewTrialWC.png","lowH","1","71","0","0","1","1","false","",""
"image-keyboard-response","350","455619","0.0-3.0-6.0-1.0-1.71","637ce608b8f8f923bf784d84","6662009ae78f21dd82fcd179","66620cf0d96dc723aa71696e","null","","null","","","","","","","","./tasks/HMM-beads/Images/WhiteBeadChoice.png","","","","","","","","","",""
"image-keyboard-response","351","456131","0.0-3.0-6.0-1.0-2.71","637ce608b8f8f923bf784d84","6662009ae78f21dd82fcd179","66620cf0d96dc723aa71696e","null","","null","","","","","","","","./tasks/HMM-beads/Images/WhiteBeadChoiceWrong.png","","","","","","","","","",""
"image-keyboard-response","352","457114","0.0-3.0-6.0-1.0-0.72","637ce608b8f8f923bf784d84","6662009ae78f21dd82fcd179","66620cf0d96dc723aa71696e","980","","j","","","","","","","","./tasks/HMM-beads/Images/NewTrialBC.png","lowH","1","72","0","0","0","1","false","",""
"image-keyboard-response","353","457416","0.0-3.0-6.0-1.0-1.72","637ce608b8f8f923bf784d84","6662009ae78f21dd82fcd179","66620cf0d96dc723aa71696e","null","","null","","","","","","","","./tasks/HMM-beads/Images/WhiteBeadChoice.png","","","","","","","","","",""
"image-keyboard-response","354","457919","0.0-3.0-6.0-1.0-2.72","637ce608b8f8f923bf784d84","6662009ae78f21dd82fcd179","66620cf0d96dc723aa71696e","null","","null","","","","","","","","./tasks/HMM-beads/Images/WhiteBeadChoiceWrong.png","","","","","","","","","",""
"image-keyboard-response","355","458055","0.0-3.0-6.0-1.0-0.73","637ce608b8f8f923bf784d84","6662009ae78f21dd82fcd179","66620cf0d96dc723aa71696e","133","","j","","","","","","","","./tasks/HMM-beads/Images/NewTrialBC.png","lowH","1","73","0","1","0","1","true","",""
"image-keyboard-response","356","458357","0.0-3.0-6.0-1.0-1.73","637ce608b8f8f923bf784d84","6662009ae78f21dd82fcd179","66620cf0d96dc723aa71696e","null","","null","","","","","","","","./tasks/HMM-beads/Images/WhiteBeadChoice.png","","","","","","","","","",""
"image-keyboard-response","357","458859","0.0-3.0-6.0-1.0-2.73","637ce608b8f8f923bf784d84","6662009ae78f21dd82fcd179","66620cf0d96dc723aa71696e","null","","null","","","","","","","","./tasks/HMM-beads/Images/WhiteBeadChoiceCorrect.png","","","","","","","","","",""
"image-keyboard-response","358","458976","0.0-3.0-6.0-1.0-0.74","637ce608b8f8f923bf784d84","6662009ae78f21dd82fcd179","66620cf0d96dc723aa71696e","114","","j","","","","","","","","./tasks/HMM-beads/Images/NewTrialWC.png","lowH","1","74","0","0","1","1","false","",""
"image-keyboard-response","359","459279","0.0-3.0-6.0-1.0-1.74","637ce608b8f8f923bf784d84","6662009ae78f21dd82fcd179","66620cf0d96dc723aa71696e","null","","null","","","","","","","","./tasks/HMM-beads/Images/WhiteBeadChoice.png","","","","","","","","","",""
"image-keyboard-response","360","459782","0.0-3.0-6.0-1.0-2.74","637ce608b8f8f923bf784d84","6662009ae78f21dd82fcd179","66620cf0d96dc723aa71696e","null","","null","","","","","","","","./tasks/HMM-beads/Images/WhiteBeadChoiceWrong.png","","","","","","","","","",""
"image-keyboard-response","361","460036","0.0-3.0-6.0-1.0-0.75","637ce608b8f8f923bf784d84","6662009ae78f21dd82fcd179","66620cf0d96dc723aa71696e","251","","j","","","","","","","","./tasks/HMM-beads/Images/NewTrialBC.png","lowH","1","75","0","1","0","1","true","",""
"image-keyboard-response","362","460339","0.0-3.0-6.0-1.0-1.75","637ce608b8f8f923bf784d84","6662009ae78f21dd82fcd179","66620cf0d96dc723aa71696e","null","","null","","","","","","","","./tasks/HMM-beads/Images/WhiteBeadChoice.png","","","","","","","","","",""
"image-keyboard-response","363","460841","0.0-3.0-6.0-1.0-2.75","637ce608b8f8f923bf784d84","6662009ae78f21dd82fcd179","66620cf0d96dc723aa71696e","null","","null","","","","","","","","./tasks/HMM-beads/Images/WhiteBeadChoiceCorrect.png","","","","","","","","","",""
"image-keyboard-response","364","460988","0.0-3.0-6.0-1.0-0.76","637ce608b8f8f923bf784d84","6662009ae78f21dd82fcd179","66620cf0d96dc723aa71696e","144","","j","","","","","","","","./tasks/HMM-beads/Images/NewTrialWC.png","lowH","1","76","0","1","1","1","true","",""
"image-keyboard-response","365","461290","0.0-3.0-6.0-1.0-1.76","637ce608b8f8f923bf784d84","6662009ae78f21dd82fcd179","66620cf0d96dc723aa71696e","null","","null","","","","","","","","./tasks/HMM-beads/Images/WhiteBeadChoice.png","","","","","","","","","",""
"image-keyboard-response","366","461792","0.0-3.0-6.0-1.0-2.76","637ce608b8f8f923bf784d84","6662009ae78f21dd82fcd179","66620cf0d96dc723aa71696e","null","","null","","","","","","","","./tasks/HMM-beads/Images/WhiteBeadChoiceCorrect.png","","","","","","","","","",""
"image-keyboard-response","367","461861","0.0-3.0-6.0-1.0-0.77","637ce608b8f8f923bf784d84","6662009ae78f21dd82fcd179","66620cf0d96dc723aa71696e","65","","j","","","","","","","","./tasks/HMM-beads/Images/NewTrialWC.png","lowH","1","77","0","0","1","1","false","",""
"image-keyboard-response","368","462164","0.0-3.0-6.0-1.0-1.77","637ce608b8f8f923bf784d84","6662009ae78f21dd82fcd179","66620cf0d96dc723aa71696e","null","","null","","","","","","","","./tasks/HMM-beads/Images/WhiteBeadChoice.png","","","","","","","","","",""
"image-keyboard-response","369","462666","0.0-3.0-6.0-1.0-2.77","637ce608b8f8f923bf784d84","6662009ae78f21dd82fcd179","66620cf0d96dc723aa71696e","null","","null","","","","","","","","./tasks/HMM-beads/Images/WhiteBeadChoiceWrong.png","","","","","","","","","",""
"image-keyboard-response","370","463572","0.0-3.0-6.0-1.0-0.78","637ce608b8f8f923bf784d84","6662009ae78f21dd82fcd179","66620cf0d96dc723aa71696e","903","","j","","","","","","","","./tasks/HMM-beads/Images/NewTrialBC.png","lowH","1","78","0","0","0","1","false","",""
"image-keyboard-response","371","463875","0.0-3.0-6.0-1.0-1.78","637ce608b8f8f923bf784d84","6662009ae78f21dd82fcd179","66620cf0d96dc723aa71696e","null","","null","","","","","","","","./tasks/HMM-beads/Images/WhiteBeadChoice.png","","","","","","","","","",""
"image-keyboard-response","372","464378","0.0-3.0-6.0-1.0-2.78","637ce608b8f8f923bf784d84","6662009ae78f21dd82fcd179","66620cf0d96dc723aa71696e","null","","null","","","","","","","","./tasks/HMM-beads/Images/WhiteBeadChoiceWrong.png","","","","","","","","","",""
"image-keyboard-response","373","464717","0.0-3.0-6.0-1.0-0.79","637ce608b8f8f923bf784d84","6662009ae78f21dd82fcd179","66620cf0d96dc723aa71696e","336","","f","","","","","","","","./tasks/HMM-beads/Images/NewTrialBC.png","lowH","1","79","0","0","0","0","true","",""
"image-keyboard-response","374","465018","0.0-3.0-6.0-1.0-1.79","637ce608b8f8f923bf784d84","6662009ae78f21dd82fcd179","66620cf0d96dc723aa71696e","null","","null","","","","","","","","./tasks/HMM-beads/Images/BlackBeadChoice.png","","","","","","","","","",""
