"trial_type","trial_index","time_elapsed","internal_node_id","subject_id","study_id","session_id","rt","url","response","question_order","view_history","success","timeout","failed_images","failed_audio","failed_video","stimulus","block","block_rep","trial_number","jar","bead","previous_bead","choice","correct","lowH_score","total_bonus"
"pavlovia","0","1501","0.0-0.0","5dd742a140460e6e2b707d58","6662009ae78f21dd82fcd179","66620cf7bcb7c756bda0ea70","","","","","","","","","","","","","","","","","","","","",""
"external-html","1","27235","0.0-1.0-0.0","5dd742a140460e6e2b707d58","6662009ae78f21dd82fcd179","66620cf7bcb7c756bda0ea70","25511","new_consent.html","","","","","","","","","","","","","","","","","","",""
"survey-multi-choice","2","31297","0.0-1.0-1.0","5dd742a140460e6e2b707d58","6662009ae78f21dd82fcd179","66620cf7bcb7c756bda0ea70","4060","","{""Q0"":""Male"",""Q1"":""White""}","[0,1]","","","","","","","","","","","","","","","","",""
"survey-text","3","35029","0.0-1.0-2.0","5dd742a140460e6e2b707d58","6662009ae78f21dd82fcd179","66620cf7bcb7c756bda0ea70","3728","","{""Q0"":""27""}","","","","","","","","","","","","","","","","","",""
"instructions","4","37413","0.0-2.0","5dd742a140460e6e2b707d58","6662009ae78f21dd82fcd179","66620cf7bcb7c756bda0ea70","2269","","","","[{""page_index"":0,""viewing_time"":2268}]","","","","","","","","","","","","","","","",""
"preload","5","61649","0.0-3.0-0.0","5dd742a140460e6e2b707d58","6662009ae78f21dd82fcd179","66620cf7bcb7c756bda0ea70","","","","","","true","false","[]","[]","[]","","","","","","","","","","",""
"instructions","6","148144","0.0-3.0-1.0","5dd742a140460e6e2b707d58","6662009ae78f21dd82fcd179","66620cf7bcb7c756bda0ea70","86494","","","","[{""page_index"":0,""viewing_time"":14040},{""page_index"":1,""viewing_time"":4507},{""page_index"":2,""viewing_time"":3432},{""page_index"":3,""viewing_time"":2496},{""page_index"":4,""viewing_time"":5782},{""page_index"":5,""viewing_time"":16415},{""page_index"":6,""viewing_time"":6135},{""page_index"":7,""viewing_time"":9329},{""page_index"":8,""viewing_time"":7706},{""page_index"":9,""viewing_time"":5687},{""page_index"":10,""viewing_time"":8489},{""page_index"":11,""viewing_time"":2476}]","","","","","","","","","","","","","","","",""
"html-button-response","7","152614","0.0-3.0-2.0-0.0-0.0","5dd742a140460e6e2b707d58","6662009ae78f21dd82fcd179","66620cf7bcb7c756bda0ea70","4469","","1","","","","","","","","<div align=center>Your goal is to predict…?<br><br></div>","","","","","","","","","",""
"html-button-response","8","160424","0.0-3.0-2.0-1.0-0.0","5dd742a140460e6e2b707d58","6662009ae78f21dd82fcd179","66620cf7bcb7c756bda0ea70","6129","","2","","","","","","","","<div align=center>In the jar with mostly white beads, there are ___% white beads and ___% black beads?<br><br></div>","","","","","","","","","",""
"html-button-response","9","167223","0.0-3.0-2.0-2.0-0.0","5dd742a140460e6e2b707d58","6662009ae78f21dd82fcd179","66620cf7bcb7c756bda0ea70","5746","","0","","","","","","","","<div align=center>When there is a 1% probability that the jars will switch, the next bead will most likely be drawn from the…<br><br></div>","","","","","","","","","",""
"html-button-response","10","171742","0.0-3.0-2.0-3.0-0.0","5dd742a140460e6e2b707d58","6662009ae78f21dd82fcd179","66620cf7bcb7c756bda0ea70","3372","","1","","","","","","","","<div align=center>When there is a 99% probability that the jars will switch, the next bead will most likely be drawn from the…<br><br></div>","","","","","","","","","",""
"instructions","11","178592","0.0-3.0-3.0","5dd742a140460e6e2b707d58","6662009ae78f21dd82fcd179","66620cf7bcb7c756bda0ea70","5650","","","","[{""page_index"":0,""viewing_time"":5650}]","","","","","","","","","","","","","","","",""
"html-keyboard-response","12","181496","0.0-3.0-4.0-0.0","5dd742a140460e6e2b707d58","6662009ae78f21dd82fcd179","66620cf7bcb7c756bda0ea70","2903",""," ","","","","","","","","<div align=center>In this practice block, there will be a <b>1% chance</b> that the jar on the next trial will be different from the jar on the current trial.<br><br></div>","","","","","","","","","",""
"image-keyboard-response","13","183161","0.0-3.0-4.0-1.0-0.0","5dd742a140460e6e2b707d58","6662009ae78f21dd82fcd179","66620cf7bcb7c756bda0ea70","1663","","f","","","","","","","","./tasks/HMM-beads/Images/NoChoice.png","practice","0","0","0","0","9","0","true","",""
"image-keyboard-response","14","183463","0.0-3.0-4.0-1.0-1.0","5dd742a140460e6e2b707d58","6662009ae78f21dd82fcd179","66620cf7bcb7c756bda0ea70","null","","null","","","","","","","","./tasks/HMM-beads/Images/BlackBeadChoice.png","","","","","","","","","",""
"image-keyboard-response","15","183973","0.0-3.0-4.0-1.0-2.0","5dd742a140460e6e2b707d58","6662009ae78f21dd82fcd179","66620cf7bcb7c756bda0ea70","null","","null","","","","","","","","./tasks/HMM-beads/Images/BlackBeadChoiceCorrect.png","","","","","","","","","",""
"image-keyboard-response","16","185421","0.0-3.0-4.0-1.0-0.1","5dd742a140460e6e2b707d58","6662009ae78f21dd82fcd179","66620cf7bcb7c756bda0ea70","1447","","j","","","","","","","","./tasks/HMM-beads/Images/NewTrialBC.png","practice","0","1","0","0","0","1","false","",""
"image-keyboard-response","17","185731","0.0-3.0-4.0-1.0-1.1","5dd742a140460e6e2b707d58","6662009ae78f21dd82fcd179","66620cf7bcb7c756bda0ea70","null","","null","","","","","","","","./tasks/HMM-beads/Images/WhiteBeadChoice.png","","","","","","","","","",""
"image-keyboard-response","18","186241","0.0-3.0-4.0-1.0-2.1","5dd742a140460e6e2b707d58","6662009ae78f21dd82fcd179","66620cf7bcb7c756bda0ea70","null","","null","","","","","","","","./tasks/HMM-beads/Images/WhiteBeadChoiceWrong.png","","","","","","","","","",""
"image-keyboard-response","19","186911","0.0-3.0-4.0-1.0-0.2","5dd742a140460e6e2b707d58","6662009ae78f21dd82fcd179","66620cf7bcb7c756bda0ea70","669","","j","","","","","","","","./tasks/HMM-beads/Images/NewTrialBC.png","practice","0","2","0","1","0","1","true","",""
"image-keyboard-response","20","187212","0.0-3.0-4.0-1.0-1.2","5dd742a140460e6e2b707d58","6662009ae78f21dd82fcd179","66620cf7bcb7c756bda0ea70","null","","null","","","","","","","","./tasks/HMM-beads/Images/WhiteBeadChoice.png","","","","","","","","","",""
"image-keyboard-response","21","187721","0.0-3.0-4.0-1.0-2.2","5dd742a140460e6e2b707d58","6662009ae78f21dd82fcd179","66620cf7bcb7c756bda0ea70","null","","null","","","","","","","","./tasks/HMM-beads/Images/WhiteBeadChoiceCorrect.png","","","","","","","","","",""
"image-keyboard-response","22","188460","0.0-3.0-4.0-1.0-0.3","5dd742a140460e6e2b707d58","6662009ae78f21dd82fcd179","66620cf7bcb7c756bda0ea70","738","","f","","","","","","","","./tasks/HMM-beads/Images/NewTrialWC.png","practice","0","3","0","0","1","0","true","",""
"image-keyboard-response","23","188766","0.0-3.0-4.0-1.0-1.3","5dd742a140460e6e2b707d58","6662009ae78f21dd82fcd179","66620cf7bcb7c756bda0ea70","null","","null","","","","","","","","./tasks/HMM-beads/Images/BlackBeadChoice.png","","","","","","","","","",""
"image-keyboard-response","24","189273","0.0-3.0-4.0-1.0-2.3","5dd742a140460e6e2b707d58","6662009ae78f21dd82fcd179","66620cf7bcb7c756bda0ea70","null","","null","","","","","","","","./tasks/HMM-beads/Images/BlackBeadChoiceCorrect.png","","","","","","","","","",""
"image-keyboard-response","25","189937","0.0-3.0-4.0-1.0-0.4","5dd742a140460e6e2b707d58","6662009ae78f21dd82fcd179","66620cf7bcb7c756bda0ea70","658","","f","","","","","","","","./tasks/HMM-beads/Images/NewTrialBC.png","practice","0","4","0","0","0","0","true","",""
"image-keyboard-response","26","190240","0.0-3.0-4.0-1.0-1.4","5dd742a140460e6e2b707d58","6662009ae78f21dd82fcd179","66620cf7bcb7c756bda0ea70","null","","null","","","","","","","","./tasks/HMM-beads/Images/BlackBeadChoice.png","","","","","","","","","",""
"image-keyboard-response","27","190746","0.0-3.0-4.0-1.0-2.4","5dd742a140460e6e2b707d58","6662009ae78f21dd82fcd179","66620cf7bcb7c756bda0ea70","null","","null","","","","","","","","./tasks/HMM-beads/Images/BlackBeadChoiceCorrect.png","","","","","","","","","",""
"image-keyboard-response","28","191574","0.0-3.0-4.0-1.0-0.5","5dd742a140460e6e2b707d58","6662009ae78f21dd82fcd179","66620cf7bcb7c756bda0ea70","827","","f","","","","","","","","./tasks/HMM-beads/Images/NewTrialBC.png","practice","0","5","0","1","0","0","false","",""
"image-keyboard-response","29","191876","0.0-3.0-4.0-1.0-1.5","5dd742a140460e6e2b707d58","6662009ae78f21dd82fcd179","66620cf7bcb7c756bda0ea70","null","","null","","","","","","","","./tasks/HMM-beads/Images/BlackBeadChoice.png","","","","","","","","","",""
"image-keyboard-response","30","192380","0.0-3.0-4.0-1.0-2.5","5dd742a140460e6e2b707d58","6662009ae78f21dd82fcd179","66620cf7bcb7c756bda0ea70","null","","null","","","","","","","","./tasks/HMM-beads/Images/BlackBeadChoiceWrong.png","","","","","","","","","",""
"image-keyboard-response","31","193015","0.0-3.0-4.0-1.0-0.6","5dd742a140460e6e2b707d58","6662009ae78f21dd82fcd179","66620cf7bcb7c756bda0ea70","634","","f","","","","","","","","./tasks/HMM-beads/Images/NewTrialWC.png","practice","0","6","0","0","1","0","true","",""
"image-keyboard-response","32","193331","0.0-3.0-4.0-1.0-1.6","5dd742a140460e6e2b707d58","6662009ae78f21dd82fcd179","66620cf7bcb7c756bda0ea70","null","","null","","","","","","","","./tasks/HMM-beads/Images/BlackBeadChoice.png","","","","","","","","","",""
"image-keyboard-response","33","193837","0.0-3.0-4.0-1.0-2.6","5dd742a140460e6e2b707d58","6662009ae78f21dd82fcd179","66620cf7bcb7c756bda0ea70","null","","null","","","","","","","","./tasks/HMM-beads/Images/BlackBeadChoiceCorrect.png","","","","","","","","","",""
"image-keyboard-response","34","194288","0.0-3.0-4.0-1.0-0.7","5dd742a140460e6e2b707d58","6662009ae78f21dd82fcd179","66620cf7bcb7c756bda0ea70","450","","j","","","","","","","","./tasks/HMM-beads/Images/NewTrialBC.png","practice","0","7","0","0","0","1","false","",""
"image-keyboard-response","35","194600","0.0-3.0-4.0-1.0-1.7","5dd742a140460e6e2b707d58","6662009ae78f21dd82fcd179","66620cf7bcb7c756bda0ea70","null","","null","","","","","","","","./tasks/HMM-beads/Images/WhiteBeadChoice.png","","","","","","","","","",""
"image-keyboard-response","36","195107","0.0-3.0-4.0-1.0-2.7","5dd742a140460e6e2b707d58","6662009ae78f21dd82fcd179","66620cf7bcb7c756bda0ea70","null","","null","","","","","","","","./tasks/HMM-beads/Images/WhiteBeadChoiceWrong.png","","","","","","","","","",""
"image-keyboard-response","37","195468","0.0-3.0-4.0-1.0-0.8","5dd742a140460e6e2b707d58","6662009ae78f21dd82fcd179","66620cf7bcb7c756bda0ea70","359","","j","","","","","","","","./tasks/HMM-beads/Images/NewTrialBC.png","practice","0","8","0","0","0","1","false","",""
"image-keyboard-response","38","195772","0.0-3.0-4.0-1.0-1.8","5dd742a140460e6e2b707d58","6662009ae78f21dd82fcd179","66620cf7bcb7c756bda0ea70","null","","null","","","","","","","","./tasks/HMM-beads/Images/WhiteBeadChoice.png","","","","","","","","","",""
"image-keyboard-response","39","196281","0.0-3.0-4.0-1.0-2.8","5dd742a140460e6e2b707d58","6662009ae78f21dd82fcd179","66620cf7bcb7c756bda0ea70","null","","null","","","","","","","","./tasks/HMM-beads/Images/WhiteBeadChoiceWrong.png","","","","","","","","","",""
"image-keyboard-response","40","196721","0.0-3.0-4.0-1.0-0.9","5dd742a140460e6e2b707d58","6662009ae78f21dd82fcd179","66620cf7bcb7c756bda0ea70","440","","j","","","","","","","","./tasks/HMM-beads/Images/NewTrialBC.png","practice","0","9","0","1","0","1","true","",""
"image-keyboard-response","41","197025","0.0-3.0-4.0-1.0-1.9","5dd742a140460e6e2b707d58","6662009ae78f21dd82fcd179","66620cf7bcb7c756bda0ea70","null","","null","","","","","","","","./tasks/HMM-beads/Images/WhiteBeadChoice.png","","","","","","","","","",""
"image-keyboard-response","42","197534","0.0-3.0-4.0-1.0-2.9","5dd742a140460e6e2b707d58","6662009ae78f21dd82fcd179","66620cf7bcb7c756bda0ea70","null","","null","","","","","","","","./tasks/HMM-beads/Images/WhiteBeadChoiceCorrect.png","","","","","","","","","",""
"image-keyboard-response","43","198098","0.0-3.0-4.0-1.0-0.10","5dd742a140460e6e2b707d58","6662009ae78f21dd82fcd179","66620cf7bcb7c756bda0ea70","562","","f","","","","","","","","./tasks/HMM-beads/Images/NewTrialWC.png","practice","0","10","0","0","1","0","true","",""
"image-keyboard-response","44","198407","0.0-3.0-4.0-1.0-1.10","5dd742a140460e6e2b707d58","6662009ae78f21dd82fcd179","66620cf7bcb7c756bda0ea70","null","","null","","","","","","","","./tasks/HMM-beads/Images/BlackBeadChoice.png","","","","","","","","","",""
"image-keyboard-response","45","198914","0.0-3.0-4.0-1.0-2.10","5dd742a140460e6e2b707d58","6662009ae78f21dd82fcd179","66620cf7bcb7c756bda0ea70","null","","null","","","","","","","","./tasks/HMM-beads/Images/BlackBeadChoiceCorrect.png","","","","","","","","","",""
"image-keyboard-response","46","199334","0.0-3.0-4.0-1.0-0.11","5dd742a140460e6e2b707d58","6662009ae78f21dd82fcd179","66620cf7bcb7c756bda0ea70","420","","f","","","","","","","","./tasks/HMM-beads/Images/NewTrialBC.png","practice","0","11","0","1","0","0","false","",""
"image-keyboard-response","47","199644","0.0-3.0-4.0-1.0-1.11","5dd742a140460e6e2b707d58","6662009ae78f21dd82fcd179","66620cf7bcb7c756bda0ea70","null","","null","","","","","","","","./tasks/HMM-beads/Images/BlackBeadChoice.png","","","","","","","","","",""
"image-keyboard-response","48","200150","0.0-3.0-4.0-1.0-2.11","5dd742a140460e6e2b707d58","6662009ae78f21dd82fcd179","66620cf7bcb7c756bda0ea70","null","","null","","","","","","","","./tasks/HMM-beads/Images/BlackBeadChoiceWrong.png","","","","","","","","","",""
"image-keyboard-response","49","200471","0.0-3.0-4.0-1.0-0.12","5dd742a140460e6e2b707d58","6662009ae78f21dd82fcd179","66620cf7bcb7c756bda0ea70","320","","f","","","","","","","","./tasks/HMM-beads/Images/NewTrialWC.png","practice","0","12","0","0","1","0","true","",""
"image-keyboard-response","50","200785","0.0-3.0-4.0-1.0-1.12","5dd742a140460e6e2b707d58","6662009ae78f21dd82fcd179","66620cf7bcb7c756bda0ea70","null","","null","","","","","","","","./tasks/HMM-beads/Images/BlackBeadChoice.png","","","","","","","","","",""
"image-keyboard-response","51","201292","0.0-3.0-4.0-1.0-2.12","5dd742a140460e6e2b707d58","6662009ae78f21dd82fcd179","66620cf7bcb7c756bda0ea70","null","","null","","","","","","","","./tasks/HMM-beads/Images/BlackBeadChoiceCorrect.png","","","","","","","","","",""
"image-keyboard-response","52","201660","0.0-3.0-4.0-1.0-0.13","5dd742a140460e6e2b707d58","6662009ae78f21dd82fcd179","66620cf7bcb7c756bda0ea70","367","","f","","","","","","","","./tasks/HMM-beads/Images/NewTrialBC.png","practice","0","13","0","0","0","0","true","",""
"image-keyboard-response","53","201962","0.0-3.0-4.0-1.0-1.13","5dd742a140460e6e2b707d58","6662009ae78f21dd82fcd179","66620cf7bcb7c756bda0ea70","null","","null","","","","","","","","./tasks/HMM-beads/Images/BlackBeadChoice.png","","","","","","","","","",""
"image-keyboard-response","54","202470","0.0-3.0-4.0-1.0-2.13","5dd742a140460e6e2b707d58","6662009ae78f21dd82fcd179","66620cf7bcb7c756bda0ea70","null","","null","","","","","","","","./tasks/HMM-beads/Images/BlackBeadChoiceCorrect.png","","","","","","","","","",""
"image-keyboard-response","55","202780","0.0-3.0-4.0-1.0-0.14","5dd742a140460e6e2b707d58","6662009ae78f21dd82fcd179","66620cf7bcb7c756bda0ea70","309","","f","","","","","","","","./tasks/HMM-beads/Images/NewTrialBC.png","practice","0","14","0","0","0","0","true","",""
"image-keyboard-response","56","203085","0.0-3.0-4.0-1.0-1.14","5dd742a140460e6e2b707d58","6662009ae78f21dd82fcd179","66620cf7bcb7c756bda0ea70","null","","null","","","","","","","","./tasks/HMM-beads/Images/BlackBeadChoice.png","","","","","","","","","",""
"image-keyboard-response","57","203593","0.0-3.0-4.0-1.0-2.14","5dd742a140460e6e2b707d58","6662009ae78f21dd82fcd179","66620cf7bcb7c756bda0ea70","null","","null","","","","","","","","./tasks/HMM-beads/Images/BlackBeadChoiceCorrect.png","","","","","","","","","",""
"image-keyboard-response","58","204049","0.0-3.0-4.0-1.0-0.15","5dd742a140460e6e2b707d58","6662009ae78f21dd82fcd179","66620cf7bcb7c756bda0ea70","455","","j","","","","","","","","./tasks/HMM-beads/Images/NewTrialBC.png","practice","0","15","0","0","0","1","false","",""
"image-keyboard-response","59","204357","0.0-3.0-4.0-1.0-1.15","5dd742a140460e6e2b707d58","6662009ae78f21dd82fcd179","66620cf7bcb7c756bda0ea70","null","","null","","","","","","","","./tasks/HMM-beads/Images/WhiteBeadChoice.png","","","","","","","","","",""
"image-keyboard-response","60","204866","0.0-3.0-4.0-1.0-2.15","5dd742a140460e6e2b707d58","6662009ae78f21dd82fcd179","66620cf7bcb7c756bda0ea70","null","","null","","","","","","","","./tasks/HMM-beads/Images/WhiteBeadChoiceWrong.png","","","","","","","","","",""
"image-keyboard-response","61","205015","0.0-3.0-4.0-1.0-0.16","5dd742a140460e6e2b707d58","6662009ae78f21dd82fcd179","66620cf7bcb7c756bda0ea70","147","","j","","","","","","","","./tasks/HMM-beads/Images/NewTrialBC.png","practice","0","16","0","0","0","1","false","",""
"image-keyboard-response","62","205329","0.0-3.0-4.0-1.0-1.16","5dd742a140460e6e2b707d58","6662009ae78f21dd82fcd179","66620cf7bcb7c756bda0ea70","null","","null","","","","","","","","./tasks/HMM-beads/Images/WhiteBeadChoice.png","","","","","","","","","",""
"image-keyboard-response","63","205838","0.0-3.0-4.0-1.0-2.16","5dd742a140460e6e2b707d58","6662009ae78f21dd82fcd179","66620cf7bcb7c756bda0ea70","null","","null","","","","","","","","./tasks/HMM-beads/Images/WhiteBeadChoiceWrong.png","","","","","","","","","",""
"image-keyboard-response","64","206238","0.0-3.0-4.0-1.0-0.17","5dd742a140460e6e2b707d58","6662009ae78f21dd82fcd179","66620cf7bcb7c756bda0ea70","396","","j","","","","","","","","./tasks/HMM-beads/Images/NewTrialBC.png","practice","0","17","0","0","0","1","false","",""
"image-keyboard-response","65","206553","0.0-3.0-4.0-1.0-1.17","5dd742a140460e6e2b707d58","6662009ae78f21dd82fcd179","66620cf7bcb7c756bda0ea70","null","","null","","","","","","","","./tasks/HMM-beads/Images/WhiteBeadChoice.png","","","","","","","","","",""
"image-keyboard-response","66","207060","0.0-3.0-4.0-1.0-2.17","5dd742a140460e6e2b707d58","6662009ae78f21dd82fcd179","66620cf7bcb7c756bda0ea70","null","","null","","","","","","","","./tasks/HMM-beads/Images/WhiteBeadChoiceWrong.png","","","","","","","","","",""
"image-keyboard-response","67","207283","0.0-3.0-4.0-1.0-0.18","5dd742a140460e6e2b707d58","6662009ae78f21dd82fcd179","66620cf7bcb7c756bda0ea70","221","","f","","","","","","","","./tasks/HMM-beads/Images/NewTrialBC.png","practice","0","18","0","1","0","0","false","",""
"image-keyboard-response","68","207586","0.0-3.0-4.0-1.0-1.18","5dd742a140460e6e2b707d58","6662009ae78f21dd82fcd179","66620cf7bcb7c756bda0ea70","null","","null","","","","","","","","./tasks/HMM-beads/Images/BlackBeadChoice.png","","","","","","","","","",""
"image-keyboard-response","69","208095","0.0-3.0-4.0-1.0-2.18","5dd742a140460e6e2b707d58","6662009ae78f21dd82fcd179","66620cf7bcb7c756bda0ea70","null","","null","","","","","","","","./tasks/HMM-beads/Images/BlackBeadChoiceWrong.png","","","","","","","","","",""
"image-keyboard-response","70","208388","0.0-3.0-4.0-1.0-0.19","5dd742a140460e6e2b707d58","6662009ae78f21dd82fcd179","66620cf7bcb7c756bda0ea70","293","","f","","","","","","","","./tasks/HMM-beads/Images/NewTrialWC.png","practice","0","19","0","0","1","0","true","",""
"image-keyboard-response","71","208696","0.0-3.0-4.0-1.0-1.19","5dd742a140460e6e2b707d58","6662009ae78f21dd82fcd179","66620cf7bcb7c756bda0ea70","null","","null","","","","","","","","./tasks/HMM-beads/Images/BlackBeadChoice.png","","","","","","","","","",""
"image-keyboard-response","72","209204","0.0-3.0-4.0-1.0-2.19","5dd742a140460e6e2b707d58","6662009ae78f21dd82fcd179","66620cf7bcb7c756bda0ea70","null","","null","","","","","","","","./tasks/HMM-beads/Images/BlackBeadChoiceCorrect.png","","","","","","","","","",""
"image-keyboard-response","73","209469","0.0-3.0-4.0-1.0-0.20","5dd742a140460e6e2b707d58","6662009ae78f21dd82fcd179","66620cf7bcb7c756bda0ea70","262","","f","","","","","","","","./tasks/HMM-beads/Images/NewTrialBC.png","practice","0","20","0","0","0","0","true","",""
"image-keyboard-response","74","209773","0.0-3.0-4.0-1.0-1.20","5dd742a140460e6e2b707d58","6662009ae78f21dd82fcd179","66620cf7bcb7c756bda0ea70","null","","null","","","","","","","","./tasks/HMM-beads/Images/BlackBeadChoice.png","","","","","","","","","",""
"image-keyboard-response","75","210283","0.0-3.0-4.0-1.0-2.20","5dd742a140460e6e2b707d58","6662009ae78f21dd82fcd179","66620cf7bcb7c756bda0ea70","null","","null","","","","","","","","./tasks/HMM-beads/Images/BlackBeadChoiceCorrect.png","","","","","","","","","",""
"image-keyboard-response","76","210497","0.0-3.0-4.0-1.0-0.21","5dd742a140460e6e2b707d58","6662009ae78f21dd82fcd179","66620cf7bcb7c756bda0ea70","213","","f","","","","","","","","./tasks/HMM-beads/Images/NewTrialBC.png","practice","0","21","0","1","0","0","false","",""
"image-keyboard-response","77","210806","0.0-3.0-4.0-1.0-1.21","5dd742a140460e6e2b707d58","6662009ae78f21dd82fcd179","66620cf7bcb7c756bda0ea70","null","","null","","","","","","","","./tasks/HMM-beads/Images/BlackBeadChoice.png","","","","","","","","","",""
"image-keyboard-response","78","211315","0.0-3.0-4.0-1.0-2.21","5dd742a140460e6e2b707d58","6662009ae78f21dd82fcd179","66620cf7bcb7c756bda0ea70","null","","null","","","","","","","","./tasks/HMM-beads/Images/BlackBeadChoiceWrong.png","","","","","","","","","",""
"image-keyboard-response","79","211733","0.0-3.0-4.0-1.0-0.22","5dd742a140460e6e2b707d58","6662009ae78f21dd82fcd179","66620cf7bcb7c756bda0ea70","418","","f","","","","","","","","./tasks/HMM-beads/Images/NewTrialWC.png","practice","0","22","1","1","1","0","false","",""
"image-keyboard-response","80","212044","0.0-3.0-4.0-1.0-1.22","5dd742a140460e6e2b707d58","6662009ae78f21dd82fcd179","66620cf7bcb7c756bda0ea70","null","","null","","","","","","","","./tasks/HMM-beads/Images/BlackBeadChoice.png","","","","","","","","","",""
"image-keyboard-response","81","212552","0.0-3.0-4.0-1.0-2.22","5dd742a140460e6e2b707d58","6662009ae78f21dd82fcd179","66620cf7bcb7c756bda0ea70","null","","null","","","","","","","","./tasks/HMM-beads/Images/BlackBeadChoiceWrong.png","","","","","","","","","",""
"image-keyboard-response","82","212998","0.0-3.0-4.0-1.0-0.23","5dd742a140460e6e2b707d58","6662009ae78f21dd82fcd179","66620cf7bcb7c756bda0ea70","446","","j","","","","","","","","./tasks/HMM-beads/Images/NewTrialWC.png","practice","0","23","1","0","1","1","false","",""
"image-keyboard-response","83","213312","0.0-3.0-4.0-1.0-1.23","5dd742a140460e6e2b707d58","6662009ae78f21dd82fcd179","66620cf7bcb7c756bda0ea70","null","","null","","","","","","","","./tasks/HMM-beads/Images/WhiteBeadChoice.png","","","","","","","","","",""
"image-keyboard-response","84","213819","0.0-3.0-4.0-1.0-2.23","5dd742a140460e6e2b707d58","6662009ae78f21dd82fcd179","66620cf7bcb7c756bda0ea70","null","","null","","","","","","","","./tasks/HMM-beads/Images/WhiteBeadChoiceWrong.png","","","","","","","","","",""
"image-keyboard-response","85","214296","0.0-3.0-4.0-1.0-0.24","5dd742a140460e6e2b707d58","6662009ae78f21dd82fcd179","66620cf7bcb7c756bda0ea70","475","","f","","","","","","","","./tasks/HMM-beads/Images/NewTrialBC.png","practice","0","24","1","1","0","0","false","",""
"image-keyboard-response","86","214598","0.0-3.0-4.0-1.0-1.24","5dd742a140460e6e2b707d58","6662009ae78f21dd82fcd179","66620cf7bcb7c756bda0ea70","null","","null","","","","","","","","./tasks/HMM-beads/Images/BlackBeadChoice.png","","","","","","","","","",""
"image-keyboard-response","87","215102","0.0-3.0-4.0-1.0-2.24","5dd742a140460e6e2b707d58","6662009ae78f21dd82fcd179","66620cf7bcb7c756bda0ea70","null","","null","","","","","","","","./tasks/HMM-beads/Images/BlackBeadChoiceWrong.png","","","","","","","","","",""
"image-keyboard-response","88","215425","0.0-3.0-4.0-1.0-0.25","5dd742a140460e6e2b707d58","6662009ae78f21dd82fcd179","66620cf7bcb7c756bda0ea70","322","","f","","","","","","","","./tasks/HMM-beads/Images/NewTrialWC.png","practice","0","25","1","1","1","0","false","",""
"image-keyboard-response","89","215727","0.0-3.0-4.0-1.0-1.25","5dd742a140460e6e2b707d58","6662009ae78f21dd82fcd179","66620cf7bcb7c756bda0ea70","null","","null","","","","","","","","./tasks/HMM-beads/Images/BlackBeadChoice.png","","","","","","","","","",""
"image-keyboard-response","90","216245","0.0-3.0-4.0-1.0-2.25","5dd742a140460e6e2b707d58","6662009ae78f21dd82fcd179","66620cf7bcb7c756bda0ea70","null","","null","","","","","","","","./tasks/HMM-beads/Images/BlackBeadChoiceWrong.png","","","","","","","","","",""
"image-keyboard-response","91","216530","0.0-3.0-4.0-1.0-0.26","5dd742a140460e6e2b707d58","6662009ae78f21dd82fcd179","66620cf7bcb7c756bda0ea70","283","","f","","","","","","","","./tasks/HMM-beads/Images/NewTrialWC.png","practice","0","26","1","1","1","0","false","",""
"image-keyboard-response","92","216832","0.0-3.0-4.0-1.0-1.26","5dd742a140460e6e2b707d58","6662009ae78f21dd82fcd179","66620cf7bcb7c756bda0ea70","null","","null","","","","","","","","./tasks/HMM-beads/Images/BlackBeadChoice.png","","","","","","","","","",""
"image-keyboard-response","93","217340","0.0-3.0-4.0-1.0-2.26","5dd742a140460e6e2b707d58","6662009ae78f21dd82fcd179","66620cf7bcb7c756bda0ea70","null","","null","","","","","","","","./tasks/HMM-beads/Images/BlackBeadChoiceWrong.png","","","","","","","","","",""
"image-keyboard-response","94","217613","0.0-3.0-4.0-1.0-0.27","5dd742a140460e6e2b707d58","6662009ae78f21dd82fcd179","66620cf7bcb7c756bda0ea70","272","","f","","","","","","","","./tasks/HMM-beads/Images/NewTrialWC.png","practice","0","27","1","1","1","0","false","",""
"image-keyboard-response","95","217927","0.0-3.0-4.0-1.0-1.27","5dd742a140460e6e2b707d58","6662009ae78f21dd82fcd179","66620cf7bcb7c756bda0ea70","null","","null","","","","","","","","./tasks/HMM-beads/Images/BlackBeadChoice.png","","","","","","","","","",""
"image-keyboard-response","96","218434","0.0-3.0-4.0-1.0-2.27","5dd742a140460e6e2b707d58","6662009ae78f21dd82fcd179","66620cf7bcb7c756bda0ea70","null","","null","","","","","","","","./tasks/HMM-beads/Images/BlackBeadChoiceWrong.png","","","","","","","","","",""
"image-keyboard-response","97","218906","0.0-3.0-4.0-1.0-0.28","5dd742a140460e6e2b707d58","6662009ae78f21dd82fcd179","66620cf7bcb7c756bda0ea70","472","","f","","","","","","","","./tasks/HMM-beads/Images/NewTrialWC.png","practice","0","28","1","0","1","0","true","",""
"image-keyboard-response","98","219211","0.0-3.0-4.0-1.0-1.28","5dd742a140460e6e2b707d58","6662009ae78f21dd82fcd179","66620cf7bcb7c756bda0ea70","null","","null","","","","","","","","./tasks/HMM-beads/Images/BlackBeadChoice.png","","","","","","","","","",""
"image-keyboard-response","99","219717","0.0-3.0-4.0-1.0-2.28","5dd742a140460e6e2b707d58","6662009ae78f21dd82fcd179","66620cf7bcb7c756bda0ea70","null","","null","","","","","","","","./tasks/HMM-beads/Images/BlackBeadChoiceCorrect.png","","","","","","","","","",""
"image-keyboard-response","100","220359","0.0-3.0-4.0-1.0-0.29","5dd742a140460e6e2b707d58","6662009ae78f21dd82fcd179","66620cf7bcb7c756bda0ea70","642","","f","","","","","","","","./tasks/HMM-beads/Images/NewTrialBC.png","practice","0","29","1","1","0","0","false","",""
"image-keyboard-response","101","220671","0.0-3.0-4.0-1.0-1.29","5dd742a140460e6e2b707d58","6662009ae78f21dd82fcd179","66620cf7bcb7c756bda0ea70","null","","null","","","","","","","","./tasks/HMM-beads/Images/BlackBeadChoice.png","","","","","","","","","",""
"image-keyboard-response","102","221181","0.0-3.0-4.0-1.0-2.29","5dd742a140460e6e2b707d58","6662009ae78f21dd82fcd179","66620cf7bcb7c756bda0ea70","null","","null","","","","","","","","./tasks/HMM-beads/Images/BlackBeadChoiceWrong.png","","","","","","","","","",""
"image-keyboard-response","103","221460","0.0-3.0-4.0-1.0-0.30","5dd742a140460e6e2b707d58","6662009ae78f21dd82fcd179","66620cf7bcb7c756bda0ea70","276","","f","","","","","","","","./tasks/HMM-beads/Images/NewTrialWC.png","practice","0","30","1","0","1","0","true","",""
"image-keyboard-response","104","221771","0.0-3.0-4.0-1.0-1.30","5dd742a140460e6e2b707d58","6662009ae78f21dd82fcd179","66620cf7bcb7c756bda0ea70","null","","null","","","","","","","","./tasks/HMM-beads/Images/BlackBeadChoice.png","","","","","","","","","",""
"image-keyboard-response","105","222280","0.0-3.0-4.0-1.0-2.30","5dd742a140460e6e2b707d58","6662009ae78f21dd82fcd179","66620cf7bcb7c756bda0ea70","null","","null","","","","","","","","./tasks/HMM-beads/Images/BlackBeadChoiceCorrect.png","","","","","","","","","",""
"image-keyboard-response","106","222581","0.0-3.0-4.0-1.0-0.31","5dd742a140460e6e2b707d58","6662009ae78f21dd82fcd179","66620cf7bcb7c756bda0ea70","300","","j","","","","","","","","./tasks/HMM-beads/Images/NewTrialBC.png","practice","0","31","1","1","0","1","true","",""
"image-keyboard-response","107","222896","0.0-3.0-4.0-1.0-1.31","5dd742a140460e6e2b707d58","6662009ae78f21dd82fcd179","66620cf7bcb7c756bda0ea70","null","","null","","","","","","","","./tasks/HMM-beads/Images/WhiteBeadChoice.png","","","","","","","","","",""
"image-keyboard-response","108","223405","0.0-3.0-4.0-1.0-2.31","5dd742a140460e6e2b707d58","6662009ae78f21dd82fcd179","66620cf7bcb7c756bda0ea70","null","","null","","","","","","","","./tasks/HMM-beads/Images/WhiteBeadChoiceCorrect.png","","","","","","","","","",""
"image-keyboard-response","109","223774","0.0-3.0-4.0-1.0-0.32","5dd742a140460e6e2b707d58","6662009ae78f21dd82fcd179","66620cf7bcb7c756bda0ea70","369","","j","","","","","","","","./tasks/HMM-beads/Images/NewTrialWC.png","practice","0","32","1","1","1","1","true","",""
"image-keyboard-response","110","224087","0.0-3.0-4.0-1.0-1.32","5dd742a140460e6e2b707d58","6662009ae78f21dd82fcd179","66620cf7bcb7c756bda0ea70","null","","null","","","","","","","","./tasks/HMM-beads/Images/WhiteBeadChoice.png","","","","","","","","","",""
"image-keyboard-response","111","224594","0.0-3.0-4.0-1.0-2.32","5dd742a140460e6e2b707d58","6662009ae78f21dd82fcd179","66620cf7bcb7c756bda0ea70","null","","null","","","","","","","","./tasks/HMM-beads/Images/WhiteBeadChoiceCorrect.png","","","","","","","","","",""
"image-keyboard-response","112","224990","0.0-3.0-4.0-1.0-0.33","5dd742a140460e6e2b707d58","6662009ae78f21dd82fcd179","66620cf7bcb7c756bda0ea70","394","","f","","","","","","","","./tasks/HMM-beads/Images/NewTrialWC.png","practice","0","33","1","1","1","0","false","",""
"image-keyboard-response","113","225292","0.0-3.0-4.0-1.0-1.33","5dd742a140460e6e2b707d58","6662009ae78f21dd82fcd179","66620cf7bcb7c756bda0ea70","null","","null","","","","","","","","./tasks/HMM-beads/Images/BlackBeadChoice.png","","","","","","","","","",""
"image-keyboard-response","114","225800","0.0-3.0-4.0-1.0-2.33","5dd742a140460e6e2b707d58","6662009ae78f21dd82fcd179","66620cf7bcb7c756bda0ea70","null","","null","","","","","","","","./tasks/HMM-beads/Images/BlackBeadChoiceWrong.png","","","","","","","","","",""
"image-keyboard-response","115","226083","0.0-3.0-4.0-1.0-0.34","5dd742a140460e6e2b707d58","6662009ae78f21dd82fcd179","66620cf7bcb7c756bda0ea70","283","","f","","","","","","","","./tasks/HMM-beads/Images/NewTrialWC.png","practice","0","34","1","1","1","0","false","",""
"image-keyboard-response","116","226389","0.0-3.0-4.0-1.0-1.34","5dd742a140460e6e2b707d58","6662009ae78f21dd82fcd179","66620cf7bcb7c756bda0ea70","null","","null","","","","","","","","./tasks/HMM-beads/Images/BlackBeadChoice.png","","","","","","","","","",""
"image-keyboard-response","117","226897","0.0-3.0-4.0-1.0-2.34","5dd742a140460e6e2b707d58","6662009ae78f21dd82fcd179","66620cf7bcb7c756bda0ea70","null","","null","","","","","","","","./tasks/HMM-beads/Images/BlackBeadChoiceWrong.png","","","","","","","","","",""
"image-keyboard-response","118","227159","0.0-3.0-4.0-1.0-0.35","5dd742a140460e6e2b707d58","6662009ae78f21dd82fcd179","66620cf7bcb7c756bda0ea70","261","","f","","","","","","","","./tasks/HMM-beads/Images/NewTrialWC.png","practice","0","35","1","1","1","0","false","",""
"image-keyboard-response","119","227471","0.0-3.0-4.0-1.0-1.35","5dd742a140460e6e2b707d58","6662009ae78f21dd82fcd179","66620cf7bcb7c756bda0ea70","null","","null","","","","","","","","./tasks/HMM-beads/Images/BlackBeadChoice.png","","","","","","","","","",""
"image-keyboard-response","120","227976","0.0-3.0-4.0-1.0-2.35","5dd742a140460e6e2b707d58","6662009ae78f21dd82fcd179","66620cf7bcb7c756bda0ea70","null","","null","","","","","","","","./tasks/HMM-beads/Images/BlackBeadChoiceWrong.png","","","","","","","","","",""
"image-keyboard-response","121","228248","0.0-3.0-4.0-1.0-0.36","5dd742a140460e6e2b707d58","6662009ae78f21dd82fcd179","66620cf7bcb7c756bda0ea70","271","","f","","","","","","","","./tasks/HMM-beads/Images/NewTrialWC.png","practice","0","36","1","0","1","0","true","",""
"image-keyboard-response","122","228560","0.0-3.0-4.0-1.0-1.36","5dd742a140460e6e2b707d58","6662009ae78f21dd82fcd179","66620cf7bcb7c756bda0ea70","null","","null","","","","","","","","./tasks/HMM-beads/Images/BlackBeadChoice.png","","","","","","","","","",""
"image-keyboard-response","123","229068","0.0-3.0-4.0-1.0-2.36","5dd742a140460e6e2b707d58","6662009ae78f21dd82fcd179","66620cf7bcb7c756bda0ea70","null","","null","","","","","","","","./tasks/HMM-beads/Images/BlackBeadChoiceCorrect.png","","","","","","","","","",""
"image-keyboard-response","124","229333","0.0-3.0-4.0-1.0-0.37","5dd742a140460e6e2b707d58","6662009ae78f21dd82fcd179","66620cf7bcb7c756bda0ea70","264","","f","","","","","","","","./tasks/HMM-beads/Images/NewTrialBC.png","practice","0","37","1","1","0","0","false","",""
"image-keyboard-response","125","229639","0.0-3.0-4.0-1.0-1.37","5dd742a140460e6e2b707d58","6662009ae78f21dd82fcd179","66620cf7bcb7c756bda0ea70","null","","null","","","","","","","","./tasks/HMM-beads/Images/BlackBeadChoice.png","","","","","","","","","",""
"image-keyboard-response","126","230146","0.0-3.0-4.0-1.0-2.37","5dd742a140460e6e2b707d58","6662009ae78f21dd82fcd179","66620cf7bcb7c756bda0ea70","null","","null","","","","","","","","./tasks/HMM-beads/Images/BlackBeadChoiceWrong.png","","","","","","","","","",""
"image-keyboard-response","127","230397","0.0-3.0-4.0-1.0-0.38","5dd742a140460e6e2b707d58","6662009ae78f21dd82fcd179","66620cf7bcb7c756bda0ea70","250","","j","","","","","","","","./tasks/HMM-beads/Images/NewTrialWC.png","practice","0","38","1","1","1","1","true","",""
"image-keyboard-response","128","230703","0.0-3.0-4.0-1.0-1.38","5dd742a140460e6e2b707d58","6662009ae78f21dd82fcd179","66620cf7bcb7c756bda0ea70","null","","null","","","","","","","","./tasks/HMM-beads/Images/WhiteBeadChoice.png","","","","","","","","","",""
"image-keyboard-response","129","231208","0.0-3.0-4.0-1.0-2.38","5dd742a140460e6e2b707d58","6662009ae78f21dd82fcd179","66620cf7bcb7c756bda0ea70","null","","null","","","","","","","","./tasks/HMM-beads/Images/WhiteBeadChoiceCorrect.png","","","","","","","","","",""
"image-keyboard-response","130","231454","0.0-3.0-4.0-1.0-0.39","5dd742a140460e6e2b707d58","6662009ae78f21dd82fcd179","66620cf7bcb7c756bda0ea70","245","","f","","","","","","","","./tasks/HMM-beads/Images/NewTrialWC.png","practice","0","39","1","1","1","0","false","",""
"image-keyboard-response","131","231765","0.0-3.0-4.0-1.0-1.39","5dd742a140460e6e2b707d58","6662009ae78f21dd82fcd179","66620cf7bcb7c756bda0ea70","null","","null","","","","","","","","./tasks/HMM-beads/Images/BlackBeadChoice.png","","","","","","","","","",""
"image-keyboard-response","132","232273","0.0-3.0-4.0-1.0-2.39","5dd742a140460e6e2b707d58","6662009ae78f21dd82fcd179","66620cf7bcb7c756bda0ea70","null","","null","","","","","","","","./tasks/HMM-beads/Images/BlackBeadChoiceWrong.png","","","","","","","","","",""
"html-keyboard-response","133","234916","0.0-3.0-4.0-2.0","5dd742a140460e6e2b707d58","6662009ae78f21dd82fcd179","66620cf7bcb7c756bda0ea70","2642",""," ","","","","","","","","","","","","","","","","","",""
"instructions","134","251021","0.0-3.0-5.0","5dd742a140460e6e2b707d58","6662009ae78f21dd82fcd179","66620cf7bcb7c756bda0ea70","16106","","","","[{""page_index"":0,""viewing_time"":10448},{""page_index"":1,""viewing_time"":5657}]","","","","","","","","","","","","","","","",""
"html-keyboard-response","135","254639","0.0-3.0-6.0-0.0","5dd742a140460e6e2b707d58","6662009ae78f21dd82fcd179","66620cf7bcb7c756bda0ea70","3616",""," ","","","","","","","","<div align=center>In this block, there will be a <b>1% chance</b> that the jar on the next trial will be different from the jar on the current trial.<br><br></div>","","","","","","","","","",""
"image-keyboard-response","136","255615","0.0-3.0-6.0-1.0-0.0","5dd742a140460e6e2b707d58","6662009ae78f21dd82fcd179","66620cf7bcb7c756bda0ea70","976","","f","","","","","","","","./tasks/HMM-beads/Images/NoChoice.png","lowH","1","0","1","0","9","0","true","",""
"image-keyboard-response","137","255919","0.0-3.0-6.0-1.0-1.0","5dd742a140460e6e2b707d58","6662009ae78f21dd82fcd179","66620cf7bcb7c756bda0ea70","null","","null","","","","","","","","./tasks/HMM-beads/Images/BlackBeadChoice.png","","","","","","","","","",""
"image-keyboard-response","138","256428","0.0-3.0-6.0-1.0-2.0","5dd742a140460e6e2b707d58","6662009ae78f21dd82fcd179","66620cf7bcb7c756bda0ea70","null","","null","","","","","","","","./tasks/HMM-beads/Images/BlackBeadChoiceCorrect.png","","","","","","","","","",""
"image-keyboard-response","139","257853","0.0-3.0-6.0-1.0-0.1","5dd742a140460e6e2b707d58","6662009ae78f21dd82fcd179","66620cf7bcb7c756bda0ea70","1424","","f","","","","","","","","./tasks/HMM-beads/Images/NewTrialBC.png","lowH","1","1","1","1","0","0","false","",""
"image-keyboard-response","140","258162","0.0-3.0-6.0-1.0-1.1","5dd742a140460e6e2b707d58","6662009ae78f21dd82fcd179","66620cf7bcb7c756bda0ea70","null","","null","","","","","","","","./tasks/HMM-beads/Images/BlackBeadChoice.png","","","","","","","","","",""
"image-keyboard-response","141","258665","0.0-3.0-6.0-1.0-2.1","5dd742a140460e6e2b707d58","6662009ae78f21dd82fcd179","66620cf7bcb7c756bda0ea70","null","","null","","","","","","","","./tasks/HMM-beads/Images/BlackBeadChoiceWrong.png","","","","","","","","","",""
"image-keyboard-response","142","259112","0.0-3.0-6.0-1.0-0.2","5dd742a140460e6e2b707d58","6662009ae78f21dd82fcd179","66620cf7bcb7c756bda0ea70","446","","f","","","","","","","","./tasks/HMM-beads/Images/NewTrialWC.png","lowH","1","2","1","1","1","0","false","",""
"image-keyboard-response","143","259414","0.0-3.0-6.0-1.0-1.2","5dd742a140460e6e2b707d58","6662009ae78f21dd82fcd179","66620cf7bcb7c756bda0ea70","null","","null","","","","","","","","./tasks/HMM-beads/Images/BlackBeadChoice.png","","","","","","","","","",""
"image-keyboard-response","144","259924","0.0-3.0-6.0-1.0-2.2","5dd742a140460e6e2b707d58","6662009ae78f21dd82fcd179","66620cf7bcb7c756bda0ea70","null","","null","","","","","","","","./tasks/HMM-beads/Images/BlackBeadChoiceWrong.png","","","","","","","","","",""
"image-keyboard-response","145","260438","0.0-3.0-6.0-1.0-0.3","5dd742a140460e6e2b707d58","6662009ae78f21dd82fcd179","66620cf7bcb7c756bda0ea70","510","","f","","","","","","","","./tasks/HMM-beads/Images/NewTrialWC.png","lowH","1","3","1","1","1","0","false","",""
"image-keyboard-response","146","260749","0.0-3.0-6.0-1.0-1.3","5dd742a140460e6e2b707d58","6662009ae78f21dd82fcd179","66620cf7bcb7c756bda0ea70","null","","null","","","","","","","","./tasks/HMM-beads/Images/BlackBeadChoice.png","","","","","","","","","",""
"image-keyboard-response","147","261256","0.0-3.0-6.0-1.0-2.3","5dd742a140460e6e2b707d58","6662009ae78f21dd82fcd179","66620cf7bcb7c756bda0ea70","null","","null","","","","","","","","./tasks/HMM-beads/Images/BlackBeadChoiceWrong.png","","","","","","","","","",""
"image-keyboard-response","148","261591","0.0-3.0-6.0-1.0-0.4","5dd742a140460e6e2b707d58","6662009ae78f21dd82fcd179","66620cf7bcb7c756bda0ea70","334","","f","","","","","","","","./tasks/HMM-beads/Images/NewTrialWC.png","lowH","1","4","1","1","1","0","false","",""
"image-keyboard-response","149","261905","0.0-3.0-6.0-1.0-1.4","5dd742a140460e6e2b707d58","6662009ae78f21dd82fcd179","66620cf7bcb7c756bda0ea70","null","","null","","","","","","","","./tasks/HMM-beads/Images/BlackBeadChoice.png","","","","","","","","","",""
"image-keyboard-response","150","262414","0.0-3.0-6.0-1.0-2.4","5dd742a140460e6e2b707d58","6662009ae78f21dd82fcd179","66620cf7bcb7c756bda0ea70","null","","null","","","","","","","","./tasks/HMM-beads/Images/BlackBeadChoiceWrong.png","","","","","","","","","",""
"image-keyboard-response","151","262695","0.0-3.0-6.0-1.0-0.5","5dd742a140460e6e2b707d58","6662009ae78f21dd82fcd179","66620cf7bcb7c756bda0ea70","280","","f","","","","","","","","./tasks/HMM-beads/Images/NewTrialWC.png","lowH","1","5","1","1","1","0","false","",""
"image-keyboard-response","152","263001","0.0-3.0-6.0-1.0-1.5","5dd742a140460e6e2b707d58","6662009ae78f21dd82fcd179","66620cf7bcb7c756bda0ea70","null","","null","","","","","","","","./tasks/HMM-beads/Images/BlackBeadChoice.png","","","","","","","","","",""
"image-keyboard-response","153","263509","0.0-3.0-6.0-1.0-2.5","5dd742a140460e6e2b707d58","6662009ae78f21dd82fcd179","66620cf7bcb7c756bda0ea70","null","","null","","","","","","","","./tasks/HMM-beads/Images/BlackBeadChoiceWrong.png","","","","","","","","","",""
"image-keyboard-response","154","263776","0.0-3.0-6.0-1.0-0.6","5dd742a140460e6e2b707d58","6662009ae78f21dd82fcd179","66620cf7bcb7c756bda0ea70","266","","f","","","","","","","","./tasks/HMM-beads/Images/NewTrialWC.png","lowH","1","6","1","0","1","0","true","",""
"image-keyboard-response","155","264080","0.0-3.0-6.0-1.0-1.6","5dd742a140460e6e2b707d58","6662009ae78f21dd82fcd179","66620cf7bcb7c756bda0ea70","null","","null","","","","","","","","./tasks/HMM-beads/Images/BlackBeadChoice.png","","","","","","","","","",""
"image-keyboard-response","156","264591","0.0-3.0-6.0-1.0-2.6","5dd742a140460e6e2b707d58","6662009ae78f21dd82fcd179","66620cf7bcb7c756bda0ea70","null","","null","","","","","","","","./tasks/HMM-beads/Images/BlackBeadChoiceCorrect.png","","","","","","","","","",""
"image-keyboard-response","157","265205","0.0-3.0-6.0-1.0-0.7","5dd742a140460e6e2b707d58","6662009ae78f21dd82fcd179","66620cf7bcb7c756bda0ea70","613","","f","","","","","","","","./tasks/HMM-beads/Images/NewTrialBC.png","lowH","1","7","1","1","0","0","false","",""
"image-keyboard-response","158","265524","0.0-3.0-6.0-1.0-1.7","5dd742a140460e6e2b707d58","6662009ae78f21dd82fcd179","66620cf7bcb7c756bda0ea70","null","","null","","","","","","","","./tasks/HMM-beads/Images/BlackBeadChoice.png","","","","","","","","","",""
"image-keyboard-response","159","266031","0.0-3.0-6.0-1.0-2.7","5dd742a140460e6e2b707d58","6662009ae78f21dd82fcd179","66620cf7bcb7c756bda0ea70","null","","null","","","","","","","","./tasks/HMM-beads/Images/BlackBeadChoiceWrong.png","","","","","","","","","",""
"image-keyboard-response","160","266581","0.0-3.0-6.0-1.0-0.8","5dd742a140460e6e2b707d58","6662009ae78f21dd82fcd179","66620cf7bcb7c756bda0ea70","549","","f","","","","","","","","./tasks/HMM-beads/Images/NewTrialWC.png","lowH","1","8","1","1","1","0","false","",""
"image-keyboard-response","161","266887","0.0-3.0-6.0-1.0-1.8","5dd742a140460e6e2b707d58","6662009ae78f21dd82fcd179","66620cf7bcb7c756bda0ea70","null","","null","","","","","","","","./tasks/HMM-beads/Images/BlackBeadChoice.png","","","","","","","","","",""
"image-keyboard-response","162","267396","0.0-3.0-6.0-1.0-2.8","5dd742a140460e6e2b707d58","6662009ae78f21dd82fcd179","66620cf7bcb7c756bda0ea70","null","","null","","","","","","","","./tasks/HMM-beads/Images/BlackBeadChoiceWrong.png","","","","","","","","","",""
"image-keyboard-response","163","267698","0.0-3.0-6.0-1.0-0.9","5dd742a140460e6e2b707d58","6662009ae78f21dd82fcd179","66620cf7bcb7c756bda0ea70","300","","j","","","","","","","","./tasks/HMM-beads/Images/NewTrialWC.png","lowH","1","9","1","1","1","1","true","",""
"image-keyboard-response","164","267999","0.0-3.0-6.0-1.0-1.9","5dd742a140460e6e2b707d58","6662009ae78f21dd82fcd179","66620cf7bcb7c756bda0ea70","null","","null","","","","","","","","./tasks/HMM-beads/Images/WhiteBeadChoice.png","","","","","","","","","",""
"image-keyboard-response","165","268507","0.0-3.0-6.0-1.0-2.9","5dd742a140460e6e2b707d58","6662009ae78f21dd82fcd179","66620cf7bcb7c756bda0ea70","null","","null","","","","","","","","./tasks/HMM-beads/Images/WhiteBeadChoiceCorrect.png","","","","","","","","","",""
"image-keyboard-response","166","268806","0.0-3.0-6.0-1.0-0.10","5dd742a140460e6e2b707d58","6662009ae78f21dd82fcd179","66620cf7bcb7c756bda0ea70","296","","j","","","","","","","","./tasks/HMM-beads/Images/NewTrialWC.png","lowH","1","10","1","1","1","1","true","",""
"image-keyboard-response","167","269110","0.0-3.0-6.0-1.0-1.10","5dd742a140460e6e2b707d58","6662009ae78f21dd82fcd179","66620cf7bcb7c756bda0ea70","null","","null","","","","","","","","./tasks/HMM-beads/Images/WhiteBeadChoice.png","","","","","","","","","",""
"image-keyboard-response","168","269615","0.0-3.0-6.0-1.0-2.10","5dd742a140460e6e2b707d58","6662009ae78f21dd82fcd179","66620cf7bcb7c756bda0ea70","null","","null","","","","","","","","./tasks/HMM-beads/Images/WhiteBeadChoiceCorrect.png","","","","","","","","","",""
"image-keyboard-response","169","269986","0.0-3.0-6.0-1.0-0.11","5dd742a140460e6e2b707d58","6662009ae78f21dd82fcd179","66620cf7bcb7c756bda0ea70","370","","f","","","","","","","","./tasks/HMM-beads/Images/NewTrialWC.png","lowH","1","11","1","1","1","0","false","",""
"image-keyboard-response","170","270297","0.0-3.0-6.0-1.0-1.11","5dd742a140460e6e2b707d58","6662009ae78f21dd82fcd179","66620cf7bcb7c756bda0ea70","null","","null","","","","","","","","./tasks/HMM-beads/Images/BlackBeadChoice.png","","","","","","","","","",""
"image-keyboard-response","171","270806","0.0-3.0-6.0-1.0-2.11","5dd742a140460e6e2b707d58","6662009ae78f21dd82fcd179","66620cf7bcb7c756bda0ea70","null","","null","","","","","","","","./tasks/HMM-beads/Images/BlackBeadChoiceWrong.png","","","","","","","","","",""
"image-keyboard-response","172","271123","0.0-3.0-6.0-1.0-0.12","5dd742a140460e6e2b707d58","6662009ae78f21dd82fcd179","66620cf7bcb7c756bda0ea70","316","","j","","","","","","","","./tasks/HMM-beads/Images/NewTrialWC.png","lowH","1","12","1","1","1","1","true","",""
"image-keyboard-response","173","271426","0.0-3.0-6.0-1.0-1.12","5dd742a140460e6e2b707d58","6662009ae78f21dd82fcd179","66620cf7bcb7c756bda0ea70","null","","null","","","","","","","","./tasks/HMM-beads/Images/WhiteBeadChoice.png","","","","","","","","","",""
"image-keyboard-response","174","271936","0.0-3.0-6.0-1.0-2.12","5dd742a140460e6e2b707d58","6662009ae78f21dd82fcd179","66620cf7bcb7c756bda0ea70","null","","null","","","","","","","","./tasks/HMM-beads/Images/WhiteBeadChoiceCorrect.png","","","","","","","","","",""
"image-keyboard-response","175","272452","0.0-3.0-6.0-1.0-0.13","5dd742a140460e6e2b707d58","6662009ae78f21dd82fcd179","66620cf7bcb7c756bda0ea70","515","","j","","","","","","","","./tasks/HMM-beads/Images/NewTrialWC.png","lowH","1","13","1","0","1","1","false","",""
"image-keyboard-response","176","272758","0.0-3.0-6.0-1.0-1.13","5dd742a140460e6e2b707d58","6662009ae78f21dd82fcd179","66620cf7bcb7c756bda0ea70","null","","null","","","","","","","","./tasks/HMM-beads/Images/WhiteBeadChoice.png","","","","","","","","","",""
"image-keyboard-response","177","273266","0.0-3.0-6.0-1.0-2.13","5dd742a140460e6e2b707d58","6662009ae78f21dd82fcd179","66620cf7bcb7c756bda0ea70","null","","null","","","","","","","","./tasks/HMM-beads/Images/WhiteBeadChoiceWrong.png","","","","","","","","","",""
"image-keyboard-response","178","273677","0.0-3.0-6.0-1.0-0.14","5dd742a140460e6e2b707d58","6662009ae78f21dd82fcd179","66620cf7bcb7c756bda0ea70","410","","f","","","","","","","","./tasks/HMM-beads/Images/NewTrialBC.png","lowH","1","14","1","0","0","0","true","",""
"image-keyboard-response","179","273978","0.0-3.0-6.0-1.0-1.14","5dd742a140460e6e2b707d58","6662009ae78f21dd82fcd179","66620cf7bcb7c756bda0ea70","null","","null","","","","","","","","./tasks/HMM-beads/Images/BlackBeadChoice.png","","","","","","","","","",""
"image-keyboard-response","180","274487","0.0-3.0-6.0-1.0-2.14","5dd742a140460e6e2b707d58","6662009ae78f21dd82fcd179","66620cf7bcb7c756bda0ea70","null","","null","","","","","","","","./tasks/HMM-beads/Images/BlackBeadChoiceCorrect.png","","","","","","","","","",""
"image-keyboard-response","181","274749","0.0-3.0-6.0-1.0-0.15","5dd742a140460e6e2b707d58","6662009ae78f21dd82fcd179","66620cf7bcb7c756bda0ea70","261","","j","","","","","","","","./tasks/HMM-beads/Images/NewTrialBC.png","lowH","1","15","1","1","0","1","true","",""
"image-keyboard-response","182","275057","0.0-3.0-6.0-1.0-1.15","5dd742a140460e6e2b707d58","6662009ae78f21dd82fcd179","66620cf7bcb7c756bda0ea70","null","","null","","","","","","","","./tasks/HMM-beads/Images/WhiteBeadChoice.png","","","","","","","","","",""
"image-keyboard-response","183","275565","0.0-3.0-6.0-1.0-2.15","5dd742a140460e6e2b707d58","6662009ae78f21dd82fcd179","66620cf7bcb7c756bda0ea70","null","","null","","","","","","","","./tasks/HMM-beads/Images/WhiteBeadChoiceCorrect.png","","","","","","","","","",""
"image-keyboard-response","184","275846","0.0-3.0-6.0-1.0-0.16","5dd742a140460e6e2b707d58","6662009ae78f21dd82fcd179","66620cf7bcb7c756bda0ea70","277","","j","","","","","","","","./tasks/HMM-beads/Images/NewTrialWC.png","lowH","1","16","1","1","1","1","true","",""
"image-keyboard-response","185","276151","0.0-3.0-6.0-1.0-1.16","5dd742a140460e6e2b707d58","6662009ae78f21dd82fcd179","66620cf7bcb7c756bda0ea70","null","","null","","","","","","","","./tasks/HMM-beads/Images/WhiteBeadChoice.png","","","","","","","","","",""
"image-keyboard-response","186","276658","0.0-3.0-6.0-1.0-2.16","5dd742a140460e6e2b707d58","6662009ae78f21dd82fcd179","66620cf7bcb7c756bda0ea70","null","","null","","","","","","","","./tasks/HMM-beads/Images/WhiteBeadChoiceCorrect.png","","","","","","","","","",""
"image-keyboard-response","187","276927","0.0-3.0-6.0-1.0-0.17","5dd742a140460e6e2b707d58","6662009ae78f21dd82fcd179","66620cf7bcb7c756bda0ea70","268","","f","","","","","","","","./tasks/HMM-beads/Images/NewTrialWC.png","lowH","1","17","1","1","1","0","false","",""
"image-keyboard-response","188","277229","0.0-3.0-6.0-1.0-1.17","5dd742a140460e6e2b707d58","6662009ae78f21dd82fcd179","66620cf7bcb7c756bda0ea70","null","","null","","","","","","","","./tasks/HMM-beads/Images/BlackBeadChoice.png","","","","","","","","","",""
"image-keyboard-response","189","277738","0.0-3.0-6.0-1.0-2.17","5dd742a140460e6e2b707d58","6662009ae78f21dd82fcd179","66620cf7bcb7c756bda0ea70","null","","null","","","","","","","","./tasks/HMM-beads/Images/BlackBeadChoiceWrong.png","","","","","","","","","",""
"image-keyboard-response","190","277972","0.0-3.0-6.0-1.0-0.18","5dd742a140460e6e2b707d58","6662009ae78f21dd82fcd179","66620cf7bcb7c756bda0ea70","233","","f","","","","","","","","./tasks/HMM-beads/Images/NewTrialWC.png","lowH","1","18","1","1","1","0","false","",""
"image-keyboard-response","191","278276","0.0-3.0-6.0-1.0-1.18","5dd742a140460e6e2b707d58","6662009ae78f21dd82fcd179","66620cf7bcb7c756bda0ea70","null","","null","","","","","","","","./tasks/HMM-beads/Images/BlackBeadChoice.png","","","","","","","","","",""
"image-keyboard-response","192","278784","0.0-3.0-6.0-1.0-2.18","5dd742a140460e6e2b707d58","6662009ae78f21dd82fcd179","66620cf7bcb7c756bda0ea70","null","","null","","","","","","","","./tasks/HMM-beads/Images/BlackBeadChoiceWrong.png","","","","","","","","","",""
"image-keyboard-response","193","278864","0.0-3.0-6.0-1.0-0.19","5dd742a140460e6e2b707d58","6662009ae78f21dd82fcd179","66620cf7bcb7c756bda0ea70","79","","j","","","","","","","","./tasks/HMM-beads/Images/NewTrialWC.png","lowH","1","19","1","1","1","1","true","",""
"image-keyboard-response","194","279180","0.0-3.0-6.0-1.0-1.19","5dd742a140460e6e2b707d58","6662009ae78f21dd82fcd179","66620cf7bcb7c756bda0ea70","null","","null","","","","","","","","./tasks/HMM-beads/Images/WhiteBeadChoice.png","","","","","","","","","",""
"image-keyboard-response","195","279681","0.0-3.0-6.0-1.0-2.19","5dd742a140460e6e2b707d58","6662009ae78f21dd82fcd179","66620cf7bcb7c756bda0ea70","null","","null","","","","","","","","./tasks/HMM-beads/Images/WhiteBeadChoiceCorrect.png","","","","","","","","","",""
"image-keyboard-response","196","279840","0.0-3.0-6.0-1.0-0.20","5dd742a140460e6e2b707d58","6662009ae78f21dd82fcd179","66620cf7bcb7c756bda0ea70","158","","f","","","","","","","","./tasks/HMM-beads/Images/NewTrialWC.png","lowH","1","20","1","1","1","0","false","",""
"image-keyboard-response","197","280148","0.0-3.0-6.0-1.0-1.20","5dd742a140460e6e2b707d58","6662009ae78f21dd82fcd179","66620cf7bcb7c756bda0ea70","null","","null","","","","","","","","./tasks/HMM-beads/Images/BlackBeadChoice.png","","","","","","","","","",""
"image-keyboard-response","198","280655","0.0-3.0-6.0-1.0-2.20","5dd742a140460e6e2b707d58","6662009ae78f21dd82fcd179","66620cf7bcb7c756bda0ea70","null","","null","","","","","","","","./tasks/HMM-beads/Images/BlackBeadChoiceWrong.png","","","","","","","","","",""
"image-keyboard-response","199","280933","0.0-3.0-6.0-1.0-0.21","5dd742a140460e6e2b707d58","6662009ae78f21dd82fcd179","66620cf7bcb7c756bda0ea70","278","","f","","","","","","","","./tasks/HMM-beads/Images/NewTrialWC.png","lowH","1","21","1","1","1","0","false","",""
"image-keyboard-response","200","281241","0.0-3.0-6.0-1.0-1.21","5dd742a140460e6e2b707d58","6662009ae78f21dd82fcd179","66620cf7bcb7c756bda0ea70","null","","null","","","","","","","","./tasks/HMM-beads/Images/BlackBeadChoice.png","","","","","","","","","",""
"image-keyboard-response","201","281748","0.0-3.0-6.0-1.0-2.21","5dd742a140460e6e2b707d58","6662009ae78f21dd82fcd179","66620cf7bcb7c756bda0ea70","null","","null","","","","","","","","./tasks/HMM-beads/Images/BlackBeadChoiceWrong.png","","","","","","","","","",""
"image-keyboard-response","202","281838","0.0-3.0-6.0-1.0-0.22","5dd742a140460e6e2b707d58","6662009ae78f21dd82fcd179","66620cf7bcb7c756bda0ea70","88","","j","","","","","","","","./tasks/HMM-beads/Images/NewTrialWC.png","lowH","1","22","1","1","1","1","true","",""
"image-keyboard-response","203","282146","0.0-3.0-6.0-1.0-1.22","5dd742a140460e6e2b707d58","6662009ae78f21dd82fcd179","66620cf7bcb7c756bda0ea70","null","","null","","","","","","","","./tasks/HMM-beads/Images/WhiteBeadChoice.png","","","","","","","","","",""
"image-keyboard-response","204","282651","0.0-3.0-6.0-1.0-2.22","5dd742a140460e6e2b707d58","6662009ae78f21dd82fcd179","66620cf7bcb7c756bda0ea70","null","","null","","","","","","","","./tasks/HMM-beads/Images/WhiteBeadChoiceCorrect.png","","","","","","","","","",""
"image-keyboard-response","205","282803","0.0-3.0-6.0-1.0-0.23","5dd742a140460e6e2b707d58","6662009ae78f21dd82fcd179","66620cf7bcb7c756bda0ea70","151","","f","","","","","","","","./tasks/HMM-beads/Images/NewTrialWC.png","lowH","1","23","1","1","1","0","false","",""
"image-keyboard-response","206","283113","0.0-3.0-6.0-1.0-1.23","5dd742a140460e6e2b707d58","6662009ae78f21dd82fcd179","66620cf7bcb7c756bda0ea70","null","","null","","","","","","","","./tasks/HMM-beads/Images/BlackBeadChoice.png","","","","","","","","","",""
"image-keyboard-response","207","283622","0.0-3.0-6.0-1.0-2.23","5dd742a140460e6e2b707d58","6662009ae78f21dd82fcd179","66620cf7bcb7c756bda0ea70","null","","null","","","","","","","","./tasks/HMM-beads/Images/BlackBeadChoiceWrong.png","","","","","","","","","",""
"image-keyboard-response","208","283754","0.0-3.0-6.0-1.0-0.24","5dd742a140460e6e2b707d58","6662009ae78f21dd82fcd179","66620cf7bcb7c756bda0ea70","132","","j","","","","","","","","./tasks/HMM-beads/Images/NewTrialWC.png","lowH","1","24","1","0","1","1","false","",""
"image-keyboard-response","209","284069","0.0-3.0-6.0-1.0-1.24","5dd742a140460e6e2b707d58","6662009ae78f21dd82fcd179","66620cf7bcb7c756bda0ea70","null","","null","","","","","","","","./tasks/HMM-beads/Images/WhiteBeadChoice.png","","","","","","","","","",""
"image-keyboard-response","210","284580","0.0-3.0-6.0-1.0-2.24","5dd742a140460e6e2b707d58","6662009ae78f21dd82fcd179","66620cf7bcb7c756bda0ea70","null","","null","","","","","","","","./tasks/HMM-beads/Images/WhiteBeadChoiceWrong.png","","","","","","","","","",""
"image-keyboard-response","211","284955","0.0-3.0-6.0-1.0-0.25","5dd742a140460e6e2b707d58","6662009ae78f21dd82fcd179","66620cf7bcb7c756bda0ea70","375","","j","","","","","","","","./tasks/HMM-beads/Images/NewTrialBC.png","lowH","1","25","1","1","0","1","true","",""
"image-keyboard-response","212","285263","0.0-3.0-6.0-1.0-1.25","5dd742a140460e6e2b707d58","6662009ae78f21dd82fcd179","66620cf7bcb7c756bda0ea70","null","","null","","","","","","","","./tasks/HMM-beads/Images/WhiteBeadChoice.png","","","","","","","","","",""
"image-keyboard-response","213","285771","0.0-3.0-6.0-1.0-2.25","5dd742a140460e6e2b707d58","6662009ae78f21dd82fcd179","66620cf7bcb7c756bda0ea70","null","","null","","","","","","","","./tasks/HMM-beads/Images/WhiteBeadChoiceCorrect.png","","","","","","","","","",""
"image-keyboard-response","214","286039","0.0-3.0-6.0-1.0-0.26","5dd742a140460e6e2b707d58","6662009ae78f21dd82fcd179","66620cf7bcb7c756bda0ea70","268","","j","","","","","","","","./tasks/HMM-beads/Images/NewTrialWC.png","lowH","1","26","1","0","1","1","false","",""
"image-keyboard-response","215","286345","0.0-3.0-6.0-1.0-1.26","5dd742a140460e6e2b707d58","6662009ae78f21dd82fcd179","66620cf7bcb7c756bda0ea70","null","","null","","","","","","","","./tasks/HMM-beads/Images/WhiteBeadChoice.png","","","","","","","","","",""
"image-keyboard-response","216","286850","0.0-3.0-6.0-1.0-2.26","5dd742a140460e6e2b707d58","6662009ae78f21dd82fcd179","66620cf7bcb7c756bda0ea70","null","","null","","","","","","","","./tasks/HMM-beads/Images/WhiteBeadChoiceWrong.png","","","","","","","","","",""
"image-keyboard-response","217","287116","0.0-3.0-6.0-1.0-0.27","5dd742a140460e6e2b707d58","6662009ae78f21dd82fcd179","66620cf7bcb7c756bda0ea70","266","","j","","","","","","","","./tasks/HMM-beads/Images/NewTrialBC.png","lowH","1","27","1","1","0","1","true","",""
"image-keyboard-response","218","287423","0.0-3.0-6.0-1.0-1.27","5dd742a140460e6e2b707d58","6662009ae78f21dd82fcd179","66620cf7bcb7c756bda0ea70","null","","null","","","","","","","","./tasks/HMM-beads/Images/WhiteBeadChoice.png","","","","","","","","","",""
"image-keyboard-response","219","287929","0.0-3.0-6.0-1.0-2.27","5dd742a140460e6e2b707d58","6662009ae78f21dd82fcd179","66620cf7bcb7c756bda0ea70","null","","null","","","","","","","","./tasks/HMM-beads/Images/WhiteBeadChoiceCorrect.png","","","","","","","","","",""
"image-keyboard-response","220","288169","0.0-3.0-6.0-1.0-0.28","5dd742a140460e6e2b707d58","6662009ae78f21dd82fcd179","66620cf7bcb7c756bda0ea70","238","","j","","","","","","","","./tasks/HMM-beads/Images/NewTrialWC.png","lowH","1","28","1","1","1","1","true","",""
"image-keyboard-response","221","288484","0.0-3.0-6.0-1.0-1.28","5dd742a140460e6e2b707d58","6662009ae78f21dd82fcd179","66620cf7bcb7c756bda0ea70","null","","null","","","","","","","","./tasks/HMM-beads/Images/WhiteBeadChoice.png","","","","","","","","","",""
"image-keyboard-response","222","288991","0.0-3.0-6.0-1.0-2.28","5dd742a140460e6e2b707d58","6662009ae78f21dd82fcd179","66620cf7bcb7c756bda0ea70","null","","null","","","","","","","","./tasks/HMM-beads/Images/WhiteBeadChoiceCorrect.png","","","","","","","","","",""
"image-keyboard-response","223","289282","0.0-3.0-6.0-1.0-0.29","5dd742a140460e6e2b707d58","6662009ae78f21dd82fcd179","66620cf7bcb7c756bda0ea70","287","","j","","","","","","","","./tasks/HMM-beads/Images/NewTrialWC.png","lowH","1","29","1","1","1","1","true","",""
"image-keyboard-response","224","289591","0.0-3.0-6.0-1.0-1.29","5dd742a140460e6e2b707d58","6662009ae78f21dd82fcd179","66620cf7bcb7c756bda0ea70","null","","null","","","","","","","","./tasks/HMM-beads/Images/WhiteBeadChoice.png","","","","","","","","","",""
"image-keyboard-response","225","290098","0.0-3.0-6.0-1.0-2.29","5dd742a140460e6e2b707d58","6662009ae78f21dd82fcd179","66620cf7bcb7c756bda0ea70","null","","null","","","","","","","","./tasks/HMM-beads/Images/WhiteBeadChoiceCorrect.png","","","","","","","","","",""
"image-keyboard-response","226","290338","0.0-3.0-6.0-1.0-0.30","5dd742a140460e6e2b707d58","6662009ae78f21dd82fcd179","66620cf7bcb7c756bda0ea70","240","","f","","","","","","","","./tasks/HMM-beads/Images/NewTrialWC.png","lowH","1","30","1","1","1","0","false","",""
"image-keyboard-response","227","290651","0.0-3.0-6.0-1.0-1.30","5dd742a140460e6e2b707d58","6662009ae78f21dd82fcd179","66620cf7bcb7c756bda0ea70","null","","null","","","","","","","","./tasks/HMM-beads/Images/BlackBeadChoice.png","","","","","","","","","",""
"image-keyboard-response","228","291160","0.0-3.0-6.0-1.0-2.30","5dd742a140460e6e2b707d58","6662009ae78f21dd82fcd179","66620cf7bcb7c756bda0ea70","null","","null","","","","","","","","./tasks/HMM-beads/Images/BlackBeadChoiceWrong.png","","","","","","","","","",""
"image-keyboard-response","229","291330","0.0-3.0-6.0-1.0-0.31","5dd742a140460e6e2b707d58","6662009ae78f21dd82fcd179","66620cf7bcb7c756bda0ea70","170","","f","","","","","","","","./tasks/HMM-beads/Images/NewTrialWC.png","lowH","1","31","1","1","1","0","false","",""
"image-keyboard-response","230","291639","0.0-3.0-6.0-1.0-1.31","5dd742a140460e6e2b707d58","6662009ae78f21dd82fcd179","66620cf7bcb7c756bda0ea70","null","","null","","","","","","","","./tasks/HMM-beads/Images/BlackBeadChoice.png","","","","","","","","","",""
"image-keyboard-response","231","292144","0.0-3.0-6.0-1.0-2.31","5dd742a140460e6e2b707d58","6662009ae78f21dd82fcd179","66620cf7bcb7c756bda0ea70","null","","null","","","","","","","","./tasks/HMM-beads/Images/BlackBeadChoiceWrong.png","","","","","","","","","",""
"image-keyboard-response","232","292343","0.0-3.0-6.0-1.0-0.32","5dd742a140460e6e2b707d58","6662009ae78f21dd82fcd179","66620cf7bcb7c756bda0ea70","198","","j","","","","","","","","./tasks/HMM-beads/Images/NewTrialWC.png","lowH","1","32","1","1","1","1","true","",""
"image-keyboard-response","233","292651","0.0-3.0-6.0-1.0-1.32","5dd742a140460e6e2b707d58","6662009ae78f21dd82fcd179","66620cf7bcb7c756bda0ea70","null","","null","","","","","","","","./tasks/HMM-beads/Images/WhiteBeadChoice.png","","","","","","","","","",""
"image-keyboard-response","234","293159","0.0-3.0-6.0-1.0-2.32","5dd742a140460e6e2b707d58","6662009ae78f21dd82fcd179","66620cf7bcb7c756bda0ea70","null","","null","","","","","","","","./tasks/HMM-beads/Images/WhiteBeadChoiceCorrect.png","","","","","","","","","",""
"image-keyboard-response","235","293390","0.0-3.0-6.0-1.0-0.33","5dd742a140460e6e2b707d58","6662009ae78f21dd82fcd179","66620cf7bcb7c756bda0ea70","231","","j","","","","","","","","./tasks/HMM-beads/Images/NewTrialWC.png","lowH","1","33","1","1","1","1","true","",""
"image-keyboard-response","236","293700","0.0-3.0-6.0-1.0-1.33","5dd742a140460e6e2b707d58","6662009ae78f21dd82fcd179","66620cf7bcb7c756bda0ea70","null","","null","","","","","","","","./tasks/HMM-beads/Images/WhiteBeadChoice.png","","","","","","","","","",""
"image-keyboard-response","237","294209","0.0-3.0-6.0-1.0-2.33","5dd742a140460e6e2b707d58","6662009ae78f21dd82fcd179","66620cf7bcb7c756bda0ea70","null","","null","","","","","","","","./tasks/HMM-beads/Images/WhiteBeadChoiceCorrect.png","","","","","","","","","",""
"image-keyboard-response","238","294411","0.0-3.0-6.0-1.0-0.34","5dd742a140460e6e2b707d58","6662009ae78f21dd82fcd179","66620cf7bcb7c756bda0ea70","202","","f","","","","","","","","./tasks/HMM-beads/Images/NewTrialWC.png","lowH","1","34","1","1","1","0","false","",""
"image-keyboard-response","239","294719","0.0-3.0-6.0-1.0-1.34","5dd742a140460e6e2b707d58","6662009ae78f21dd82fcd179","66620cf7bcb7c756bda0ea70","null","","null","","","","","","","","./tasks/HMM-beads/Images/BlackBeadChoice.png","","","","","","","","","",""
"image-keyboard-response","240","295229","0.0-3.0-6.0-1.0-2.34","5dd742a140460e6e2b707d58","6662009ae78f21dd82fcd179","66620cf7bcb7c756bda0ea70","null","","null","","","","","","","","./tasks/HMM-beads/Images/BlackBeadChoiceWrong.png","","","","","","","","","",""
"image-keyboard-response","241","295423","0.0-3.0-6.0-1.0-0.35","5dd742a140460e6e2b707d58","6662009ae78f21dd82fcd179","66620cf7bcb7c756bda0ea70","194","","j","","","","","","","","./tasks/HMM-beads/Images/NewTrialWC.png","lowH","1","35","1","1","1","1","true","",""
"image-keyboard-response","242","295737","0.0-3.0-6.0-1.0-1.35","5dd742a140460e6e2b707d58","6662009ae78f21dd82fcd179","66620cf7bcb7c756bda0ea70","null","","null","","","","","","","","./tasks/HMM-beads/Images/WhiteBeadChoice.png","","","","","","","","","",""
"image-keyboard-response","243","296248","0.0-3.0-6.0-1.0-2.35","5dd742a140460e6e2b707d58","6662009ae78f21dd82fcd179","66620cf7bcb7c756bda0ea70","null","","null","","","","","","","","./tasks/HMM-beads/Images/WhiteBeadChoiceCorrect.png","","","","","","","","","",""
"image-keyboard-response","244","296345","0.0-3.0-6.0-1.0-0.36","5dd742a140460e6e2b707d58","6662009ae78f21dd82fcd179","66620cf7bcb7c756bda0ea70","96","","f","","","","","","","","./tasks/HMM-beads/Images/NewTrialWC.png","lowH","1","36","1","1","1","0","false","",""
"image-keyboard-response","245","296661","0.0-3.0-6.0-1.0-1.36","5dd742a140460e6e2b707d58","6662009ae78f21dd82fcd179","66620cf7bcb7c756bda0ea70","null","","null","","","","","","","","./tasks/HMM-beads/Images/BlackBeadChoice.png","","","","","","","","","",""
"image-keyboard-response","246","297167","0.0-3.0-6.0-1.0-2.36","5dd742a140460e6e2b707d58","6662009ae78f21dd82fcd179","66620cf7bcb7c756bda0ea70","null","","null","","","","","","","","./tasks/HMM-beads/Images/BlackBeadChoiceWrong.png","","","","","","","","","",""
"image-keyboard-response","247","297261","0.0-3.0-6.0-1.0-0.37","5dd742a140460e6e2b707d58","6662009ae78f21dd82fcd179","66620cf7bcb7c756bda0ea70","94","","j","","","","","","","","./tasks/HMM-beads/Images/NewTrialWC.png","lowH","1","37","1","1","1","1","true","",""
"image-keyboard-response","248","297564","0.0-3.0-6.0-1.0-1.37","5dd742a140460e6e2b707d58","6662009ae78f21dd82fcd179","66620cf7bcb7c756bda0ea70","null","","null","","","","","","","","./tasks/HMM-beads/Images/WhiteBeadChoice.png","","","","","","","","","",""
"image-keyboard-response","249","298073","0.0-3.0-6.0-1.0-2.37","5dd742a140460e6e2b707d58","6662009ae78f21dd82fcd179","66620cf7bcb7c756bda0ea70","null","","null","","","","","","","","./tasks/HMM-beads/Images/WhiteBeadChoiceCorrect.png","","","","","","","","","",""
"image-keyboard-response","250","298273","0.0-3.0-6.0-1.0-0.38","5dd742a140460e6e2b707d58","6662009ae78f21dd82fcd179","66620cf7bcb7c756bda0ea70","200","","j","","","","","","","","./tasks/HMM-beads/Images/NewTrialWC.png","lowH","1","38","1","1","1","1","true","",""
"image-keyboard-response","251","298582","0.0-3.0-6.0-1.0-1.38","5dd742a140460e6e2b707d58","6662009ae78f21dd82fcd179","66620cf7bcb7c756bda0ea70","null","","null","","","","","","","","./tasks/HMM-beads/Images/WhiteBeadChoice.png","","","","","","","","","",""
"image-keyboard-response","252","299092","0.0-3.0-6.0-1.0-2.38","5dd742a140460e6e2b707d58","6662009ae78f21dd82fcd179","66620cf7bcb7c756bda0ea70","null","","null","","","","","","","","./tasks/HMM-beads/Images/WhiteBeadChoiceCorrect.png","","","","","","","","","",""
"image-keyboard-response","253","299301","0.0-3.0-6.0-1.0-0.39","5dd742a140460e6e2b707d58","6662009ae78f21dd82fcd179","66620cf7bcb7c756bda0ea70","209","","f","","","","","","","","./tasks/HMM-beads/Images/NewTrialWC.png","lowH","1","39","1","1","1","0","false","",""
"image-keyboard-response","254","299615","0.0-3.0-6.0-1.0-1.39","5dd742a140460e6e2b707d58","6662009ae78f21dd82fcd179","66620cf7bcb7c756bda0ea70","null","","null","","","","","","","","./tasks/HMM-beads/Images/BlackBeadChoice.png","","","","","","","","","",""
"image-keyboard-response","255","300121","0.0-3.0-6.0-1.0-2.39","5dd742a140460e6e2b707d58","6662009ae78f21dd82fcd179","66620cf7bcb7c756bda0ea70","null","","null","","","","","","","","./tasks/HMM-beads/Images/BlackBeadChoiceWrong.png","","","","","","","","","",""
"image-keyboard-response","256","300358","0.0-3.0-6.0-1.0-0.40","5dd742a140460e6e2b707d58","6662009ae78f21dd82fcd179","66620cf7bcb7c756bda0ea70","236","","f","","","","","","","","./tasks/HMM-beads/Images/NewTrialWC.png","lowH","1","40","1","1","1","0","false","",""
"image-keyboard-response","257","300660","0.0-3.0-6.0-1.0-1.40","5dd742a140460e6e2b707d58","6662009ae78f21dd82fcd179","66620cf7bcb7c756bda0ea70","null","","null","","","","","","","","./tasks/HMM-beads/Images/BlackBeadChoice.png","","","","","","","","","",""
"image-keyboard-response","258","301166","0.0-3.0-6.0-1.0-2.40","5dd742a140460e6e2b707d58","6662009ae78f21dd82fcd179","66620cf7bcb7c756bda0ea70","null","","null","","","","","","","","./tasks/HMM-beads/Images/BlackBeadChoiceWrong.png","","","","","","","","","",""
"image-keyboard-response","259","301258","0.0-3.0-6.0-1.0-0.41","5dd742a140460e6e2b707d58","6662009ae78f21dd82fcd179","66620cf7bcb7c756bda0ea70","92","","j","","","","","","","","./tasks/HMM-beads/Images/NewTrialWC.png","lowH","1","41","1","1","1","1","true","",""
"image-keyboard-response","260","301564","0.0-3.0-6.0-1.0-1.41","5dd742a140460e6e2b707d58","6662009ae78f21dd82fcd179","66620cf7bcb7c756bda0ea70","null","","null","","","","","","","","./tasks/HMM-beads/Images/WhiteBeadChoice.png","","","","","","","","","",""
"image-keyboard-response","261","302067","0.0-3.0-6.0-1.0-2.41","5dd742a140460e6e2b707d58","6662009ae78f21dd82fcd179","66620cf7bcb7c756bda0ea70","null","","null","","","","","","","","./tasks/HMM-beads/Images/WhiteBeadChoiceCorrect.png","","","","","","","","","",""
"image-keyboard-response","262","302363","0.0-3.0-6.0-1.0-0.42","5dd742a140460e6e2b707d58","6662009ae78f21dd82fcd179","66620cf7bcb7c756bda0ea70","293","","j","","","","","","","","./tasks/HMM-beads/Images/NewTrialWC.png","lowH","1","42","1","1","1","1","true","",""
"image-keyboard-response","263","302672","0.0-3.0-6.0-1.0-1.42","5dd742a140460e6e2b707d58","6662009ae78f21dd82fcd179","66620cf7bcb7c756bda0ea70","null","","null","","","","","","","","./tasks/HMM-beads/Images/WhiteBeadChoice.png","","","","","","","","","",""
"image-keyboard-response","264","303182","0.0-3.0-6.0-1.0-2.42","5dd742a140460e6e2b707d58","6662009ae78f21dd82fcd179","66620cf7bcb7c756bda0ea70","null","","null","","","","","","","","./tasks/HMM-beads/Images/WhiteBeadChoiceCorrect.png","","","","","","","","","",""
"image-keyboard-response","265","303379","0.0-3.0-6.0-1.0-0.43","5dd742a140460e6e2b707d58","6662009ae78f21dd82fcd179","66620cf7bcb7c756bda0ea70","197","","f","","","","","","","","./tasks/HMM-beads/Images/NewTrialWC.png","lowH","1","43","1","1","1","0","false","",""
"image-keyboard-response","266","303693","0.0-3.0-6.0-1.0-1.43","5dd742a140460e6e2b707d58","6662009ae78f21dd82fcd179","66620cf7bcb7c756bda0ea70","null","","null","","","","","","","","./tasks/HMM-beads/Images/BlackBeadChoice.png","","","","","","","","","",""
"image-keyboard-response","267","304202","0.0-3.0-6.0-1.0-2.43","5dd742a140460e6e2b707d58","6662009ae78f21dd82fcd179","66620cf7bcb7c756bda0ea70","null","","null","","","","","","","","./tasks/HMM-beads/Images/BlackBeadChoiceWrong.png","","","","","","","","","",""
"image-keyboard-response","268","304300","0.0-3.0-6.0-1.0-0.44","5dd742a140460e6e2b707d58","6662009ae78f21dd82fcd179","66620cf7bcb7c756bda0ea70","97","","j","","","","","","","","./tasks/HMM-beads/Images/NewTrialWC.png","lowH","1","44","1","1","1","1","true","",""
"image-keyboard-response","269","304601","0.0-3.0-6.0-1.0-1.44","5dd742a140460e6e2b707d58","6662009ae78f21dd82fcd179","66620cf7bcb7c756bda0ea70","null","","null","","","","","","","","./tasks/HMM-beads/Images/WhiteBeadChoice.png","","","","","","","","","",""
"image-keyboard-response","270","305110","0.0-3.0-6.0-1.0-2.44","5dd742a140460e6e2b707d58","6662009ae78f21dd82fcd179","66620cf7bcb7c756bda0ea70","null","","null","","","","","","","","./tasks/HMM-beads/Images/WhiteBeadChoiceCorrect.png","","","","","","","","","",""
"image-keyboard-response","271","305320","0.0-3.0-6.0-1.0-0.45","5dd742a140460e6e2b707d58","6662009ae78f21dd82fcd179","66620cf7bcb7c756bda0ea70","209","","j","","","","","","","","./tasks/HMM-beads/Images/NewTrialWC.png","lowH","1","45","1","1","1","1","true","",""
"image-keyboard-response","272","305634","0.0-3.0-6.0-1.0-1.45","5dd742a140460e6e2b707d58","6662009ae78f21dd82fcd179","66620cf7bcb7c756bda0ea70","null","","null","","","","","","","","./tasks/HMM-beads/Images/WhiteBeadChoice.png","","","","","","","","","",""
"image-keyboard-response","273","306142","0.0-3.0-6.0-1.0-2.45","5dd742a140460e6e2b707d58","6662009ae78f21dd82fcd179","66620cf7bcb7c756bda0ea70","null","","null","","","","","","","","./tasks/HMM-beads/Images/WhiteBeadChoiceCorrect.png","","","","","","","","","",""
"image-keyboard-response","274","306372","0.0-3.0-6.0-1.0-0.46","5dd742a140460e6e2b707d58","6662009ae78f21dd82fcd179","66620cf7bcb7c756bda0ea70","230","","j","","","","","","","","./tasks/HMM-beads/Images/NewTrialWC.png","lowH","1","46","1","1","1","1","true","",""
"image-keyboard-response","275","306683","0.0-3.0-6.0-1.0-1.46","5dd742a140460e6e2b707d58","6662009ae78f21dd82fcd179","66620cf7bcb7c756bda0ea70","null","","null","","","","","","","","./tasks/HMM-beads/Images/WhiteBeadChoice.png","","","","","","","","","",""
"image-keyboard-response","276","307189","0.0-3.0-6.0-1.0-2.46","5dd742a140460e6e2b707d58","6662009ae78f21dd82fcd179","66620cf7bcb7c756bda0ea70","null","","null","","","","","","","","./tasks/HMM-beads/Images/WhiteBeadChoiceCorrect.png","","","","","","","","","",""
"image-keyboard-response","277","307421","0.0-3.0-6.0-1.0-0.47","5dd742a140460e6e2b707d58","6662009ae78f21dd82fcd179","66620cf7bcb7c756bda0ea70","232","","j","","","","","","","","./tasks/HMM-beads/Images/NewTrialWC.png","lowH","1","47","1","0","1","1","false","",""
"image-keyboard-response","278","307728","0.0-3.0-6.0-1.0-1.47","5dd742a140460e6e2b707d58","6662009ae78f21dd82fcd179","66620cf7bcb7c756bda0ea70","null","","null","","","","","","","","./tasks/HMM-beads/Images/WhiteBeadChoice.png","","","","","","","","","",""
"image-keyboard-response","279","308237","0.0-3.0-6.0-1.0-2.47","5dd742a140460e6e2b707d58","6662009ae78f21dd82fcd179","66620cf7bcb7c756bda0ea70","null","","null","","","","","","","","./tasks/HMM-beads/Images/WhiteBeadChoiceWrong.png","","","","","","","","","",""
"image-keyboard-response","280","308546","0.0-3.0-6.0-1.0-0.48","5dd742a140460e6e2b707d58","6662009ae78f21dd82fcd179","66620cf7bcb7c756bda0ea70","309","","j","","","","","","","","./tasks/HMM-beads/Images/NewTrialBC.png","lowH","1","48","1","0","0","1","false","",""
"image-keyboard-response","281","308857","0.0-3.0-6.0-1.0-1.48","5dd742a140460e6e2b707d58","6662009ae78f21dd82fcd179","66620cf7bcb7c756bda0ea70","null","","null","","","","","","","","./tasks/HMM-beads/Images/WhiteBeadChoice.png","","","","","","","","","",""
"image-keyboard-response","282","309363","0.0-3.0-6.0-1.0-2.48","5dd742a140460e6e2b707d58","6662009ae78f21dd82fcd179","66620cf7bcb7c756bda0ea70","null","","null","","","","","","","","./tasks/HMM-beads/Images/WhiteBeadChoiceWrong.png","","","","","","","","","",""
"image-keyboard-response","283","309594","0.0-3.0-6.0-1.0-0.49","5dd742a140460e6e2b707d58","6662009ae78f21dd82fcd179","66620cf7bcb7c756bda0ea70","230","","j","","","","","","","","./tasks/HMM-beads/Images/NewTrialBC.png","lowH","1","49","1","0","0","1","false","",""
"image-keyboard-response","284","309902","0.0-3.0-6.0-1.0-1.49","5dd742a140460e6e2b707d58","6662009ae78f21dd82fcd179","66620cf7bcb7c756bda0ea70","null","","null","","","","","","","","./tasks/HMM-beads/Images/WhiteBeadChoice.png","","","","","","","","","",""
"image-keyboard-response","285","310411","0.0-3.0-6.0-1.0-2.49","5dd742a140460e6e2b707d58","6662009ae78f21dd82fcd179","66620cf7bcb7c756bda0ea70","null","","null","","","","","","","","./tasks/HMM-beads/Images/WhiteBeadChoiceWrong.png","","","","","","","","","",""
"image-keyboard-response","286","310651","0.0-3.0-6.0-1.0-0.50","5dd742a140460e6e2b707d58","6662009ae78f21dd82fcd179","66620cf7bcb7c756bda0ea70","240","","f","","","","","","","","./tasks/HMM-beads/Images/NewTrialBC.png","lowH","1","50","1","1","0","0","false","",""
"image-keyboard-response","287","310965","0.0-3.0-6.0-1.0-1.50","5dd742a140460e6e2b707d58","6662009ae78f21dd82fcd179","66620cf7bcb7c756bda0ea70","null","","null","","","","","","","","./tasks/HMM-beads/Images/BlackBeadChoice.png","","","","","","","","","",""
"image-keyboard-response","288","311473","0.0-3.0-6.0-1.0-2.50","5dd742a140460e6e2b707d58","6662009ae78f21dd82fcd179","66620cf7bcb7c756bda0ea70","null","","null","","","","","","","","./tasks/HMM-beads/Images/BlackBeadChoiceWrong.png","","","","","","","","","",""
"image-keyboard-response","289","311499","0.0-3.0-6.0-1.0-0.51","5dd742a140460e6e2b707d58","6662009ae78f21dd82fcd179","66620cf7bcb7c756bda0ea70","25","","j","","","","","","","","./tasks/HMM-beads/Images/NewTrialWC.png","lowH","1","51","1","1","1","1","true","",""
"image-keyboard-response","290","311806","0.0-3.0-6.0-1.0-1.51","5dd742a140460e6e2b707d58","6662009ae78f21dd82fcd179","66620cf7bcb7c756bda0ea70","null","","null","","","","","","","","./tasks/HMM-beads/Images/WhiteBeadChoice.png","","","","","","","","","",""
"image-keyboard-response","291","312314","0.0-3.0-6.0-1.0-2.51","5dd742a140460e6e2b707d58","6662009ae78f21dd82fcd179","66620cf7bcb7c756bda0ea70","null","","null","","","","","","","","./tasks/HMM-beads/Images/WhiteBeadChoiceCorrect.png","","","","","","","","","",""
"image-keyboard-response","292","312580","0.0-3.0-6.0-1.0-0.52","5dd742a140460e6e2b707d58","6662009ae78f21dd82fcd179","66620cf7bcb7c756bda0ea70","264","","j","","","","","","","","./tasks/HMM-beads/Images/NewTrialWC.png","lowH","1","52","1","1","1","1","true","",""
"image-keyboard-response","293","312885","0.0-3.0-6.0-1.0-1.52","5dd742a140460e6e2b707d58","6662009ae78f21dd82fcd179","66620cf7bcb7c756bda0ea70","null","","null","","","","","","","","./tasks/HMM-beads/Images/WhiteBeadChoice.png","","","","","","","","","",""
"image-keyboard-response","294","313395","0.0-3.0-6.0-1.0-2.52","5dd742a140460e6e2b707d58","6662009ae78f21dd82fcd179","66620cf7bcb7c756bda0ea70","null","","null","","","","","","","","./tasks/HMM-beads/Images/WhiteBeadChoiceCorrect.png","","","","","","","","","",""
"image-keyboard-response","295","313764","0.0-3.0-6.0-1.0-0.53","5dd742a140460e6e2b707d58","6662009ae78f21dd82fcd179","66620cf7bcb7c756bda0ea70","369","","j","","","","","","","","./tasks/HMM-beads/Images/NewTrialWC.png","lowH","1","53","1","1","1","1","true","",""
"image-keyboard-response","296","314065","0.0-3.0-6.0-1.0-1.53","5dd742a140460e6e2b707d58","6662009ae78f21dd82fcd179","66620cf7bcb7c756bda0ea70","null","","null","","","","","","","","./tasks/HMM-beads/Images/WhiteBeadChoice.png","","","","","","","","","",""
"image-keyboard-response","297","314571","0.0-3.0-6.0-1.0-2.53","5dd742a140460e6e2b707d58","6662009ae78f21dd82fcd179","66620cf7bcb7c756bda0ea70","null","","null","","","","","","","","./tasks/HMM-beads/Images/WhiteBeadChoiceCorrect.png","","","","","","","","","",""
"image-keyboard-response","298","314805","0.0-3.0-6.0-1.0-0.54","5dd742a140460e6e2b707d58","6662009ae78f21dd82fcd179","66620cf7bcb7c756bda0ea70","234","","f","","","","","","","","./tasks/HMM-beads/Images/NewTrialWC.png","lowH","1","54","1","1","1","0","false","",""
"image-keyboard-response","299","315112","0.0-3.0-6.0-1.0-1.54","5dd742a140460e6e2b707d58","6662009ae78f21dd82fcd179","66620cf7bcb7c756bda0ea70","null","","null","","","","","","","","./tasks/HMM-beads/Images/BlackBeadChoice.png","","","","","","","","","",""
"image-keyboard-response","300","315619","0.0-3.0-6.0-1.0-2.54","5dd742a140460e6e2b707d58","6662009ae78f21dd82fcd179","66620cf7bcb7c756bda0ea70","null","","null","","","","","","","","./tasks/HMM-beads/Images/BlackBeadChoiceWrong.png","","","","","","","","","",""
"image-keyboard-response","301","315730","0.0-3.0-6.0-1.0-0.55","5dd742a140460e6e2b707d58","6662009ae78f21dd82fcd179","66620cf7bcb7c756bda0ea70","108","","f","","","","","","","","./tasks/HMM-beads/Images/NewTrialWC.png","lowH","1","55","1","1","1","0","false","",""
"image-keyboard-response","302","316032","0.0-3.0-6.0-1.0-1.55","5dd742a140460e6e2b707d58","6662009ae78f21dd82fcd179","66620cf7bcb7c756bda0ea70","null","","null","","","","","","","","./tasks/HMM-beads/Images/BlackBeadChoice.png","","","","","","","","","",""
"image-keyboard-response","303","316538","0.0-3.0-6.0-1.0-2.55","5dd742a140460e6e2b707d58","6662009ae78f21dd82fcd179","66620cf7bcb7c756bda0ea70","null","","null","","","","","","","","./tasks/HMM-beads/Images/BlackBeadChoiceWrong.png","","","","","","","","","",""
"image-keyboard-response","304","316694","0.0-3.0-6.0-1.0-0.56","5dd742a140460e6e2b707d58","6662009ae78f21dd82fcd179","66620cf7bcb7c756bda0ea70","156","","j","","","","","","","","./tasks/HMM-beads/Images/NewTrialWC.png","lowH","1","56","1","1","1","1","true","",""
"image-keyboard-response","305","316999","0.0-3.0-6.0-1.0-1.56","5dd742a140460e6e2b707d58","6662009ae78f21dd82fcd179","66620cf7bcb7c756bda0ea70","null","","null","","","","","","","","./tasks/HMM-beads/Images/WhiteBeadChoice.png","","","","","","","","","",""
"image-keyboard-response","306","317508","0.0-3.0-6.0-1.0-2.56","5dd742a140460e6e2b707d58","6662009ae78f21dd82fcd179","66620cf7bcb7c756bda0ea70","null","","null","","","","","","","","./tasks/HMM-beads/Images/WhiteBeadChoiceCorrect.png","","","","","","","","","",""
"image-keyboard-response","307","317839","0.0-3.0-6.0-1.0-0.57","5dd742a140460e6e2b707d58","6662009ae78f21dd82fcd179","66620cf7bcb7c756bda0ea70","331","","j","","","","","","","","./tasks/HMM-beads/Images/NewTrialWC.png","lowH","1","57","1","1","1","1","true","",""
"image-keyboard-response","308","318142","0.0-3.0-6.0-1.0-1.57","5dd742a140460e6e2b707d58","6662009ae78f21dd82fcd179","66620cf7bcb7c756bda0ea70","null","","null","","","","","","","","./tasks/HMM-beads/Images/WhiteBeadChoice.png","","","","","","","","","",""
"image-keyboard-response","309","318650","0.0-3.0-6.0-1.0-2.57","5dd742a140460e6e2b707d58","6662009ae78f21dd82fcd179","66620cf7bcb7c756bda0ea70","null","","null","","","","","","","","./tasks/HMM-beads/Images/WhiteBeadChoiceCorrect.png","","","","","","","","","",""
"image-keyboard-response","310","318939","0.0-3.0-6.0-1.0-0.58","5dd742a140460e6e2b707d58","6662009ae78f21dd82fcd179","66620cf7bcb7c756bda0ea70","288","","j","","","","","","","","./tasks/HMM-beads/Images/NewTrialWC.png","lowH","1","58","1","1","1","1","true","",""
"image-keyboard-response","311","319252","0.0-3.0-6.0-1.0-1.58","5dd742a140460e6e2b707d58","6662009ae78f21dd82fcd179","66620cf7bcb7c756bda0ea70","null","","null","","","","","","","","./tasks/HMM-beads/Images/WhiteBeadChoice.png","","","","","","","","","",""
"image-keyboard-response","312","319759","0.0-3.0-6.0-1.0-2.58","5dd742a140460e6e2b707d58","6662009ae78f21dd82fcd179","66620cf7bcb7c756bda0ea70","null","","null","","","","","","","","./tasks/HMM-beads/Images/WhiteBeadChoiceCorrect.png","","","","","","","","","",""
"image-keyboard-response","313","319904","0.0-3.0-6.0-1.0-0.59","5dd742a140460e6e2b707d58","6662009ae78f21dd82fcd179","66620cf7bcb7c756bda0ea70","145","","j","","","","","","","","./tasks/HMM-beads/Images/NewTrialWC.png","lowH","1","59","1","0","1","1","false","",""
"image-keyboard-response","314","320220","0.0-3.0-6.0-1.0-1.59","5dd742a140460e6e2b707d58","6662009ae78f21dd82fcd179","66620cf7bcb7c756bda0ea70","null","","null","","","","","","","","./tasks/HMM-beads/Images/WhiteBeadChoice.png","","","","","","","","","",""
"image-keyboard-response","315","320726","0.0-3.0-6.0-1.0-2.59","5dd742a140460e6e2b707d58","6662009ae78f21dd82fcd179","66620cf7bcb7c756bda0ea70","null","","null","","","","","","","","./tasks/HMM-beads/Images/WhiteBeadChoiceWrong.png","","","","","","","","","",""
"image-keyboard-response","316","320948","0.0-3.0-6.0-1.0-0.60","5dd742a140460e6e2b707d58","6662009ae78f21dd82fcd179","66620cf7bcb7c756bda0ea70","222","","f","","","","","","","","./tasks/HMM-beads/Images/NewTrialBC.png","lowH","1","60","1","1","0","0","false","",""
"image-keyboard-response","317","321251","0.0-3.0-6.0-1.0-1.60","5dd742a140460e6e2b707d58","6662009ae78f21dd82fcd179","66620cf7bcb7c756bda0ea70","null","","null","","","","","","","","./tasks/HMM-beads/Images/BlackBeadChoice.png","","","","","","","","","",""
"image-keyboard-response","318","321757","0.0-3.0-6.0-1.0-2.60","5dd742a140460e6e2b707d58","6662009ae78f21dd82fcd179","66620cf7bcb7c756bda0ea70","null","","null","","","","","","","","./tasks/HMM-beads/Images/BlackBeadChoiceWrong.png","","","","","","","","","",""
"image-keyboard-response","319","321837","0.0-3.0-6.0-1.0-0.61","5dd742a140460e6e2b707d58","6662009ae78f21dd82fcd179","66620cf7bcb7c756bda0ea70","80","","j","","","","","","","","./tasks/HMM-beads/Images/NewTrialWC.png","lowH","1","61","1","1","1","1","true","",""
"image-keyboard-response","320","322153","0.0-3.0-6.0-1.0-1.61","5dd742a140460e6e2b707d58","6662009ae78f21dd82fcd179","66620cf7bcb7c756bda0ea70","null","","null","","","","","","","","./tasks/HMM-beads/Images/WhiteBeadChoice.png","","","","","","","","","",""
"image-keyboard-response","321","322661","0.0-3.0-6.0-1.0-2.61","5dd742a140460e6e2b707d58","6662009ae78f21dd82fcd179","66620cf7bcb7c756bda0ea70","null","","null","","","","","","","","./tasks/HMM-beads/Images/WhiteBeadChoiceCorrect.png","","","","","","","","","",""
"image-keyboard-response","322","322921","0.0-3.0-6.0-1.0-0.62","5dd742a140460e6e2b707d58","6662009ae78f21dd82fcd179","66620cf7bcb7c756bda0ea70","259","","j","","","","","","","","./tasks/HMM-beads/Images/NewTrialWC.png","lowH","1","62","1","0","1","1","false","",""
"image-keyboard-response","323","323234","0.0-3.0-6.0-1.0-1.62","5dd742a140460e6e2b707d58","6662009ae78f21dd82fcd179","66620cf7bcb7c756bda0ea70","null","","null","","","","","","","","./tasks/HMM-beads/Images/WhiteBeadChoice.png","","","","","","","","","",""
"image-keyboard-response","324","323743","0.0-3.0-6.0-1.0-2.62","5dd742a140460e6e2b707d58","6662009ae78f21dd82fcd179","66620cf7bcb7c756bda0ea70","null","","null","","","","","","","","./tasks/HMM-beads/Images/WhiteBeadChoiceWrong.png","","","","","","","","","",""
"image-keyboard-response","325","324062","0.0-3.0-6.0-1.0-0.63","5dd742a140460e6e2b707d58","6662009ae78f21dd82fcd179","66620cf7bcb7c756bda0ea70","318","","f","","","","","","","","./tasks/HMM-beads/Images/NewTrialBC.png","lowH","1","63","1","1","0","0","false","",""
"image-keyboard-response","326","324365","0.0-3.0-6.0-1.0-1.63","5dd742a140460e6e2b707d58","6662009ae78f21dd82fcd179","66620cf7bcb7c756bda0ea70","null","","null","","","","","","","","./tasks/HMM-beads/Images/BlackBeadChoice.png","","","","","","","","","",""
"image-keyboard-response","327","324875","0.0-3.0-6.0-1.0-2.63","5dd742a140460e6e2b707d58","6662009ae78f21dd82fcd179","66620cf7bcb7c756bda0ea70","null","","null","","","","","","","","./tasks/HMM-beads/Images/BlackBeadChoiceWrong.png","","","","","","","","","",""
"image-keyboard-response","328","324974","0.0-3.0-6.0-1.0-0.64","5dd742a140460e6e2b707d58","6662009ae78f21dd82fcd179","66620cf7bcb7c756bda0ea70","98","","j","","","","","","","","./tasks/HMM-beads/Images/NewTrialWC.png","lowH","1","64","1","1","1","1","true","",""
"image-keyboard-response","329","325288","0.0-3.0-6.0-1.0-1.64","5dd742a140460e6e2b707d58","6662009ae78f21dd82fcd179","66620cf7bcb7c756bda0ea70","null","","null","","","","","","","","./tasks/HMM-beads/Images/WhiteBeadChoice.png","","","","","","","","","",""
"image-keyboard-response","330","325795","0.0-3.0-6.0-1.0-2.64","5dd742a140460e6e2b707d58","6662009ae78f21dd82fcd179","66620cf7bcb7c756bda0ea70","null","","null","","","","","","","","./tasks/HMM-beads/Images/WhiteBeadChoiceCorrect.png","","","","","","","","","",""
"image-keyboard-response","331","326130","0.0-3.0-6.0-1.0-0.65","5dd742a140460e6e2b707d58","6662009ae78f21dd82fcd179","66620cf7bcb7c756bda0ea70","334","","j","","","","","","","","./tasks/HMM-beads/Images/NewTrialWC.png","lowH","1","65","1","1","1","1","true","",""
"image-keyboard-response","332","326446","0.0-3.0-6.0-1.0-1.65","5dd742a140460e6e2b707d58","6662009ae78f21dd82fcd179","66620cf7bcb7c756bda0ea70","null","","null","","","","","","","","./tasks/HMM-beads/Images/WhiteBeadChoice.png","","","","","","","","","",""
"image-keyboard-response","333","326954","0.0-3.0-6.0-1.0-2.65","5dd742a140460e6e2b707d58","6662009ae78f21dd82fcd179","66620cf7bcb7c756bda0ea70","null","","null","","","","","","","","./tasks/HMM-beads/Images/WhiteBeadChoiceCorrect.png","","","","","","","","","",""
"image-keyboard-response","334","327491","0.0-3.0-6.0-1.0-0.66","5dd742a140460e6e2b707d58","6662009ae78f21dd82fcd179","66620cf7bcb7c756bda0ea70","537","","f","","","","","","","","./tasks/HMM-beads/Images/NewTrialWC.png","lowH","1","66","1","1","1","0","false","",""
"image-keyboard-response","335","327796","0.0-3.0-6.0-1.0-1.66","5dd742a140460e6e2b707d58","6662009ae78f21dd82fcd179","66620cf7bcb7c756bda0ea70","null","","null","","","","","","","","./tasks/HMM-beads/Images/BlackBeadChoice.png","","","","","","","","","",""
"image-keyboard-response","336","328303","0.0-3.0-6.0-1.0-2.66","5dd742a140460e6e2b707d58","6662009ae78f21dd82fcd179","66620cf7bcb7c756bda0ea70","null","","null","","","","","","","","./tasks/HMM-beads/Images/BlackBeadChoiceWrong.png","","","","","","","","","",""
"image-keyboard-response","337","328380","0.0-3.0-6.0-1.0-0.67","5dd742a140460e6e2b707d58","6662009ae78f21dd82fcd179","66620cf7bcb7c756bda0ea70","77","","f","","","","","","","","./tasks/HMM-beads/Images/NewTrialWC.png","lowH","1","67","1","0","1","0","true","",""
"image-keyboard-response","338","328697","0.0-3.0-6.0-1.0-1.67","5dd742a140460e6e2b707d58","6662009ae78f21dd82fcd179","66620cf7bcb7c756bda0ea70","null","","null","","","","","","","","./tasks/HMM-beads/Images/BlackBeadChoice.png","","","","","","","","","",""
"image-keyboard-response","339","329208","0.0-3.0-6.0-1.0-2.67","5dd742a140460e6e2b707d58","6662009ae78f21dd82fcd179","66620cf7bcb7c756bda0ea70","null","","null","","","","","","","","./tasks/HMM-beads/Images/BlackBeadChoiceCorrect.png","","","","","","","","","",""
"image-keyboard-response","340","329445","0.0-3.0-6.0-1.0-0.68","5dd742a140460e6e2b707d58","6662009ae78f21dd82fcd179","66620cf7bcb7c756bda0ea70","234","","j","","","","","","","","./tasks/HMM-beads/Images/NewTrialBC.png","lowH","1","68","1","1","0","1","true","",""
"image-keyboard-response","341","329746","0.0-3.0-6.0-1.0-1.68","5dd742a140460e6e2b707d58","6662009ae78f21dd82fcd179","66620cf7bcb7c756bda0ea70","null","","null","","","","","","","","./tasks/HMM-beads/Images/WhiteBeadChoice.png","","","","","","","","","",""
"image-keyboard-response","342","330253","0.0-3.0-6.0-1.0-2.68","5dd742a140460e6e2b707d58","6662009ae78f21dd82fcd179","66620cf7bcb7c756bda0ea70","null","","null","","","","","","","","./tasks/HMM-beads/Images/WhiteBeadChoiceCorrect.png","","","","","","","","","",""
"image-keyboard-response","343","330549","0.0-3.0-6.0-1.0-0.69","5dd742a140460e6e2b707d58","6662009ae78f21dd82fcd179","66620cf7bcb7c756bda0ea70","296","","j","","","","","","","","./tasks/HMM-beads/Images/NewTrialWC.png","lowH","1","69","0","1","1","1","true","",""
"image-keyboard-response","344","330858","0.0-3.0-6.0-1.0-1.69","5dd742a140460e6e2b707d58","6662009ae78f21dd82fcd179","66620cf7bcb7c756bda0ea70","null","","null","","","","","","","","./tasks/HMM-beads/Images/WhiteBeadChoice.png","","","","","","","","","",""
"image-keyboard-response","345","331364","0.0-3.0-6.0-1.0-2.69","5dd742a140460e6e2b707d58","6662009ae78f21dd82fcd179","66620cf7bcb7c756bda0ea70","null","","null","","","","","","","","./tasks/HMM-beads/Images/WhiteBeadChoiceCorrect.png","","","","","","","","","",""
"image-keyboard-response","346","331562","0.0-3.0-6.0-1.0-0.70","5dd742a140460e6e2b707d58","6662009ae78f21dd82fcd179","66620cf7bcb7c756bda0ea70","198","","j","","","","","","","","./tasks/HMM-beads/Images/NewTrialWC.png","lowH","1","70","0","1","1","1","true","",""
"image-keyboard-response","347","331868","0.0-3.0-6.0-1.0-1.70","5dd742a140460e6e2b707d58","6662009ae78f21dd82fcd179","66620cf7bcb7c756bda0ea70","null","","null","","","","","","","","./tasks/HMM-beads/Images/WhiteBeadChoice.png","","","","","","","","","",""
"image-keyboard-response","348","332378","0.0-3.0-6.0-1.0-2.70","5dd742a140460e6e2b707d58","6662009ae78f21dd82fcd179","66620cf7bcb7c756bda0ea70","null","","null","","","","","","","","./tasks/HMM-beads/Images/WhiteBeadChoiceCorrect.png","","","","","","","","","",""
"image-keyboard-response","349","332610","0.0-3.0-6.0-1.0-0.71","5dd742a140460e6e2b707d58","6662009ae78f21dd82fcd179","66620cf7bcb7c756bda0ea70","230","","f","","","","","","","","./tasks/HMM-beads/Images/NewTrialWC.png","lowH","1","71","0","0","1","0","true","",""
"image-keyboard-response","350","332914","0.0-3.0-6.0-1.0-1.71","5dd742a140460e6e2b707d58","6662009ae78f21dd82fcd179","66620cf7bcb7c756bda0ea70","null","","null","","","","","","","","./tasks/HMM-beads/Images/BlackBeadChoice.png","","","","","","","","","",""
"image-keyboard-response","351","333425","0.0-3.0-6.0-1.0-2.71","5dd742a140460e6e2b707d58","6662009ae78f21dd82fcd179","66620cf7bcb7c756bda0ea70","null","","null","","","","","","","","./tasks/HMM-beads/Images/BlackBeadChoiceCorrect.png","","","","","","","","","",""
"image-keyboard-response","352","333691","0.0-3.0-6.0-1.0-0.72","5dd742a140460e6e2b707d58","6662009ae78f21dd82fcd179","66620cf7bcb7c756bda0ea70","265","","j","","","","","","","","./tasks/HMM-beads/Images/NewTrialBC.png","lowH","1","72","0","0","0","1","false","",""
"image-keyboard-response","353","333998","0.0-3.0-6.0-1.0-1.72","5dd742a140460e6e2b707d58","6662009ae78f21dd82fcd179","66620cf7bcb7c756bda0ea70","null","","null","","","","","","","","./tasks/HMM-beads/Images/WhiteBeadChoice.png","","","","","","","","","",""
"image-keyboard-response","354","334506","0.0-3.0-6.0-1.0-2.72","5dd742a140460e6e2b707d58","6662009ae78f21dd82fcd179","66620cf7bcb7c756bda0ea70","null","","null","","","","","","","","./tasks/HMM-beads/Images/WhiteBeadChoiceWrong.png","","","","","","","","","",""
"image-keyboard-response","355","334776","0.0-3.0-6.0-1.0-0.73","5dd742a140460e6e2b707d58","6662009ae78f21dd82fcd179","66620cf7bcb7c756bda0ea70","270","","j","","","","","","","","./tasks/HMM-beads/Images/NewTrialBC.png","lowH","1","73","0","1","0","1","true","",""
"image-keyboard-response","356","335078","0.0-3.0-6.0-1.0-1.73","5dd742a140460e6e2b707d58","6662009ae78f21dd82fcd179","66620cf7bcb7c756bda0ea70","null","","null","","","","","","","","./tasks/HMM-beads/Images/WhiteBeadChoice.png","","","","","","","","","",""
"image-keyboard-response","357","335585","0.0-3.0-6.0-1.0-2.73","5dd742a140460e6e2b707d58","6662009ae78f21dd82fcd179","66620cf7bcb7c756bda0ea70","null","","null","","","","","","","","./tasks/HMM-beads/Images/WhiteBeadChoiceCorrect.png","","","","","","","","","",""
"image-keyboard-response","358","335816","0.0-3.0-6.0-1.0-0.74","5dd742a140460e6e2b707d58","6662009ae78f21dd82fcd179","66620cf7bcb7c756bda0ea70","231","","j","","","","","","","","./tasks/HMM-beads/Images/NewTrialWC.png","lowH","1","74","0","0","1","1","false","",""
"image-keyboard-response","359","336123","0.0-3.0-6.0-1.0-1.74","5dd742a140460e6e2b707d58","6662009ae78f21dd82fcd179","66620cf7bcb7c756bda0ea70","null","","null","","","","","","","","./tasks/HMM-beads/Images/WhiteBeadChoice.png","","","","","","","","","",""
"image-keyboard-response","360","336632","0.0-3.0-6.0-1.0-2.74","5dd742a140460e6e2b707d58","6662009ae78f21dd82fcd179","66620cf7bcb7c756bda0ea70","null","","null","","","","","","","","./tasks/HMM-beads/Images/WhiteBeadChoiceWrong.png","","","","","","","","","",""
"image-keyboard-response","361","336905","0.0-3.0-6.0-1.0-0.75","5dd742a140460e6e2b707d58","6662009ae78f21dd82fcd179","66620cf7bcb7c756bda0ea70","272","","j","","","","","","","","./tasks/HMM-beads/Images/NewTrialBC.png","lowH","1","75","0","1","0","1","true","",""
"image-keyboard-response","362","337220","0.0-3.0-6.0-1.0-1.75","5dd742a140460e6e2b707d58","6662009ae78f21dd82fcd179","66620cf7bcb7c756bda0ea70","null","","null","","","","","","","","./tasks/HMM-beads/Images/WhiteBeadChoice.png","","","","","","","","","",""
"image-keyboard-response","363","337727","0.0-3.0-6.0-1.0-2.75","5dd742a140460e6e2b707d58","6662009ae78f21dd82fcd179","66620cf7bcb7c756bda0ea70","null","","null","","","","","","","","./tasks/HMM-beads/Images/WhiteBeadChoiceCorrect.png","","","","","","","","","",""
"image-keyboard-response","364","337982","0.0-3.0-6.0-1.0-0.76","5dd742a140460e6e2b707d58","6662009ae78f21dd82fcd179","66620cf7bcb7c756bda0ea70","254","","j","","","","","","","","./tasks/HMM-beads/Images/NewTrialWC.png","lowH","1","76","0","1","1","1","true","",""
"image-keyboard-response","365","338283","0.0-3.0-6.0-1.0-1.76","5dd742a140460e6e2b707d58","6662009ae78f21dd82fcd179","66620cf7bcb7c756bda0ea70","null","","null","","","","","","","","./tasks/HMM-beads/Images/WhiteBeadChoice.png","","","","","","","","","",""
"image-keyboard-response","366","338789","0.0-3.0-6.0-1.0-2.76","5dd742a140460e6e2b707d58","6662009ae78f21dd82fcd179","66620cf7bcb7c756bda0ea70","null","","null","","","","","","","","./tasks/HMM-beads/Images/WhiteBeadChoiceCorrect.png","","","","","","","","","",""
"image-keyboard-response","367","339091","0.0-3.0-6.0-1.0-0.77","5dd742a140460e6e2b707d58","6662009ae78f21dd82fcd179","66620cf7bcb7c756bda0ea70","301","","j","","","","","","","","./tasks/HMM-beads/Images/NewTrialWC.png","lowH","1","77","0","0","1","1","false","",""
"image-keyboard-response","368","339407","0.0-3.0-6.0-1.0-1.77","5dd742a140460e6e2b707d58","6662009ae78f21dd82fcd179","66620cf7bcb7c756bda0ea70","null","","null","","","","","","","","./tasks/HMM-beads/Images/WhiteBeadChoice.png","","","","","","","","","",""
"image-keyboard-response","369","339915","0.0-3.0-6.0-1.0-2.77","5dd742a140460e6e2b707d58","6662009ae78f21dd82fcd179","66620cf7bcb7c756bda0ea70","null","","null","","","","","","","","./tasks/HMM-beads/Images/WhiteBeadChoiceWrong.png","","","","","","","","","",""
"image-keyboard-response","370","340248","0.0-3.0-6.0-1.0-0.78","5dd742a140460e6e2b707d58","6662009ae78f21dd82fcd179","66620cf7bcb7c756bda0ea70","332","","f","","","","","","","","./tasks/HMM-beads/Images/NewTrialBC.png","lowH","1","78","0","0","0","0","true","",""
"image-keyboard-response","371","340550","0.0-3.0-6.0-1.0-1.78","5dd742a140460e6e2b707d58","6662009ae78f21dd82fcd179","66620cf7bcb7c756bda0ea70","null","","null","","","","","","","","./tasks/HMM-beads/Images/BlackBeadChoice.png","","","","","","","","","",""
"image-keyboard-response","372","341056","0.0-3.0-6.0-1.0-2.78","5dd742a140460e6e2b707d58","6662009ae78f21dd82fcd179","66620cf7bcb7c756bda0ea70","null","","null","","","","","","","","./tasks/HMM-beads/Images/BlackBeadChoiceCorrect.png","","","","","","","","","",""
"image-keyboard-response","373","341217","0.0-3.0-6.0-1.0-0.79","5dd742a140460e6e2b707d58","6662009ae78f21dd82fcd179","66620cf7bcb7c756bda0ea70","160","","j","","","","","","","","./tasks/HMM-beads/Images/NewTrialBC.png","lowH","1","79","0","0","0","1","false","",""
"image-keyboard-response","374","341533","0.0-3.0-6.0-1.0-1.79","5dd742a140460e6e2b707d58","6662009ae78f21dd82fcd179","66620cf7bcb7c756bda0ea70","null","","null","","","","","","","","./tasks/HMM-beads/Images/WhiteBeadChoice.png","","","","","","","","","",""
