"trial_type","trial_index","time_elapsed","internal_node_id","subject_id","study_id","session_id","rt","url","response","question_order","view_history","success","timeout","failed_images","failed_audio","failed_video","stimulus","block","block_rep","trial_number","jar","bead","previous_bead","choice","correct","lowH_score","total_bonus"
"pavlovia","0","2840","0.0-0.0","65dc39c407a42529d7d7199f","6662009ae78f21dd82fcd179","66620c6c80e7717867e40c8e","","","","","","","","","","","","","","","","","","","","",""
"external-html","1","12151","0.0-1.0-0.0","65dc39c407a42529d7d7199f","6662009ae78f21dd82fcd179","66620c6c80e7717867e40c8e","8875","new_consent.html","","","","","","","","","","","","","","","","","","",""
"survey-multi-choice","2","22921","0.0-1.0-1.0","65dc39c407a42529d7d7199f","6662009ae78f21dd82fcd179","66620c6c80e7717867e40c8e","10769","","{""Q0"":""Male"",""Q1"":""Black or African American""}","[0,1]","","","","","","","","","","","","","","","","",""
"survey-text","3","31407","0.0-1.0-2.0","65dc39c407a42529d7d7199f","6662009ae78f21dd82fcd179","66620c6c80e7717867e40c8e","8483","","{""Q0"":""35""}","","","","","","","","","","","","","","","","","",""
"instructions","4","35252","0.0-2.0","65dc39c407a42529d7d7199f","6662009ae78f21dd82fcd179","66620c6c80e7717867e40c8e","3728","","","","[{""page_index"":0,""viewing_time"":3728}]","","","","","","","","","","","","","","","",""
"preload","5","38813","0.0-3.0-0.0","65dc39c407a42529d7d7199f","6662009ae78f21dd82fcd179","66620c6c80e7717867e40c8e","","","","","","true","false","[]","[]","[]","","","","","","","","","","",""
"instructions","6","178411","0.0-3.0-1.0","65dc39c407a42529d7d7199f","6662009ae78f21dd82fcd179","66620c6c80e7717867e40c8e","139598","","","","[{""page_index"":0,""viewing_time"":18946},{""page_index"":1,""viewing_time"":20446},{""page_index"":2,""viewing_time"":4170},{""page_index"":3,""viewing_time"":3150},{""page_index"":4,""viewing_time"":9602},{""page_index"":5,""viewing_time"":40568},{""page_index"":6,""viewing_time"":13150},{""page_index"":7,""viewing_time"":5356},{""page_index"":8,""viewing_time"":1064},{""page_index"":9,""viewing_time"":8712},{""page_index"":10,""viewing_time"":6718},{""page_index"":11,""viewing_time"":7716}]","","","","","","","","","","","","","","","",""
"html-button-response","7","181732","0.0-3.0-2.0-0.0-0.0","65dc39c407a42529d7d7199f","6662009ae78f21dd82fcd179","66620c6c80e7717867e40c8e","3319","","1","","","","","","","","<div align=center>Your goal is to predict…?<br><br></div>","","","","","","","","","",""
"html-button-response","8","192838","0.0-3.0-2.0-1.0-0.0","65dc39c407a42529d7d7199f","6662009ae78f21dd82fcd179","66620c6c80e7717867e40c8e","8695","","2","","","","","","","","<div align=center>In the jar with mostly white beads, there are ___% white beads and ___% black beads?<br><br></div>","","","","","","","","","",""
"html-button-response","9","199590","0.0-3.0-2.0-2.0-0.0","65dc39c407a42529d7d7199f","6662009ae78f21dd82fcd179","66620c6c80e7717867e40c8e","5209","","0","","","","","","","","<div align=center>When there is a 1% probability that the jars will switch, the next bead will most likely be drawn from the…<br><br></div>","","","","","","","","","",""
"html-button-response","10","204654","0.0-3.0-2.0-3.0-0.0","65dc39c407a42529d7d7199f","6662009ae78f21dd82fcd179","66620c6c80e7717867e40c8e","3161","","1","","","","","","","","<div align=center>When there is a 99% probability that the jars will switch, the next bead will most likely be drawn from the…<br><br></div>","","","","","","","","","",""
"instructions","11","214063","0.0-3.0-3.0","65dc39c407a42529d7d7199f","6662009ae78f21dd82fcd179","66620c6c80e7717867e40c8e","8010","","","","[{""page_index"":0,""viewing_time"":8009}]","","","","","","","","","","","","","","","",""
"html-keyboard-response","12","218890","0.0-3.0-4.0-0.0","65dc39c407a42529d7d7199f","6662009ae78f21dd82fcd179","66620c6c80e7717867e40c8e","4826",""," ","","","","","","","","<div align=center>In this practice block, there will be a <b>1% chance</b> that the jar on the next trial will be different from the jar on the current trial.<br><br></div>","","","","","","","","","",""
"image-keyboard-response","13","224057","0.0-3.0-4.0-1.0-0.0","65dc39c407a42529d7d7199f","6662009ae78f21dd82fcd179","66620c6c80e7717867e40c8e","5165","","j","","","","","","","","./tasks/HMM-beads/Images/NoChoice.png","practice","0","0","0","0","9","1","false","",""
"image-keyboard-response","14","224367","0.0-3.0-4.0-1.0-1.0","65dc39c407a42529d7d7199f","6662009ae78f21dd82fcd179","66620c6c80e7717867e40c8e","null","","null","","","","","","","","./tasks/HMM-beads/Images/WhiteBeadChoice.png","","","","","","","","","",""
"image-keyboard-response","15","224873","0.0-3.0-4.0-1.0-2.0","65dc39c407a42529d7d7199f","6662009ae78f21dd82fcd179","66620c6c80e7717867e40c8e","null","","null","","","","","","","","./tasks/HMM-beads/Images/WhiteBeadChoiceWrong.png","","","","","","","","","",""
"image-keyboard-response","16","229353","0.0-3.0-4.0-1.0-0.1","65dc39c407a42529d7d7199f","6662009ae78f21dd82fcd179","66620c6c80e7717867e40c8e","4480","","f","","","","","","","","./tasks/HMM-beads/Images/NewTrialBC.png","practice","0","1","0","0","0","0","true","",""
"image-keyboard-response","17","229657","0.0-3.0-4.0-1.0-1.1","65dc39c407a42529d7d7199f","6662009ae78f21dd82fcd179","66620c6c80e7717867e40c8e","null","","null","","","","","","","","./tasks/HMM-beads/Images/BlackBeadChoice.png","","","","","","","","","",""
"image-keyboard-response","18","230160","0.0-3.0-4.0-1.0-2.1","65dc39c407a42529d7d7199f","6662009ae78f21dd82fcd179","66620c6c80e7717867e40c8e","null","","null","","","","","","","","./tasks/HMM-beads/Images/BlackBeadChoiceCorrect.png","","","","","","","","","",""
"image-keyboard-response","19","231705","0.0-3.0-4.0-1.0-0.2","65dc39c407a42529d7d7199f","6662009ae78f21dd82fcd179","66620c6c80e7717867e40c8e","1545","","f","","","","","","","","./tasks/HMM-beads/Images/NewTrialBC.png","practice","0","2","0","1","0","0","false","",""
"image-keyboard-response","20","232008","0.0-3.0-4.0-1.0-1.2","65dc39c407a42529d7d7199f","6662009ae78f21dd82fcd179","66620c6c80e7717867e40c8e","null","","null","","","","","","","","./tasks/HMM-beads/Images/BlackBeadChoice.png","","","","","","","","","",""
"image-keyboard-response","21","232514","0.0-3.0-4.0-1.0-2.2","65dc39c407a42529d7d7199f","6662009ae78f21dd82fcd179","66620c6c80e7717867e40c8e","null","","null","","","","","","","","./tasks/HMM-beads/Images/BlackBeadChoiceWrong.png","","","","","","","","","",""
"image-keyboard-response","22","232905","0.0-3.0-4.0-1.0-0.3","65dc39c407a42529d7d7199f","6662009ae78f21dd82fcd179","66620c6c80e7717867e40c8e","391","","j","","","","","","","","./tasks/HMM-beads/Images/NewTrialWC.png","practice","0","3","0","0","1","1","false","",""
"image-keyboard-response","23","233209","0.0-3.0-4.0-1.0-1.3","65dc39c407a42529d7d7199f","6662009ae78f21dd82fcd179","66620c6c80e7717867e40c8e","null","","null","","","","","","","","./tasks/HMM-beads/Images/WhiteBeadChoice.png","","","","","","","","","",""
"image-keyboard-response","24","233713","0.0-3.0-4.0-1.0-2.3","65dc39c407a42529d7d7199f","6662009ae78f21dd82fcd179","66620c6c80e7717867e40c8e","null","","null","","","","","","","","./tasks/HMM-beads/Images/WhiteBeadChoiceWrong.png","","","","","","","","","",""
"image-keyboard-response","25","233929","0.0-3.0-4.0-1.0-0.4","65dc39c407a42529d7d7199f","6662009ae78f21dd82fcd179","66620c6c80e7717867e40c8e","211","","f","","","","","","","","./tasks/HMM-beads/Images/NewTrialBC.png","practice","0","4","0","0","0","0","true","",""
"image-keyboard-response","26","234243","0.0-3.0-4.0-1.0-1.4","65dc39c407a42529d7d7199f","6662009ae78f21dd82fcd179","66620c6c80e7717867e40c8e","null","","null","","","","","","","","./tasks/HMM-beads/Images/BlackBeadChoice.png","","","","","","","","","",""
"image-keyboard-response","27","234749","0.0-3.0-4.0-1.0-2.4","65dc39c407a42529d7d7199f","6662009ae78f21dd82fcd179","66620c6c80e7717867e40c8e","null","","null","","","","","","","","./tasks/HMM-beads/Images/BlackBeadChoiceCorrect.png","","","","","","","","","",""
"image-keyboard-response","28","235209","0.0-3.0-4.0-1.0-0.5","65dc39c407a42529d7d7199f","6662009ae78f21dd82fcd179","66620c6c80e7717867e40c8e","459","","f","","","","","","","","./tasks/HMM-beads/Images/NewTrialBC.png","practice","0","5","0","1","0","0","false","",""
"image-keyboard-response","29","235511","0.0-3.0-4.0-1.0-1.5","65dc39c407a42529d7d7199f","6662009ae78f21dd82fcd179","66620c6c80e7717867e40c8e","null","","null","","","","","","","","./tasks/HMM-beads/Images/BlackBeadChoice.png","","","","","","","","","",""
"image-keyboard-response","30","236017","0.0-3.0-4.0-1.0-2.5","65dc39c407a42529d7d7199f","6662009ae78f21dd82fcd179","66620c6c80e7717867e40c8e","null","","null","","","","","","","","./tasks/HMM-beads/Images/BlackBeadChoiceWrong.png","","","","","","","","","",""
"image-keyboard-response","31","238441","0.0-3.0-4.0-1.0-0.6","65dc39c407a42529d7d7199f","6662009ae78f21dd82fcd179","66620c6c80e7717867e40c8e","2423","","j","","","","","","","","./tasks/HMM-beads/Images/NewTrialWC.png","practice","0","6","0","0","1","1","false","",""
"image-keyboard-response","32","238748","0.0-3.0-4.0-1.0-1.6","65dc39c407a42529d7d7199f","6662009ae78f21dd82fcd179","66620c6c80e7717867e40c8e","null","","null","","","","","","","","./tasks/HMM-beads/Images/WhiteBeadChoice.png","","","","","","","","","",""
"image-keyboard-response","33","239254","0.0-3.0-4.0-1.0-2.6","65dc39c407a42529d7d7199f","6662009ae78f21dd82fcd179","66620c6c80e7717867e40c8e","null","","null","","","","","","","","./tasks/HMM-beads/Images/WhiteBeadChoiceWrong.png","","","","","","","","","",""
"image-keyboard-response","34","240233","0.0-3.0-4.0-1.0-0.7","65dc39c407a42529d7d7199f","6662009ae78f21dd82fcd179","66620c6c80e7717867e40c8e","979","","f","","","","","","","","./tasks/HMM-beads/Images/NewTrialBC.png","practice","0","7","0","0","0","0","true","",""
"image-keyboard-response","35","240535","0.0-3.0-4.0-1.0-1.7","65dc39c407a42529d7d7199f","6662009ae78f21dd82fcd179","66620c6c80e7717867e40c8e","null","","null","","","","","","","","./tasks/HMM-beads/Images/BlackBeadChoice.png","","","","","","","","","",""
"image-keyboard-response","36","241037","0.0-3.0-4.0-1.0-2.7","65dc39c407a42529d7d7199f","6662009ae78f21dd82fcd179","66620c6c80e7717867e40c8e","null","","null","","","","","","","","./tasks/HMM-beads/Images/BlackBeadChoiceCorrect.png","","","","","","","","","",""
"image-keyboard-response","37","242553","0.0-3.0-4.0-1.0-0.8","65dc39c407a42529d7d7199f","6662009ae78f21dd82fcd179","66620c6c80e7717867e40c8e","1515","","f","","","","","","","","./tasks/HMM-beads/Images/NewTrialBC.png","practice","0","8","0","0","0","0","true","",""
"image-keyboard-response","38","242869","0.0-3.0-4.0-1.0-1.8","65dc39c407a42529d7d7199f","6662009ae78f21dd82fcd179","66620c6c80e7717867e40c8e","null","","null","","","","","","","","./tasks/HMM-beads/Images/BlackBeadChoice.png","","","","","","","","","",""
"image-keyboard-response","39","243374","0.0-3.0-4.0-1.0-2.8","65dc39c407a42529d7d7199f","6662009ae78f21dd82fcd179","66620c6c80e7717867e40c8e","null","","null","","","","","","","","./tasks/HMM-beads/Images/BlackBeadChoiceCorrect.png","","","","","","","","","",""
"image-keyboard-response","40","243913","0.0-3.0-4.0-1.0-0.9","65dc39c407a42529d7d7199f","6662009ae78f21dd82fcd179","66620c6c80e7717867e40c8e","538","","f","","","","","","","","./tasks/HMM-beads/Images/NewTrialBC.png","practice","0","9","0","1","0","0","false","",""
"image-keyboard-response","41","244220","0.0-3.0-4.0-1.0-1.9","65dc39c407a42529d7d7199f","6662009ae78f21dd82fcd179","66620c6c80e7717867e40c8e","null","","null","","","","","","","","./tasks/HMM-beads/Images/BlackBeadChoice.png","","","","","","","","","",""
"image-keyboard-response","42","244726","0.0-3.0-4.0-1.0-2.9","65dc39c407a42529d7d7199f","6662009ae78f21dd82fcd179","66620c6c80e7717867e40c8e","null","","null","","","","","","","","./tasks/HMM-beads/Images/BlackBeadChoiceWrong.png","","","","","","","","","",""
"image-keyboard-response","43","245049","0.0-3.0-4.0-1.0-0.10","65dc39c407a42529d7d7199f","6662009ae78f21dd82fcd179","66620c6c80e7717867e40c8e","323","","j","","","","","","","","./tasks/HMM-beads/Images/NewTrialWC.png","practice","0","10","0","0","1","1","false","",""
"image-keyboard-response","44","245354","0.0-3.0-4.0-1.0-1.10","65dc39c407a42529d7d7199f","6662009ae78f21dd82fcd179","66620c6c80e7717867e40c8e","null","","null","","","","","","","","./tasks/HMM-beads/Images/WhiteBeadChoice.png","","","","","","","","","",""
"image-keyboard-response","45","245859","0.0-3.0-4.0-1.0-2.10","65dc39c407a42529d7d7199f","6662009ae78f21dd82fcd179","66620c6c80e7717867e40c8e","null","","null","","","","","","","","./tasks/HMM-beads/Images/WhiteBeadChoiceWrong.png","","","","","","","","","",""
"image-keyboard-response","46","245945","0.0-3.0-4.0-1.0-0.11","65dc39c407a42529d7d7199f","6662009ae78f21dd82fcd179","66620c6c80e7717867e40c8e","86","","f","","","","","","","","./tasks/HMM-beads/Images/NewTrialBC.png","practice","0","11","0","1","0","0","false","",""
"image-keyboard-response","47","246255","0.0-3.0-4.0-1.0-1.11","65dc39c407a42529d7d7199f","6662009ae78f21dd82fcd179","66620c6c80e7717867e40c8e","null","","null","","","","","","","","./tasks/HMM-beads/Images/BlackBeadChoice.png","","","","","","","","","",""
"image-keyboard-response","48","246760","0.0-3.0-4.0-1.0-2.11","65dc39c407a42529d7d7199f","6662009ae78f21dd82fcd179","66620c6c80e7717867e40c8e","null","","null","","","","","","","","./tasks/HMM-beads/Images/BlackBeadChoiceWrong.png","","","","","","","","","",""
"image-keyboard-response","49","247305","0.0-3.0-4.0-1.0-0.12","65dc39c407a42529d7d7199f","6662009ae78f21dd82fcd179","66620c6c80e7717867e40c8e","545","","j","","","","","","","","./tasks/HMM-beads/Images/NewTrialWC.png","practice","0","12","0","0","1","1","false","",""
"image-keyboard-response","50","247606","0.0-3.0-4.0-1.0-1.12","65dc39c407a42529d7d7199f","6662009ae78f21dd82fcd179","66620c6c80e7717867e40c8e","null","","null","","","","","","","","./tasks/HMM-beads/Images/WhiteBeadChoice.png","","","","","","","","","",""
"image-keyboard-response","51","248111","0.0-3.0-4.0-1.0-2.12","65dc39c407a42529d7d7199f","6662009ae78f21dd82fcd179","66620c6c80e7717867e40c8e","null","","null","","","","","","","","./tasks/HMM-beads/Images/WhiteBeadChoiceWrong.png","","","","","","","","","",""
"image-keyboard-response","52","248713","0.0-3.0-4.0-1.0-0.13","65dc39c407a42529d7d7199f","6662009ae78f21dd82fcd179","66620c6c80e7717867e40c8e","602","","f","","","","","","","","./tasks/HMM-beads/Images/NewTrialBC.png","practice","0","13","0","0","0","0","true","",""
"image-keyboard-response","53","249024","0.0-3.0-4.0-1.0-1.13","65dc39c407a42529d7d7199f","6662009ae78f21dd82fcd179","66620c6c80e7717867e40c8e","null","","null","","","","","","","","./tasks/HMM-beads/Images/BlackBeadChoice.png","","","","","","","","","",""
"image-keyboard-response","54","249529","0.0-3.0-4.0-1.0-2.13","65dc39c407a42529d7d7199f","6662009ae78f21dd82fcd179","66620c6c80e7717867e40c8e","null","","null","","","","","","","","./tasks/HMM-beads/Images/BlackBeadChoiceCorrect.png","","","","","","","","","",""
"image-keyboard-response","55","249577","0.0-3.0-4.0-1.0-0.14","65dc39c407a42529d7d7199f","6662009ae78f21dd82fcd179","66620c6c80e7717867e40c8e","47","","f","","","","","","","","./tasks/HMM-beads/Images/NewTrialBC.png","practice","0","14","0","0","0","0","true","",""
"image-keyboard-response","56","249878","0.0-3.0-4.0-1.0-1.14","65dc39c407a42529d7d7199f","6662009ae78f21dd82fcd179","66620c6c80e7717867e40c8e","null","","null","","","","","","","","./tasks/HMM-beads/Images/BlackBeadChoice.png","","","","","","","","","",""
"image-keyboard-response","57","250382","0.0-3.0-4.0-1.0-2.14","65dc39c407a42529d7d7199f","6662009ae78f21dd82fcd179","66620c6c80e7717867e40c8e","null","","null","","","","","","","","./tasks/HMM-beads/Images/BlackBeadChoiceCorrect.png","","","","","","","","","",""
"image-keyboard-response","58","250537","0.0-3.0-4.0-1.0-0.15","65dc39c407a42529d7d7199f","6662009ae78f21dd82fcd179","66620c6c80e7717867e40c8e","155","","f","","","","","","","","./tasks/HMM-beads/Images/NewTrialBC.png","practice","0","15","0","0","0","0","true","",""
"image-keyboard-response","59","250843","0.0-3.0-4.0-1.0-1.15","65dc39c407a42529d7d7199f","6662009ae78f21dd82fcd179","66620c6c80e7717867e40c8e","null","","null","","","","","","","","./tasks/HMM-beads/Images/BlackBeadChoice.png","","","","","","","","","",""
"image-keyboard-response","60","251349","0.0-3.0-4.0-1.0-2.15","65dc39c407a42529d7d7199f","6662009ae78f21dd82fcd179","66620c6c80e7717867e40c8e","null","","null","","","","","","","","./tasks/HMM-beads/Images/BlackBeadChoiceCorrect.png","","","","","","","","","",""
"image-keyboard-response","61","251769","0.0-3.0-4.0-1.0-0.16","65dc39c407a42529d7d7199f","6662009ae78f21dd82fcd179","66620c6c80e7717867e40c8e","419","","f","","","","","","","","./tasks/HMM-beads/Images/NewTrialBC.png","practice","0","16","0","0","0","0","true","",""
"image-keyboard-response","62","252078","0.0-3.0-4.0-1.0-1.16","65dc39c407a42529d7d7199f","6662009ae78f21dd82fcd179","66620c6c80e7717867e40c8e","null","","null","","","","","","","","./tasks/HMM-beads/Images/BlackBeadChoice.png","","","","","","","","","",""
"image-keyboard-response","63","252585","0.0-3.0-4.0-1.0-2.16","65dc39c407a42529d7d7199f","6662009ae78f21dd82fcd179","66620c6c80e7717867e40c8e","null","","null","","","","","","","","./tasks/HMM-beads/Images/BlackBeadChoiceCorrect.png","","","","","","","","","",""
"image-keyboard-response","64","252873","0.0-3.0-4.0-1.0-0.17","65dc39c407a42529d7d7199f","6662009ae78f21dd82fcd179","66620c6c80e7717867e40c8e","285","","f","","","","","","","","./tasks/HMM-beads/Images/NewTrialBC.png","practice","0","17","0","0","0","0","true","",""
"image-keyboard-response","65","253179","0.0-3.0-4.0-1.0-1.17","65dc39c407a42529d7d7199f","6662009ae78f21dd82fcd179","66620c6c80e7717867e40c8e","null","","null","","","","","","","","./tasks/HMM-beads/Images/BlackBeadChoice.png","","","","","","","","","",""
"image-keyboard-response","66","253686","0.0-3.0-4.0-1.0-2.17","65dc39c407a42529d7d7199f","6662009ae78f21dd82fcd179","66620c6c80e7717867e40c8e","null","","null","","","","","","","","./tasks/HMM-beads/Images/BlackBeadChoiceCorrect.png","","","","","","","","","",""
"image-keyboard-response","67","254041","0.0-3.0-4.0-1.0-0.18","65dc39c407a42529d7d7199f","6662009ae78f21dd82fcd179","66620c6c80e7717867e40c8e","354","","f","","","","","","","","./tasks/HMM-beads/Images/NewTrialBC.png","practice","0","18","0","1","0","0","false","",""
"image-keyboard-response","68","254347","0.0-3.0-4.0-1.0-1.18","65dc39c407a42529d7d7199f","6662009ae78f21dd82fcd179","66620c6c80e7717867e40c8e","null","","null","","","","","","","","./tasks/HMM-beads/Images/BlackBeadChoice.png","","","","","","","","","",""
"image-keyboard-response","69","254853","0.0-3.0-4.0-1.0-2.18","65dc39c407a42529d7d7199f","6662009ae78f21dd82fcd179","66620c6c80e7717867e40c8e","null","","null","","","","","","","","./tasks/HMM-beads/Images/BlackBeadChoiceWrong.png","","","","","","","","","",""
"image-keyboard-response","70","255113","0.0-3.0-4.0-1.0-0.19","65dc39c407a42529d7d7199f","6662009ae78f21dd82fcd179","66620c6c80e7717867e40c8e","260","","f","","","","","","","","./tasks/HMM-beads/Images/NewTrialWC.png","practice","0","19","0","0","1","0","true","",""
"image-keyboard-response","71","255414","0.0-3.0-4.0-1.0-1.19","65dc39c407a42529d7d7199f","6662009ae78f21dd82fcd179","66620c6c80e7717867e40c8e","null","","null","","","","","","","","./tasks/HMM-beads/Images/BlackBeadChoice.png","","","","","","","","","",""
"image-keyboard-response","72","255921","0.0-3.0-4.0-1.0-2.19","65dc39c407a42529d7d7199f","6662009ae78f21dd82fcd179","66620c6c80e7717867e40c8e","null","","null","","","","","","","","./tasks/HMM-beads/Images/BlackBeadChoiceCorrect.png","","","","","","","","","",""
"image-keyboard-response","73","256649","0.0-3.0-4.0-1.0-0.20","65dc39c407a42529d7d7199f","6662009ae78f21dd82fcd179","66620c6c80e7717867e40c8e","727","","f","","","","","","","","./tasks/HMM-beads/Images/NewTrialBC.png","practice","0","20","0","0","0","0","true","",""
"image-keyboard-response","74","256952","0.0-3.0-4.0-1.0-1.20","65dc39c407a42529d7d7199f","6662009ae78f21dd82fcd179","66620c6c80e7717867e40c8e","null","","null","","","","","","","","./tasks/HMM-beads/Images/BlackBeadChoice.png","","","","","","","","","",""
"image-keyboard-response","75","257453","0.0-3.0-4.0-1.0-2.20","65dc39c407a42529d7d7199f","6662009ae78f21dd82fcd179","66620c6c80e7717867e40c8e","null","","null","","","","","","","","./tasks/HMM-beads/Images/BlackBeadChoiceCorrect.png","","","","","","","","","",""
"image-keyboard-response","76","257545","0.0-3.0-4.0-1.0-0.21","65dc39c407a42529d7d7199f","6662009ae78f21dd82fcd179","66620c6c80e7717867e40c8e","92","","f","","","","","","","","./tasks/HMM-beads/Images/NewTrialBC.png","practice","0","21","0","1","0","0","false","",""
"image-keyboard-response","77","257850","0.0-3.0-4.0-1.0-1.21","65dc39c407a42529d7d7199f","6662009ae78f21dd82fcd179","66620c6c80e7717867e40c8e","null","","null","","","","","","","","./tasks/HMM-beads/Images/BlackBeadChoice.png","","","","","","","","","",""
"image-keyboard-response","78","258356","0.0-3.0-4.0-1.0-2.21","65dc39c407a42529d7d7199f","6662009ae78f21dd82fcd179","66620c6c80e7717867e40c8e","null","","null","","","","","","","","./tasks/HMM-beads/Images/BlackBeadChoiceWrong.png","","","","","","","","","",""
"image-keyboard-response","79","258473","0.0-3.0-4.0-1.0-0.22","65dc39c407a42529d7d7199f","6662009ae78f21dd82fcd179","66620c6c80e7717867e40c8e","116","","j","","","","","","","","./tasks/HMM-beads/Images/NewTrialWC.png","practice","0","22","1","1","1","1","true","",""
"image-keyboard-response","80","258784","0.0-3.0-4.0-1.0-1.22","65dc39c407a42529d7d7199f","6662009ae78f21dd82fcd179","66620c6c80e7717867e40c8e","null","","null","","","","","","","","./tasks/HMM-beads/Images/WhiteBeadChoice.png","","","","","","","","","",""
"image-keyboard-response","81","259291","0.0-3.0-4.0-1.0-2.22","65dc39c407a42529d7d7199f","6662009ae78f21dd82fcd179","66620c6c80e7717867e40c8e","null","","null","","","","","","","","./tasks/HMM-beads/Images/WhiteBeadChoiceCorrect.png","","","","","","","","","",""
"image-keyboard-response","82","259817","0.0-3.0-4.0-1.0-0.23","65dc39c407a42529d7d7199f","6662009ae78f21dd82fcd179","66620c6c80e7717867e40c8e","526","","j","","","","","","","","./tasks/HMM-beads/Images/NewTrialWC.png","practice","0","23","1","0","1","1","false","",""
"image-keyboard-response","83","260134","0.0-3.0-4.0-1.0-1.23","65dc39c407a42529d7d7199f","6662009ae78f21dd82fcd179","66620c6c80e7717867e40c8e","null","","null","","","","","","","","./tasks/HMM-beads/Images/WhiteBeadChoice.png","","","","","","","","","",""
"image-keyboard-response","84","260639","0.0-3.0-4.0-1.0-2.23","65dc39c407a42529d7d7199f","6662009ae78f21dd82fcd179","66620c6c80e7717867e40c8e","null","","null","","","","","","","","./tasks/HMM-beads/Images/WhiteBeadChoiceWrong.png","","","","","","","","","",""
"image-keyboard-response","85","260665","0.0-3.0-4.0-1.0-0.24","65dc39c407a42529d7d7199f","6662009ae78f21dd82fcd179","66620c6c80e7717867e40c8e","25","","f","","","","","","","","./tasks/HMM-beads/Images/NewTrialBC.png","practice","0","24","1","1","0","0","false","",""
"image-keyboard-response","86","260972","0.0-3.0-4.0-1.0-1.24","65dc39c407a42529d7d7199f","6662009ae78f21dd82fcd179","66620c6c80e7717867e40c8e","null","","null","","","","","","","","./tasks/HMM-beads/Images/BlackBeadChoice.png","","","","","","","","","",""
"image-keyboard-response","87","261474","0.0-3.0-4.0-1.0-2.24","65dc39c407a42529d7d7199f","6662009ae78f21dd82fcd179","66620c6c80e7717867e40c8e","null","","null","","","","","","","","./tasks/HMM-beads/Images/BlackBeadChoiceWrong.png","","","","","","","","","",""
"image-keyboard-response","88","261929","0.0-3.0-4.0-1.0-0.25","65dc39c407a42529d7d7199f","6662009ae78f21dd82fcd179","66620c6c80e7717867e40c8e","454","","j","","","","","","","","./tasks/HMM-beads/Images/NewTrialWC.png","practice","0","25","1","1","1","1","true","",""
"image-keyboard-response","89","262238","0.0-3.0-4.0-1.0-1.25","65dc39c407a42529d7d7199f","6662009ae78f21dd82fcd179","66620c6c80e7717867e40c8e","null","","null","","","","","","","","./tasks/HMM-beads/Images/WhiteBeadChoice.png","","","","","","","","","",""
"image-keyboard-response","90","262742","0.0-3.0-4.0-1.0-2.25","65dc39c407a42529d7d7199f","6662009ae78f21dd82fcd179","66620c6c80e7717867e40c8e","null","","null","","","","","","","","./tasks/HMM-beads/Images/WhiteBeadChoiceCorrect.png","","","","","","","","","",""
"image-keyboard-response","91","262762","0.0-3.0-4.0-1.0-0.26","65dc39c407a42529d7d7199f","6662009ae78f21dd82fcd179","66620c6c80e7717867e40c8e","18","","j","","","","","","","","./tasks/HMM-beads/Images/NewTrialWC.png","practice","0","26","1","1","1","1","true","",""
"image-keyboard-response","92","263073","0.0-3.0-4.0-1.0-1.26","65dc39c407a42529d7d7199f","6662009ae78f21dd82fcd179","66620c6c80e7717867e40c8e","null","","null","","","","","","","","./tasks/HMM-beads/Images/WhiteBeadChoice.png","","","","","","","","","",""
"image-keyboard-response","93","263576","0.0-3.0-4.0-1.0-2.26","65dc39c407a42529d7d7199f","6662009ae78f21dd82fcd179","66620c6c80e7717867e40c8e","null","","null","","","","","","","","./tasks/HMM-beads/Images/WhiteBeadChoiceCorrect.png","","","","","","","","","",""
"image-keyboard-response","94","263897","0.0-3.0-4.0-1.0-0.27","65dc39c407a42529d7d7199f","6662009ae78f21dd82fcd179","66620c6c80e7717867e40c8e","320","","j","","","","","","","","./tasks/HMM-beads/Images/NewTrialWC.png","practice","0","27","1","1","1","1","true","",""
"image-keyboard-response","95","264206","0.0-3.0-4.0-1.0-1.27","65dc39c407a42529d7d7199f","6662009ae78f21dd82fcd179","66620c6c80e7717867e40c8e","null","","null","","","","","","","","./tasks/HMM-beads/Images/WhiteBeadChoice.png","","","","","","","","","",""
"image-keyboard-response","96","264712","0.0-3.0-4.0-1.0-2.27","65dc39c407a42529d7d7199f","6662009ae78f21dd82fcd179","66620c6c80e7717867e40c8e","null","","null","","","","","","","","./tasks/HMM-beads/Images/WhiteBeadChoiceCorrect.png","","","","","","","","","",""
"image-keyboard-response","97","265065","0.0-3.0-4.0-1.0-0.28","65dc39c407a42529d7d7199f","6662009ae78f21dd82fcd179","66620c6c80e7717867e40c8e","352","","j","","","","","","","","./tasks/HMM-beads/Images/NewTrialWC.png","practice","0","28","1","0","1","1","false","",""
"image-keyboard-response","98","265376","0.0-3.0-4.0-1.0-1.28","65dc39c407a42529d7d7199f","6662009ae78f21dd82fcd179","66620c6c80e7717867e40c8e","null","","null","","","","","","","","./tasks/HMM-beads/Images/WhiteBeadChoice.png","","","","","","","","","",""
"image-keyboard-response","99","265879","0.0-3.0-4.0-1.0-2.28","65dc39c407a42529d7d7199f","6662009ae78f21dd82fcd179","66620c6c80e7717867e40c8e","null","","null","","","","","","","","./tasks/HMM-beads/Images/WhiteBeadChoiceWrong.png","","","","","","","","","",""
"image-keyboard-response","100","266569","0.0-3.0-4.0-1.0-0.29","65dc39c407a42529d7d7199f","6662009ae78f21dd82fcd179","66620c6c80e7717867e40c8e","690","","f","","","","","","","","./tasks/HMM-beads/Images/NewTrialBC.png","practice","0","29","1","1","0","0","false","",""
"image-keyboard-response","101","266875","0.0-3.0-4.0-1.0-1.29","65dc39c407a42529d7d7199f","6662009ae78f21dd82fcd179","66620c6c80e7717867e40c8e","null","","null","","","","","","","","./tasks/HMM-beads/Images/BlackBeadChoice.png","","","","","","","","","",""
"image-keyboard-response","102","267381","0.0-3.0-4.0-1.0-2.29","65dc39c407a42529d7d7199f","6662009ae78f21dd82fcd179","66620c6c80e7717867e40c8e","null","","null","","","","","","","","./tasks/HMM-beads/Images/BlackBeadChoiceWrong.png","","","","","","","","","",""
"image-keyboard-response","103","267641","0.0-3.0-4.0-1.0-0.30","65dc39c407a42529d7d7199f","6662009ae78f21dd82fcd179","66620c6c80e7717867e40c8e","256","","j","","","","","","","","./tasks/HMM-beads/Images/NewTrialWC.png","practice","0","30","1","0","1","1","false","",""
"image-keyboard-response","104","267943","0.0-3.0-4.0-1.0-1.30","65dc39c407a42529d7d7199f","6662009ae78f21dd82fcd179","66620c6c80e7717867e40c8e","null","","null","","","","","","","","./tasks/HMM-beads/Images/WhiteBeadChoice.png","","","","","","","","","",""
"image-keyboard-response","105","268448","0.0-3.0-4.0-1.0-2.30","65dc39c407a42529d7d7199f","6662009ae78f21dd82fcd179","66620c6c80e7717867e40c8e","null","","null","","","","","","","","./tasks/HMM-beads/Images/WhiteBeadChoiceWrong.png","","","","","","","","","",""
"image-keyboard-response","106","268489","0.0-3.0-4.0-1.0-0.31","65dc39c407a42529d7d7199f","6662009ae78f21dd82fcd179","66620c6c80e7717867e40c8e","40","","f","","","","","","","","./tasks/HMM-beads/Images/NewTrialBC.png","practice","0","31","1","1","0","0","false","",""
"image-keyboard-response","107","268794","0.0-3.0-4.0-1.0-1.31","65dc39c407a42529d7d7199f","6662009ae78f21dd82fcd179","66620c6c80e7717867e40c8e","null","","null","","","","","","","","./tasks/HMM-beads/Images/BlackBeadChoice.png","","","","","","","","","",""
"image-keyboard-response","108","269302","0.0-3.0-4.0-1.0-2.31","65dc39c407a42529d7d7199f","6662009ae78f21dd82fcd179","66620c6c80e7717867e40c8e","null","","null","","","","","","","","./tasks/HMM-beads/Images/BlackBeadChoiceWrong.png","","","","","","","","","",""
"image-keyboard-response","109","269657","0.0-3.0-4.0-1.0-0.32","65dc39c407a42529d7d7199f","6662009ae78f21dd82fcd179","66620c6c80e7717867e40c8e","355","","j","","","","","","","","./tasks/HMM-beads/Images/NewTrialWC.png","practice","0","32","1","1","1","1","true","",""
"image-keyboard-response","110","269964","0.0-3.0-4.0-1.0-1.32","65dc39c407a42529d7d7199f","6662009ae78f21dd82fcd179","66620c6c80e7717867e40c8e","null","","null","","","","","","","","./tasks/HMM-beads/Images/WhiteBeadChoice.png","","","","","","","","","",""
"image-keyboard-response","111","270466","0.0-3.0-4.0-1.0-2.32","65dc39c407a42529d7d7199f","6662009ae78f21dd82fcd179","66620c6c80e7717867e40c8e","null","","null","","","","","","","","./tasks/HMM-beads/Images/WhiteBeadChoiceCorrect.png","","","","","","","","","",""
"image-keyboard-response","112","270713","0.0-3.0-4.0-1.0-0.33","65dc39c407a42529d7d7199f","6662009ae78f21dd82fcd179","66620c6c80e7717867e40c8e","246","","j","","","","","","","","./tasks/HMM-beads/Images/NewTrialWC.png","practice","0","33","1","1","1","1","true","",""
"image-keyboard-response","113","271017","0.0-3.0-4.0-1.0-1.33","65dc39c407a42529d7d7199f","6662009ae78f21dd82fcd179","66620c6c80e7717867e40c8e","null","","null","","","","","","","","./tasks/HMM-beads/Images/WhiteBeadChoice.png","","","","","","","","","",""
"image-keyboard-response","114","271533","0.0-3.0-4.0-1.0-2.33","65dc39c407a42529d7d7199f","6662009ae78f21dd82fcd179","66620c6c80e7717867e40c8e","null","","null","","","","","","","","./tasks/HMM-beads/Images/WhiteBeadChoiceCorrect.png","","","","","","","","","",""
"image-keyboard-response","115","271593","0.0-3.0-4.0-1.0-0.34","65dc39c407a42529d7d7199f","6662009ae78f21dd82fcd179","66620c6c80e7717867e40c8e","60","","j","","","","","","","","./tasks/HMM-beads/Images/NewTrialWC.png","practice","0","34","1","1","1","1","true","",""
"image-keyboard-response","116","271899","0.0-3.0-4.0-1.0-1.34","65dc39c407a42529d7d7199f","6662009ae78f21dd82fcd179","66620c6c80e7717867e40c8e","null","","null","","","","","","","","./tasks/HMM-beads/Images/WhiteBeadChoice.png","","","","","","","","","",""
"image-keyboard-response","117","272402","0.0-3.0-4.0-1.0-2.34","65dc39c407a42529d7d7199f","6662009ae78f21dd82fcd179","66620c6c80e7717867e40c8e","null","","null","","","","","","","","./tasks/HMM-beads/Images/WhiteBeadChoiceCorrect.png","","","","","","","","","",""
"image-keyboard-response","118","272873","0.0-3.0-4.0-1.0-0.35","65dc39c407a42529d7d7199f","6662009ae78f21dd82fcd179","66620c6c80e7717867e40c8e","470","","j","","","","","","","","./tasks/HMM-beads/Images/NewTrialWC.png","practice","0","35","1","1","1","1","true","",""
"image-keyboard-response","119","273182","0.0-3.0-4.0-1.0-1.35","65dc39c407a42529d7d7199f","6662009ae78f21dd82fcd179","66620c6c80e7717867e40c8e","null","","null","","","","","","","","./tasks/HMM-beads/Images/WhiteBeadChoice.png","","","","","","","","","",""
"image-keyboard-response","120","273689","0.0-3.0-4.0-1.0-2.35","65dc39c407a42529d7d7199f","6662009ae78f21dd82fcd179","66620c6c80e7717867e40c8e","null","","null","","","","","","","","./tasks/HMM-beads/Images/WhiteBeadChoiceCorrect.png","","","","","","","","","",""
"image-keyboard-response","121","274089","0.0-3.0-4.0-1.0-0.36","65dc39c407a42529d7d7199f","6662009ae78f21dd82fcd179","66620c6c80e7717867e40c8e","399","","j","","","","","","","","./tasks/HMM-beads/Images/NewTrialWC.png","practice","0","36","1","0","1","1","false","",""
"image-keyboard-response","122","274400","0.0-3.0-4.0-1.0-1.36","65dc39c407a42529d7d7199f","6662009ae78f21dd82fcd179","66620c6c80e7717867e40c8e","null","","null","","","","","","","","./tasks/HMM-beads/Images/WhiteBeadChoice.png","","","","","","","","","",""
"image-keyboard-response","123","274904","0.0-3.0-4.0-1.0-2.36","65dc39c407a42529d7d7199f","6662009ae78f21dd82fcd179","66620c6c80e7717867e40c8e","null","","null","","","","","","","","./tasks/HMM-beads/Images/WhiteBeadChoiceWrong.png","","","","","","","","","",""
"image-keyboard-response","124","275289","0.0-3.0-4.0-1.0-0.37","65dc39c407a42529d7d7199f","6662009ae78f21dd82fcd179","66620c6c80e7717867e40c8e","384","","f","","","","","","","","./tasks/HMM-beads/Images/NewTrialBC.png","practice","0","37","1","1","0","0","false","",""
"image-keyboard-response","125","275601","0.0-3.0-4.0-1.0-1.37","65dc39c407a42529d7d7199f","6662009ae78f21dd82fcd179","66620c6c80e7717867e40c8e","null","","null","","","","","","","","./tasks/HMM-beads/Images/BlackBeadChoice.png","","","","","","","","","",""
"image-keyboard-response","126","276107","0.0-3.0-4.0-1.0-2.37","65dc39c407a42529d7d7199f","6662009ae78f21dd82fcd179","66620c6c80e7717867e40c8e","null","","null","","","","","","","","./tasks/HMM-beads/Images/BlackBeadChoiceWrong.png","","","","","","","","","",""
"image-keyboard-response","127","276265","0.0-3.0-4.0-1.0-0.38","65dc39c407a42529d7d7199f","6662009ae78f21dd82fcd179","66620c6c80e7717867e40c8e","157","","j","","","","","","","","./tasks/HMM-beads/Images/NewTrialWC.png","practice","0","38","1","1","1","1","true","",""
"image-keyboard-response","128","276568","0.0-3.0-4.0-1.0-1.38","65dc39c407a42529d7d7199f","6662009ae78f21dd82fcd179","66620c6c80e7717867e40c8e","null","","null","","","","","","","","./tasks/HMM-beads/Images/WhiteBeadChoice.png","","","","","","","","","",""
"image-keyboard-response","129","277073","0.0-3.0-4.0-1.0-2.38","65dc39c407a42529d7d7199f","6662009ae78f21dd82fcd179","66620c6c80e7717867e40c8e","null","","null","","","","","","","","./tasks/HMM-beads/Images/WhiteBeadChoiceCorrect.png","","","","","","","","","",""
"image-keyboard-response","130","277305","0.0-3.0-4.0-1.0-0.39","65dc39c407a42529d7d7199f","6662009ae78f21dd82fcd179","66620c6c80e7717867e40c8e","231","","j","","","","","","","","./tasks/HMM-beads/Images/NewTrialWC.png","practice","0","39","1","1","1","1","true","",""
"image-keyboard-response","131","277620","0.0-3.0-4.0-1.0-1.39","65dc39c407a42529d7d7199f","6662009ae78f21dd82fcd179","66620c6c80e7717867e40c8e","null","","null","","","","","","","","./tasks/HMM-beads/Images/WhiteBeadChoice.png","","","","","","","","","",""
"image-keyboard-response","132","278126","0.0-3.0-4.0-1.0-2.39","65dc39c407a42529d7d7199f","6662009ae78f21dd82fcd179","66620c6c80e7717867e40c8e","null","","null","","","","","","","","./tasks/HMM-beads/Images/WhiteBeadChoiceCorrect.png","","","","","","","","","",""
"html-keyboard-response","133","281929","0.0-3.0-4.0-2.0","65dc39c407a42529d7d7199f","6662009ae78f21dd82fcd179","66620c6c80e7717867e40c8e","3802",""," ","","","","","","","","","","","","","","","","","",""
"instructions","134","290339","0.0-3.0-5.0","65dc39c407a42529d7d7199f","6662009ae78f21dd82fcd179","66620c6c80e7717867e40c8e","8409","","","","[{""page_index"":0,""viewing_time"":7645},{""page_index"":1,""viewing_time"":764}]","","","","","","","","","","","","","","","",""
"html-keyboard-response","135","292489","0.0-3.0-6.0-0.0","65dc39c407a42529d7d7199f","6662009ae78f21dd82fcd179","66620c6c80e7717867e40c8e","2149",""," ","","","","","","","","<div align=center>In this block, there will be a <b>1% chance</b> that the jar on the next trial will be different from the jar on the current trial.<br><br></div>","","","","","","","","","",""
"image-keyboard-response","136","294409","0.0-3.0-6.0-1.0-0.0","65dc39c407a42529d7d7199f","6662009ae78f21dd82fcd179","66620c6c80e7717867e40c8e","1919","","f","","","","","","","","./tasks/HMM-beads/Images/NoChoice.png","lowH","1","0","1","0","9","0","true","",""
"image-keyboard-response","137","294720","0.0-3.0-6.0-1.0-1.0","65dc39c407a42529d7d7199f","6662009ae78f21dd82fcd179","66620c6c80e7717867e40c8e","null","","null","","","","","","","","./tasks/HMM-beads/Images/BlackBeadChoice.png","","","","","","","","","",""
"image-keyboard-response","138","295222","0.0-3.0-6.0-1.0-2.0","65dc39c407a42529d7d7199f","6662009ae78f21dd82fcd179","66620c6c80e7717867e40c8e","null","","null","","","","","","","","./tasks/HMM-beads/Images/BlackBeadChoiceCorrect.png","","","","","","","","","",""
"image-keyboard-response","139","295769","0.0-3.0-6.0-1.0-0.1","65dc39c407a42529d7d7199f","6662009ae78f21dd82fcd179","66620c6c80e7717867e40c8e","546","","f","","","","","","","","./tasks/HMM-beads/Images/NewTrialBC.png","lowH","1","1","1","1","0","0","false","",""
"image-keyboard-response","140","296071","0.0-3.0-6.0-1.0-1.1","65dc39c407a42529d7d7199f","6662009ae78f21dd82fcd179","66620c6c80e7717867e40c8e","null","","null","","","","","","","","./tasks/HMM-beads/Images/BlackBeadChoice.png","","","","","","","","","",""
"image-keyboard-response","141","296579","0.0-3.0-6.0-1.0-2.1","65dc39c407a42529d7d7199f","6662009ae78f21dd82fcd179","66620c6c80e7717867e40c8e","null","","null","","","","","","","","./tasks/HMM-beads/Images/BlackBeadChoiceWrong.png","","","","","","","","","",""
"image-keyboard-response","142","297817","0.0-3.0-6.0-1.0-0.2","65dc39c407a42529d7d7199f","6662009ae78f21dd82fcd179","66620c6c80e7717867e40c8e","1238","","j","","","","","","","","./tasks/HMM-beads/Images/NewTrialWC.png","lowH","1","2","1","1","1","1","true","",""
"image-keyboard-response","143","298123","0.0-3.0-6.0-1.0-1.2","65dc39c407a42529d7d7199f","6662009ae78f21dd82fcd179","66620c6c80e7717867e40c8e","null","","null","","","","","","","","./tasks/HMM-beads/Images/WhiteBeadChoice.png","","","","","","","","","",""
"image-keyboard-response","144","298631","0.0-3.0-6.0-1.0-2.2","65dc39c407a42529d7d7199f","6662009ae78f21dd82fcd179","66620c6c80e7717867e40c8e","null","","null","","","","","","","","./tasks/HMM-beads/Images/WhiteBeadChoiceCorrect.png","","","","","","","","","",""
"image-keyboard-response","145","299001","0.0-3.0-6.0-1.0-0.3","65dc39c407a42529d7d7199f","6662009ae78f21dd82fcd179","66620c6c80e7717867e40c8e","367","","j","","","","","","","","./tasks/HMM-beads/Images/NewTrialWC.png","lowH","1","3","1","1","1","1","true","",""
"image-keyboard-response","146","299308","0.0-3.0-6.0-1.0-1.3","65dc39c407a42529d7d7199f","6662009ae78f21dd82fcd179","66620c6c80e7717867e40c8e","null","","null","","","","","","","","./tasks/HMM-beads/Images/WhiteBeadChoice.png","","","","","","","","","",""
"image-keyboard-response","147","299814","0.0-3.0-6.0-1.0-2.3","65dc39c407a42529d7d7199f","6662009ae78f21dd82fcd179","66620c6c80e7717867e40c8e","null","","null","","","","","","","","./tasks/HMM-beads/Images/WhiteBeadChoiceCorrect.png","","","","","","","","","",""
"image-keyboard-response","148","300121","0.0-3.0-6.0-1.0-0.4","65dc39c407a42529d7d7199f","6662009ae78f21dd82fcd179","66620c6c80e7717867e40c8e","306","","j","","","","","","","","./tasks/HMM-beads/Images/NewTrialWC.png","lowH","1","4","1","1","1","1","true","",""
"image-keyboard-response","149","300426","0.0-3.0-6.0-1.0-1.4","65dc39c407a42529d7d7199f","6662009ae78f21dd82fcd179","66620c6c80e7717867e40c8e","null","","null","","","","","","","","./tasks/HMM-beads/Images/WhiteBeadChoice.png","","","","","","","","","",""
"image-keyboard-response","150","300932","0.0-3.0-6.0-1.0-2.4","65dc39c407a42529d7d7199f","6662009ae78f21dd82fcd179","66620c6c80e7717867e40c8e","null","","null","","","","","","","","./tasks/HMM-beads/Images/WhiteBeadChoiceCorrect.png","","","","","","","","","",""
"image-keyboard-response","151","301225","0.0-3.0-6.0-1.0-0.5","65dc39c407a42529d7d7199f","6662009ae78f21dd82fcd179","66620c6c80e7717867e40c8e","292","","j","","","","","","","","./tasks/HMM-beads/Images/NewTrialWC.png","lowH","1","5","1","1","1","1","true","",""
"image-keyboard-response","152","301527","0.0-3.0-6.0-1.0-1.5","65dc39c407a42529d7d7199f","6662009ae78f21dd82fcd179","66620c6c80e7717867e40c8e","null","","null","","","","","","","","./tasks/HMM-beads/Images/WhiteBeadChoice.png","","","","","","","","","",""
"image-keyboard-response","153","302033","0.0-3.0-6.0-1.0-2.5","65dc39c407a42529d7d7199f","6662009ae78f21dd82fcd179","66620c6c80e7717867e40c8e","null","","null","","","","","","","","./tasks/HMM-beads/Images/WhiteBeadChoiceCorrect.png","","","","","","","","","",""
"image-keyboard-response","154","302713","0.0-3.0-6.0-1.0-0.6","65dc39c407a42529d7d7199f","6662009ae78f21dd82fcd179","66620c6c80e7717867e40c8e","679","","j","","","","","","","","./tasks/HMM-beads/Images/NewTrialWC.png","lowH","1","6","1","0","1","1","false","",""
"image-keyboard-response","155","303028","0.0-3.0-6.0-1.0-1.6","65dc39c407a42529d7d7199f","6662009ae78f21dd82fcd179","66620c6c80e7717867e40c8e","null","","null","","","","","","","","./tasks/HMM-beads/Images/WhiteBeadChoice.png","","","","","","","","","",""
"image-keyboard-response","156","303532","0.0-3.0-6.0-1.0-2.6","65dc39c407a42529d7d7199f","6662009ae78f21dd82fcd179","66620c6c80e7717867e40c8e","null","","null","","","","","","","","./tasks/HMM-beads/Images/WhiteBeadChoiceWrong.png","","","","","","","","","",""
"image-keyboard-response","157","304073","0.0-3.0-6.0-1.0-0.7","65dc39c407a42529d7d7199f","6662009ae78f21dd82fcd179","66620c6c80e7717867e40c8e","540","","f","","","","","","","","./tasks/HMM-beads/Images/NewTrialBC.png","lowH","1","7","1","1","0","0","false","",""
"image-keyboard-response","158","304380","0.0-3.0-6.0-1.0-1.7","65dc39c407a42529d7d7199f","6662009ae78f21dd82fcd179","66620c6c80e7717867e40c8e","null","","null","","","","","","","","./tasks/HMM-beads/Images/BlackBeadChoice.png","","","","","","","","","",""
"image-keyboard-response","159","304887","0.0-3.0-6.0-1.0-2.7","65dc39c407a42529d7d7199f","6662009ae78f21dd82fcd179","66620c6c80e7717867e40c8e","null","","null","","","","","","","","./tasks/HMM-beads/Images/BlackBeadChoiceWrong.png","","","","","","","","","",""
"image-keyboard-response","160","305017","0.0-3.0-6.0-1.0-0.8","65dc39c407a42529d7d7199f","6662009ae78f21dd82fcd179","66620c6c80e7717867e40c8e","130","","j","","","","","","","","./tasks/HMM-beads/Images/NewTrialWC.png","lowH","1","8","1","1","1","1","true","",""
"image-keyboard-response","161","305331","0.0-3.0-6.0-1.0-1.8","65dc39c407a42529d7d7199f","6662009ae78f21dd82fcd179","66620c6c80e7717867e40c8e","null","","null","","","","","","","","./tasks/HMM-beads/Images/WhiteBeadChoice.png","","","","","","","","","",""
"image-keyboard-response","162","305836","0.0-3.0-6.0-1.0-2.8","65dc39c407a42529d7d7199f","6662009ae78f21dd82fcd179","66620c6c80e7717867e40c8e","null","","null","","","","","","","","./tasks/HMM-beads/Images/WhiteBeadChoiceCorrect.png","","","","","","","","","",""
"image-keyboard-response","163","306969","0.0-3.0-6.0-1.0-0.9","65dc39c407a42529d7d7199f","6662009ae78f21dd82fcd179","66620c6c80e7717867e40c8e","1132","","j","","","","","","","","./tasks/HMM-beads/Images/NewTrialWC.png","lowH","1","9","1","1","1","1","true","",""
"image-keyboard-response","164","307282","0.0-3.0-6.0-1.0-1.9","65dc39c407a42529d7d7199f","6662009ae78f21dd82fcd179","66620c6c80e7717867e40c8e","null","","null","","","","","","","","./tasks/HMM-beads/Images/WhiteBeadChoice.png","","","","","","","","","",""
"image-keyboard-response","165","307788","0.0-3.0-6.0-1.0-2.9","65dc39c407a42529d7d7199f","6662009ae78f21dd82fcd179","66620c6c80e7717867e40c8e","null","","null","","","","","","","","./tasks/HMM-beads/Images/WhiteBeadChoiceCorrect.png","","","","","","","","","",""
"image-keyboard-response","166","308537","0.0-3.0-6.0-1.0-0.10","65dc39c407a42529d7d7199f","6662009ae78f21dd82fcd179","66620c6c80e7717867e40c8e","748","","j","","","","","","","","./tasks/HMM-beads/Images/NewTrialWC.png","lowH","1","10","1","1","1","1","true","",""
"image-keyboard-response","167","308851","0.0-3.0-6.0-1.0-1.10","65dc39c407a42529d7d7199f","6662009ae78f21dd82fcd179","66620c6c80e7717867e40c8e","null","","null","","","","","","","","./tasks/HMM-beads/Images/WhiteBeadChoice.png","","","","","","","","","",""
"image-keyboard-response","168","309358","0.0-3.0-6.0-1.0-2.10","65dc39c407a42529d7d7199f","6662009ae78f21dd82fcd179","66620c6c80e7717867e40c8e","null","","null","","","","","","","","./tasks/HMM-beads/Images/WhiteBeadChoiceCorrect.png","","","","","","","","","",""
"image-keyboard-response","169","309993","0.0-3.0-6.0-1.0-0.11","65dc39c407a42529d7d7199f","6662009ae78f21dd82fcd179","66620c6c80e7717867e40c8e","634","","j","","","","","","","","./tasks/HMM-beads/Images/NewTrialWC.png","lowH","1","11","1","1","1","1","true","",""
"image-keyboard-response","170","310302","0.0-3.0-6.0-1.0-1.11","65dc39c407a42529d7d7199f","6662009ae78f21dd82fcd179","66620c6c80e7717867e40c8e","null","","null","","","","","","","","./tasks/HMM-beads/Images/WhiteBeadChoice.png","","","","","","","","","",""
"image-keyboard-response","171","310809","0.0-3.0-6.0-1.0-2.11","65dc39c407a42529d7d7199f","6662009ae78f21dd82fcd179","66620c6c80e7717867e40c8e","null","","null","","","","","","","","./tasks/HMM-beads/Images/WhiteBeadChoiceCorrect.png","","","","","","","","","",""
"image-keyboard-response","172","311945","0.0-3.0-6.0-1.0-0.12","65dc39c407a42529d7d7199f","6662009ae78f21dd82fcd179","66620c6c80e7717867e40c8e","1135","","j","","","","","","","","./tasks/HMM-beads/Images/NewTrialWC.png","lowH","1","12","1","1","1","1","true","",""
"image-keyboard-response","173","312254","0.0-3.0-6.0-1.0-1.12","65dc39c407a42529d7d7199f","6662009ae78f21dd82fcd179","66620c6c80e7717867e40c8e","null","","null","","","","","","","","./tasks/HMM-beads/Images/WhiteBeadChoice.png","","","","","","","","","",""
"image-keyboard-response","174","312761","0.0-3.0-6.0-1.0-2.12","65dc39c407a42529d7d7199f","6662009ae78f21dd82fcd179","66620c6c80e7717867e40c8e","null","","null","","","","","","","","./tasks/HMM-beads/Images/WhiteBeadChoiceCorrect.png","","","","","","","","","",""
"image-keyboard-response","175","313097","0.0-3.0-6.0-1.0-0.13","65dc39c407a42529d7d7199f","6662009ae78f21dd82fcd179","66620c6c80e7717867e40c8e","335","","j","","","","","","","","./tasks/HMM-beads/Images/NewTrialWC.png","lowH","1","13","1","0","1","1","false","",""
"image-keyboard-response","176","313405","0.0-3.0-6.0-1.0-1.13","65dc39c407a42529d7d7199f","6662009ae78f21dd82fcd179","66620c6c80e7717867e40c8e","null","","null","","","","","","","","./tasks/HMM-beads/Images/WhiteBeadChoice.png","","","","","","","","","",""
"image-keyboard-response","177","313909","0.0-3.0-6.0-1.0-2.13","65dc39c407a42529d7d7199f","6662009ae78f21dd82fcd179","66620c6c80e7717867e40c8e","null","","null","","","","","","","","./tasks/HMM-beads/Images/WhiteBeadChoiceWrong.png","","","","","","","","","",""
"image-keyboard-response","178","314185","0.0-3.0-6.0-1.0-0.14","65dc39c407a42529d7d7199f","6662009ae78f21dd82fcd179","66620c6c80e7717867e40c8e","275","","f","","","","","","","","./tasks/HMM-beads/Images/NewTrialBC.png","lowH","1","14","1","0","0","0","true","",""
"image-keyboard-response","179","314490","0.0-3.0-6.0-1.0-1.14","65dc39c407a42529d7d7199f","6662009ae78f21dd82fcd179","66620c6c80e7717867e40c8e","null","","null","","","","","","","","./tasks/HMM-beads/Images/BlackBeadChoice.png","","","","","","","","","",""
"image-keyboard-response","180","314996","0.0-3.0-6.0-1.0-2.14","65dc39c407a42529d7d7199f","6662009ae78f21dd82fcd179","66620c6c80e7717867e40c8e","null","","null","","","","","","","","./tasks/HMM-beads/Images/BlackBeadChoiceCorrect.png","","","","","","","","","",""
"image-keyboard-response","181","315289","0.0-3.0-6.0-1.0-0.15","65dc39c407a42529d7d7199f","6662009ae78f21dd82fcd179","66620c6c80e7717867e40c8e","292","","f","","","","","","","","./tasks/HMM-beads/Images/NewTrialBC.png","lowH","1","15","1","1","0","0","false","",""
"image-keyboard-response","182","315591","0.0-3.0-6.0-1.0-1.15","65dc39c407a42529d7d7199f","6662009ae78f21dd82fcd179","66620c6c80e7717867e40c8e","null","","null","","","","","","","","./tasks/HMM-beads/Images/BlackBeadChoice.png","","","","","","","","","",""
"image-keyboard-response","183","316098","0.0-3.0-6.0-1.0-2.15","65dc39c407a42529d7d7199f","6662009ae78f21dd82fcd179","66620c6c80e7717867e40c8e","null","","null","","","","","","","","./tasks/HMM-beads/Images/BlackBeadChoiceWrong.png","","","","","","","","","",""
"image-keyboard-response","184","316345","0.0-3.0-6.0-1.0-0.16","65dc39c407a42529d7d7199f","6662009ae78f21dd82fcd179","66620c6c80e7717867e40c8e","244","","j","","","","","","","","./tasks/HMM-beads/Images/NewTrialWC.png","lowH","1","16","1","1","1","1","true","",""
"image-keyboard-response","185","316658","0.0-3.0-6.0-1.0-1.16","65dc39c407a42529d7d7199f","6662009ae78f21dd82fcd179","66620c6c80e7717867e40c8e","null","","null","","","","","","","","./tasks/HMM-beads/Images/WhiteBeadChoice.png","","","","","","","","","",""
"image-keyboard-response","186","317163","0.0-3.0-6.0-1.0-2.16","65dc39c407a42529d7d7199f","6662009ae78f21dd82fcd179","66620c6c80e7717867e40c8e","null","","null","","","","","","","","./tasks/HMM-beads/Images/WhiteBeadChoiceCorrect.png","","","","","","","","","",""
"image-keyboard-response","187","317481","0.0-3.0-6.0-1.0-0.17","65dc39c407a42529d7d7199f","6662009ae78f21dd82fcd179","66620c6c80e7717867e40c8e","317","","j","","","","","","","","./tasks/HMM-beads/Images/NewTrialWC.png","lowH","1","17","1","1","1","1","true","",""
"image-keyboard-response","188","317793","0.0-3.0-6.0-1.0-1.17","65dc39c407a42529d7d7199f","6662009ae78f21dd82fcd179","66620c6c80e7717867e40c8e","null","","null","","","","","","","","./tasks/HMM-beads/Images/WhiteBeadChoice.png","","","","","","","","","",""
"image-keyboard-response","189","318300","0.0-3.0-6.0-1.0-2.17","65dc39c407a42529d7d7199f","6662009ae78f21dd82fcd179","66620c6c80e7717867e40c8e","null","","null","","","","","","","","./tasks/HMM-beads/Images/WhiteBeadChoiceCorrect.png","","","","","","","","","",""
"image-keyboard-response","190","318585","0.0-3.0-6.0-1.0-0.18","65dc39c407a42529d7d7199f","6662009ae78f21dd82fcd179","66620c6c80e7717867e40c8e","284","","j","","","","","","","","./tasks/HMM-beads/Images/NewTrialWC.png","lowH","1","18","1","1","1","1","true","",""
"image-keyboard-response","191","318894","0.0-3.0-6.0-1.0-1.18","65dc39c407a42529d7d7199f","6662009ae78f21dd82fcd179","66620c6c80e7717867e40c8e","null","","null","","","","","","","","./tasks/HMM-beads/Images/WhiteBeadChoice.png","","","","","","","","","",""
"image-keyboard-response","192","319401","0.0-3.0-6.0-1.0-2.18","65dc39c407a42529d7d7199f","6662009ae78f21dd82fcd179","66620c6c80e7717867e40c8e","null","","null","","","","","","","","./tasks/HMM-beads/Images/WhiteBeadChoiceCorrect.png","","","","","","","","","",""
"image-keyboard-response","193","319689","0.0-3.0-6.0-1.0-0.19","65dc39c407a42529d7d7199f","6662009ae78f21dd82fcd179","66620c6c80e7717867e40c8e","287","","j","","","","","","","","./tasks/HMM-beads/Images/NewTrialWC.png","lowH","1","19","1","1","1","1","true","",""
"image-keyboard-response","194","319995","0.0-3.0-6.0-1.0-1.19","65dc39c407a42529d7d7199f","6662009ae78f21dd82fcd179","66620c6c80e7717867e40c8e","null","","null","","","","","","","","./tasks/HMM-beads/Images/WhiteBeadChoice.png","","","","","","","","","",""
"image-keyboard-response","195","320501","0.0-3.0-6.0-1.0-2.19","65dc39c407a42529d7d7199f","6662009ae78f21dd82fcd179","66620c6c80e7717867e40c8e","null","","null","","","","","","","","./tasks/HMM-beads/Images/WhiteBeadChoiceCorrect.png","","","","","","","","","",""
"image-keyboard-response","196","320825","0.0-3.0-6.0-1.0-0.20","65dc39c407a42529d7d7199f","6662009ae78f21dd82fcd179","66620c6c80e7717867e40c8e","323","","j","","","","","","","","./tasks/HMM-beads/Images/NewTrialWC.png","lowH","1","20","1","1","1","1","true","",""
"image-keyboard-response","197","321130","0.0-3.0-6.0-1.0-1.20","65dc39c407a42529d7d7199f","6662009ae78f21dd82fcd179","66620c6c80e7717867e40c8e","null","","null","","","","","","","","./tasks/HMM-beads/Images/WhiteBeadChoice.png","","","","","","","","","",""
"image-keyboard-response","198","321634","0.0-3.0-6.0-1.0-2.20","65dc39c407a42529d7d7199f","6662009ae78f21dd82fcd179","66620c6c80e7717867e40c8e","null","","null","","","","","","","","./tasks/HMM-beads/Images/WhiteBeadChoiceCorrect.png","","","","","","","","","",""
"image-keyboard-response","199","324121","0.0-3.0-6.0-1.0-0.21","65dc39c407a42529d7d7199f","6662009ae78f21dd82fcd179","66620c6c80e7717867e40c8e","2486","","j","","","","","","","","./tasks/HMM-beads/Images/NewTrialWC.png","lowH","1","21","1","1","1","1","true","",""
"image-keyboard-response","200","324433","0.0-3.0-6.0-1.0-1.21","65dc39c407a42529d7d7199f","6662009ae78f21dd82fcd179","66620c6c80e7717867e40c8e","null","","null","","","","","","","","./tasks/HMM-beads/Images/WhiteBeadChoice.png","","","","","","","","","",""
"image-keyboard-response","201","324938","0.0-3.0-6.0-1.0-2.21","65dc39c407a42529d7d7199f","6662009ae78f21dd82fcd179","66620c6c80e7717867e40c8e","null","","null","","","","","","","","./tasks/HMM-beads/Images/WhiteBeadChoiceCorrect.png","","","","","","","","","",""
"image-keyboard-response","202","325641","0.0-3.0-6.0-1.0-0.22","65dc39c407a42529d7d7199f","6662009ae78f21dd82fcd179","66620c6c80e7717867e40c8e","702","","j","","","","","","","","./tasks/HMM-beads/Images/NewTrialWC.png","lowH","1","22","1","1","1","1","true","",""
"image-keyboard-response","203","325951","0.0-3.0-6.0-1.0-1.22","65dc39c407a42529d7d7199f","6662009ae78f21dd82fcd179","66620c6c80e7717867e40c8e","null","","null","","","","","","","","./tasks/HMM-beads/Images/WhiteBeadChoice.png","","","","","","","","","",""
"image-keyboard-response","204","326458","0.0-3.0-6.0-1.0-2.22","65dc39c407a42529d7d7199f","6662009ae78f21dd82fcd179","66620c6c80e7717867e40c8e","null","","null","","","","","","","","./tasks/HMM-beads/Images/WhiteBeadChoiceCorrect.png","","","","","","","","","",""
"image-keyboard-response","205","328585","0.0-3.0-6.0-1.0-0.23","65dc39c407a42529d7d7199f","6662009ae78f21dd82fcd179","66620c6c80e7717867e40c8e","2126","","j","","","","","","","","./tasks/HMM-beads/Images/NewTrialWC.png","lowH","1","23","1","1","1","1","true","",""
"image-keyboard-response","206","328890","0.0-3.0-6.0-1.0-1.23","65dc39c407a42529d7d7199f","6662009ae78f21dd82fcd179","66620c6c80e7717867e40c8e","null","","null","","","","","","","","./tasks/HMM-beads/Images/WhiteBeadChoice.png","","","","","","","","","",""
"image-keyboard-response","207","329392","0.0-3.0-6.0-1.0-2.23","65dc39c407a42529d7d7199f","6662009ae78f21dd82fcd179","66620c6c80e7717867e40c8e","null","","null","","","","","","","","./tasks/HMM-beads/Images/WhiteBeadChoiceCorrect.png","","","","","","","","","",""
"image-keyboard-response","208","332937","0.0-3.0-6.0-1.0-0.24","65dc39c407a42529d7d7199f","6662009ae78f21dd82fcd179","66620c6c80e7717867e40c8e","3544","","j","","","","","","","","./tasks/HMM-beads/Images/NewTrialWC.png","lowH","1","24","1","0","1","1","false","",""
"image-keyboard-response","209","333242","0.0-3.0-6.0-1.0-1.24","65dc39c407a42529d7d7199f","6662009ae78f21dd82fcd179","66620c6c80e7717867e40c8e","null","","null","","","","","","","","./tasks/HMM-beads/Images/WhiteBeadChoice.png","","","","","","","","","",""
"image-keyboard-response","210","333749","0.0-3.0-6.0-1.0-2.24","65dc39c407a42529d7d7199f","6662009ae78f21dd82fcd179","66620c6c80e7717867e40c8e","null","","null","","","","","","","","./tasks/HMM-beads/Images/WhiteBeadChoiceWrong.png","","","","","","","","","",""
"image-keyboard-response","211","333897","0.0-3.0-6.0-1.0-0.25","65dc39c407a42529d7d7199f","6662009ae78f21dd82fcd179","66620c6c80e7717867e40c8e","147","","f","","","","","","","","./tasks/HMM-beads/Images/NewTrialBC.png","lowH","1","25","1","1","0","0","false","",""
"image-keyboard-response","212","334209","0.0-3.0-6.0-1.0-1.25","65dc39c407a42529d7d7199f","6662009ae78f21dd82fcd179","66620c6c80e7717867e40c8e","null","","null","","","","","","","","./tasks/HMM-beads/Images/BlackBeadChoice.png","","","","","","","","","",""
"image-keyboard-response","213","334713","0.0-3.0-6.0-1.0-2.25","65dc39c407a42529d7d7199f","6662009ae78f21dd82fcd179","66620c6c80e7717867e40c8e","null","","null","","","","","","","","./tasks/HMM-beads/Images/BlackBeadChoiceWrong.png","","","","","","","","","",""
"image-keyboard-response","214","335129","0.0-3.0-6.0-1.0-0.26","65dc39c407a42529d7d7199f","6662009ae78f21dd82fcd179","66620c6c80e7717867e40c8e","415","","j","","","","","","","","./tasks/HMM-beads/Images/NewTrialWC.png","lowH","1","26","1","0","1","1","false","",""
"image-keyboard-response","215","335443","0.0-3.0-6.0-1.0-1.26","65dc39c407a42529d7d7199f","6662009ae78f21dd82fcd179","66620c6c80e7717867e40c8e","null","","null","","","","","","","","./tasks/HMM-beads/Images/WhiteBeadChoice.png","","","","","","","","","",""
"image-keyboard-response","216","335949","0.0-3.0-6.0-1.0-2.26","65dc39c407a42529d7d7199f","6662009ae78f21dd82fcd179","66620c6c80e7717867e40c8e","null","","null","","","","","","","","./tasks/HMM-beads/Images/WhiteBeadChoiceWrong.png","","","","","","","","","",""
"image-keyboard-response","217","343865","0.0-3.0-6.0-1.0-0.27","65dc39c407a42529d7d7199f","6662009ae78f21dd82fcd179","66620c6c80e7717867e40c8e","7915","","f","","","","","","","","./tasks/HMM-beads/Images/NewTrialBC.png","lowH","1","27","1","1","0","0","false","",""
"image-keyboard-response","218","344169","0.0-3.0-6.0-1.0-1.27","65dc39c407a42529d7d7199f","6662009ae78f21dd82fcd179","66620c6c80e7717867e40c8e","null","","null","","","","","","","","./tasks/HMM-beads/Images/BlackBeadChoice.png","","","","","","","","","",""
"image-keyboard-response","219","344675","0.0-3.0-6.0-1.0-2.27","65dc39c407a42529d7d7199f","6662009ae78f21dd82fcd179","66620c6c80e7717867e40c8e","null","","null","","","","","","","","./tasks/HMM-beads/Images/BlackBeadChoiceWrong.png","","","","","","","","","",""
"image-keyboard-response","220","349417","0.0-3.0-6.0-1.0-0.28","65dc39c407a42529d7d7199f","6662009ae78f21dd82fcd179","66620c6c80e7717867e40c8e","4741","","j","","","","","","","","./tasks/HMM-beads/Images/NewTrialWC.png","lowH","1","28","1","1","1","1","true","",""
"image-keyboard-response","221","349725","0.0-3.0-6.0-1.0-1.28","65dc39c407a42529d7d7199f","6662009ae78f21dd82fcd179","66620c6c80e7717867e40c8e","null","","null","","","","","","","","./tasks/HMM-beads/Images/WhiteBeadChoice.png","","","","","","","","","",""
"image-keyboard-response","222","350231","0.0-3.0-6.0-1.0-2.28","65dc39c407a42529d7d7199f","6662009ae78f21dd82fcd179","66620c6c80e7717867e40c8e","null","","null","","","","","","","","./tasks/HMM-beads/Images/WhiteBeadChoiceCorrect.png","","","","","","","","","",""
"image-keyboard-response","223","350680","0.0-3.0-6.0-1.0-0.29","65dc39c407a42529d7d7199f","6662009ae78f21dd82fcd179","66620c6c80e7717867e40c8e","446","","j","","","","","","","","./tasks/HMM-beads/Images/NewTrialWC.png","lowH","1","29","1","1","1","1","true","",""
"image-keyboard-response","224","350993","0.0-3.0-6.0-1.0-1.29","65dc39c407a42529d7d7199f","6662009ae78f21dd82fcd179","66620c6c80e7717867e40c8e","null","","null","","","","","","","","./tasks/HMM-beads/Images/WhiteBeadChoice.png","","","","","","","","","",""
"image-keyboard-response","225","351499","0.0-3.0-6.0-1.0-2.29","65dc39c407a42529d7d7199f","6662009ae78f21dd82fcd179","66620c6c80e7717867e40c8e","null","","null","","","","","","","","./tasks/HMM-beads/Images/WhiteBeadChoiceCorrect.png","","","","","","","","","",""
"image-keyboard-response","226","352280","0.0-3.0-6.0-1.0-0.30","65dc39c407a42529d7d7199f","6662009ae78f21dd82fcd179","66620c6c80e7717867e40c8e","781","","j","","","","","","","","./tasks/HMM-beads/Images/NewTrialWC.png","lowH","1","30","1","1","1","1","true","",""
"image-keyboard-response","227","352596","0.0-3.0-6.0-1.0-1.30","65dc39c407a42529d7d7199f","6662009ae78f21dd82fcd179","66620c6c80e7717867e40c8e","null","","null","","","","","","","","./tasks/HMM-beads/Images/WhiteBeadChoice.png","","","","","","","","","",""
"image-keyboard-response","228","353099","0.0-3.0-6.0-1.0-2.30","65dc39c407a42529d7d7199f","6662009ae78f21dd82fcd179","66620c6c80e7717867e40c8e","null","","null","","","","","","","","./tasks/HMM-beads/Images/WhiteBeadChoiceCorrect.png","","","","","","","","","",""
"image-keyboard-response","229","353625","0.0-3.0-6.0-1.0-0.31","65dc39c407a42529d7d7199f","6662009ae78f21dd82fcd179","66620c6c80e7717867e40c8e","524","","j","","","","","","","","./tasks/HMM-beads/Images/NewTrialWC.png","lowH","1","31","1","1","1","1","true","",""
"image-keyboard-response","230","353929","0.0-3.0-6.0-1.0-1.31","65dc39c407a42529d7d7199f","6662009ae78f21dd82fcd179","66620c6c80e7717867e40c8e","null","","null","","","","","","","","./tasks/HMM-beads/Images/WhiteBeadChoice.png","","","","","","","","","",""
"image-keyboard-response","231","354434","0.0-3.0-6.0-1.0-2.31","65dc39c407a42529d7d7199f","6662009ae78f21dd82fcd179","66620c6c80e7717867e40c8e","null","","null","","","","","","","","./tasks/HMM-beads/Images/WhiteBeadChoiceCorrect.png","","","","","","","","","",""
"image-keyboard-response","232","354840","0.0-3.0-6.0-1.0-0.32","65dc39c407a42529d7d7199f","6662009ae78f21dd82fcd179","66620c6c80e7717867e40c8e","406","","j","","","","","","","","./tasks/HMM-beads/Images/NewTrialWC.png","lowH","1","32","1","1","1","1","true","",""
"image-keyboard-response","233","355147","0.0-3.0-6.0-1.0-1.32","65dc39c407a42529d7d7199f","6662009ae78f21dd82fcd179","66620c6c80e7717867e40c8e","null","","null","","","","","","","","./tasks/HMM-beads/Images/WhiteBeadChoice.png","","","","","","","","","",""
"image-keyboard-response","234","355651","0.0-3.0-6.0-1.0-2.32","65dc39c407a42529d7d7199f","6662009ae78f21dd82fcd179","66620c6c80e7717867e40c8e","null","","null","","","","","","","","./tasks/HMM-beads/Images/WhiteBeadChoiceCorrect.png","","","","","","","","","",""
"image-keyboard-response","235","356040","0.0-3.0-6.0-1.0-0.33","65dc39c407a42529d7d7199f","6662009ae78f21dd82fcd179","66620c6c80e7717867e40c8e","388","","j","","","","","","","","./tasks/HMM-beads/Images/NewTrialWC.png","lowH","1","33","1","1","1","1","true","",""
"image-keyboard-response","236","356348","0.0-3.0-6.0-1.0-1.33","65dc39c407a42529d7d7199f","6662009ae78f21dd82fcd179","66620c6c80e7717867e40c8e","null","","null","","","","","","","","./tasks/HMM-beads/Images/WhiteBeadChoice.png","","","","","","","","","",""
"image-keyboard-response","237","356855","0.0-3.0-6.0-1.0-2.33","65dc39c407a42529d7d7199f","6662009ae78f21dd82fcd179","66620c6c80e7717867e40c8e","null","","null","","","","","","","","./tasks/HMM-beads/Images/WhiteBeadChoiceCorrect.png","","","","","","","","","",""
"image-keyboard-response","238","357273","0.0-3.0-6.0-1.0-0.34","65dc39c407a42529d7d7199f","6662009ae78f21dd82fcd179","66620c6c80e7717867e40c8e","417","","j","","","","","","","","./tasks/HMM-beads/Images/NewTrialWC.png","lowH","1","34","1","1","1","1","true","",""
"image-keyboard-response","239","357585","0.0-3.0-6.0-1.0-1.34","65dc39c407a42529d7d7199f","6662009ae78f21dd82fcd179","66620c6c80e7717867e40c8e","null","","null","","","","","","","","./tasks/HMM-beads/Images/WhiteBeadChoice.png","","","","","","","","","",""
"image-keyboard-response","240","358087","0.0-3.0-6.0-1.0-2.34","65dc39c407a42529d7d7199f","6662009ae78f21dd82fcd179","66620c6c80e7717867e40c8e","null","","null","","","","","","","","./tasks/HMM-beads/Images/WhiteBeadChoiceCorrect.png","","","","","","","","","",""
"image-keyboard-response","241","358233","0.0-3.0-6.0-1.0-0.35","65dc39c407a42529d7d7199f","6662009ae78f21dd82fcd179","66620c6c80e7717867e40c8e","145","","j","","","","","","","","./tasks/HMM-beads/Images/NewTrialWC.png","lowH","1","35","1","1","1","1","true","",""
"image-keyboard-response","242","358534","0.0-3.0-6.0-1.0-1.35","65dc39c407a42529d7d7199f","6662009ae78f21dd82fcd179","66620c6c80e7717867e40c8e","null","","null","","","","","","","","./tasks/HMM-beads/Images/WhiteBeadChoice.png","","","","","","","","","",""
"image-keyboard-response","243","359040","0.0-3.0-6.0-1.0-2.35","65dc39c407a42529d7d7199f","6662009ae78f21dd82fcd179","66620c6c80e7717867e40c8e","null","","null","","","","","","","","./tasks/HMM-beads/Images/WhiteBeadChoiceCorrect.png","","","","","","","","","",""
"image-keyboard-response","244","359289","0.0-3.0-6.0-1.0-0.36","65dc39c407a42529d7d7199f","6662009ae78f21dd82fcd179","66620c6c80e7717867e40c8e","248","","j","","","","","","","","./tasks/HMM-beads/Images/NewTrialWC.png","lowH","1","36","1","1","1","1","true","",""
"image-keyboard-response","245","359602","0.0-3.0-6.0-1.0-1.36","65dc39c407a42529d7d7199f","6662009ae78f21dd82fcd179","66620c6c80e7717867e40c8e","null","","null","","","","","","","","./tasks/HMM-beads/Images/WhiteBeadChoice.png","","","","","","","","","",""
"image-keyboard-response","246","360106","0.0-3.0-6.0-1.0-2.36","65dc39c407a42529d7d7199f","6662009ae78f21dd82fcd179","66620c6c80e7717867e40c8e","null","","null","","","","","","","","./tasks/HMM-beads/Images/WhiteBeadChoiceCorrect.png","","","","","","","","","",""
"image-keyboard-response","247","360410","0.0-3.0-6.0-1.0-0.37","65dc39c407a42529d7d7199f","6662009ae78f21dd82fcd179","66620c6c80e7717867e40c8e","303","","j","","","","","","","","./tasks/HMM-beads/Images/NewTrialWC.png","lowH","1","37","1","1","1","1","true","",""
"image-keyboard-response","248","360720","0.0-3.0-6.0-1.0-1.37","65dc39c407a42529d7d7199f","6662009ae78f21dd82fcd179","66620c6c80e7717867e40c8e","null","","null","","","","","","","","./tasks/HMM-beads/Images/WhiteBeadChoice.png","","","","","","","","","",""
"image-keyboard-response","249","361242","0.0-3.0-6.0-1.0-2.37","65dc39c407a42529d7d7199f","6662009ae78f21dd82fcd179","66620c6c80e7717867e40c8e","null","","null","","","","","","","","./tasks/HMM-beads/Images/WhiteBeadChoiceCorrect.png","","","","","","","","","",""
"image-keyboard-response","250","361562","0.0-3.0-6.0-1.0-0.38","65dc39c407a42529d7d7199f","6662009ae78f21dd82fcd179","66620c6c80e7717867e40c8e","320","","j","","","","","","","","./tasks/HMM-beads/Images/NewTrialWC.png","lowH","1","38","1","1","1","1","true","",""
"image-keyboard-response","251","361871","0.0-3.0-6.0-1.0-1.38","65dc39c407a42529d7d7199f","6662009ae78f21dd82fcd179","66620c6c80e7717867e40c8e","null","","null","","","","","","","","./tasks/HMM-beads/Images/WhiteBeadChoice.png","","","","","","","","","",""
"image-keyboard-response","252","362377","0.0-3.0-6.0-1.0-2.38","65dc39c407a42529d7d7199f","6662009ae78f21dd82fcd179","66620c6c80e7717867e40c8e","null","","null","","","","","","","","./tasks/HMM-beads/Images/WhiteBeadChoiceCorrect.png","","","","","","","","","",""
"image-keyboard-response","253","362618","0.0-3.0-6.0-1.0-0.39","65dc39c407a42529d7d7199f","6662009ae78f21dd82fcd179","66620c6c80e7717867e40c8e","240","","j","","","","","","","","./tasks/HMM-beads/Images/NewTrialWC.png","lowH","1","39","1","1","1","1","true","",""
"image-keyboard-response","254","362922","0.0-3.0-6.0-1.0-1.39","65dc39c407a42529d7d7199f","6662009ae78f21dd82fcd179","66620c6c80e7717867e40c8e","null","","null","","","","","","","","./tasks/HMM-beads/Images/WhiteBeadChoice.png","","","","","","","","","",""
"image-keyboard-response","255","363428","0.0-3.0-6.0-1.0-2.39","65dc39c407a42529d7d7199f","6662009ae78f21dd82fcd179","66620c6c80e7717867e40c8e","null","","null","","","","","","","","./tasks/HMM-beads/Images/WhiteBeadChoiceCorrect.png","","","","","","","","","",""
"image-keyboard-response","256","363690","0.0-3.0-6.0-1.0-0.40","65dc39c407a42529d7d7199f","6662009ae78f21dd82fcd179","66620c6c80e7717867e40c8e","260","","j","","","","","","","","./tasks/HMM-beads/Images/NewTrialWC.png","lowH","1","40","1","1","1","1","true","",""
"image-keyboard-response","257","363992","0.0-3.0-6.0-1.0-1.40","65dc39c407a42529d7d7199f","6662009ae78f21dd82fcd179","66620c6c80e7717867e40c8e","null","","null","","","","","","","","./tasks/HMM-beads/Images/WhiteBeadChoice.png","","","","","","","","","",""
"image-keyboard-response","258","364510","0.0-3.0-6.0-1.0-2.40","65dc39c407a42529d7d7199f","6662009ae78f21dd82fcd179","66620c6c80e7717867e40c8e","null","","null","","","","","","","","./tasks/HMM-beads/Images/WhiteBeadChoiceCorrect.png","","","","","","","","","",""
"image-keyboard-response","259","364842","0.0-3.0-6.0-1.0-0.41","65dc39c407a42529d7d7199f","6662009ae78f21dd82fcd179","66620c6c80e7717867e40c8e","331","","j","","","","","","","","./tasks/HMM-beads/Images/NewTrialWC.png","lowH","1","41","1","1","1","1","true","",""
"image-keyboard-response","260","365157","0.0-3.0-6.0-1.0-1.41","65dc39c407a42529d7d7199f","6662009ae78f21dd82fcd179","66620c6c80e7717867e40c8e","null","","null","","","","","","","","./tasks/HMM-beads/Images/WhiteBeadChoice.png","","","","","","","","","",""
"image-keyboard-response","261","365664","0.0-3.0-6.0-1.0-2.41","65dc39c407a42529d7d7199f","6662009ae78f21dd82fcd179","66620c6c80e7717867e40c8e","null","","null","","","","","","","","./tasks/HMM-beads/Images/WhiteBeadChoiceCorrect.png","","","","","","","","","",""
"image-keyboard-response","262","366009","0.0-3.0-6.0-1.0-0.42","65dc39c407a42529d7d7199f","6662009ae78f21dd82fcd179","66620c6c80e7717867e40c8e","333","","j","","","","","","","","./tasks/HMM-beads/Images/NewTrialWC.png","lowH","1","42","1","1","1","1","true","",""
"image-keyboard-response","263","366325","0.0-3.0-6.0-1.0-1.42","65dc39c407a42529d7d7199f","6662009ae78f21dd82fcd179","66620c6c80e7717867e40c8e","null","","null","","","","","","","","./tasks/HMM-beads/Images/WhiteBeadChoice.png","","","","","","","","","",""
"image-keyboard-response","264","366831","0.0-3.0-6.0-1.0-2.42","65dc39c407a42529d7d7199f","6662009ae78f21dd82fcd179","66620c6c80e7717867e40c8e","null","","null","","","","","","","","./tasks/HMM-beads/Images/WhiteBeadChoiceCorrect.png","","","","","","","","","",""
"image-keyboard-response","265","367097","0.0-3.0-6.0-1.0-0.43","65dc39c407a42529d7d7199f","6662009ae78f21dd82fcd179","66620c6c80e7717867e40c8e","265","","j","","","","","","","","./tasks/HMM-beads/Images/NewTrialWC.png","lowH","1","43","1","1","1","1","true","",""
"image-keyboard-response","266","367409","0.0-3.0-6.0-1.0-1.43","65dc39c407a42529d7d7199f","6662009ae78f21dd82fcd179","66620c6c80e7717867e40c8e","null","","null","","","","","","","","./tasks/HMM-beads/Images/WhiteBeadChoice.png","","","","","","","","","",""
"image-keyboard-response","267","367915","0.0-3.0-6.0-1.0-2.43","65dc39c407a42529d7d7199f","6662009ae78f21dd82fcd179","66620c6c80e7717867e40c8e","null","","null","","","","","","","","./tasks/HMM-beads/Images/WhiteBeadChoiceCorrect.png","","","","","","","","","",""
"image-keyboard-response","268","368232","0.0-3.0-6.0-1.0-0.44","65dc39c407a42529d7d7199f","6662009ae78f21dd82fcd179","66620c6c80e7717867e40c8e","316","","j","","","","","","","","./tasks/HMM-beads/Images/NewTrialWC.png","lowH","1","44","1","1","1","1","true","",""
"image-keyboard-response","269","368544","0.0-3.0-6.0-1.0-1.44","65dc39c407a42529d7d7199f","6662009ae78f21dd82fcd179","66620c6c80e7717867e40c8e","null","","null","","","","","","","","./tasks/HMM-beads/Images/WhiteBeadChoice.png","","","","","","","","","",""
"image-keyboard-response","270","369050","0.0-3.0-6.0-1.0-2.44","65dc39c407a42529d7d7199f","6662009ae78f21dd82fcd179","66620c6c80e7717867e40c8e","null","","null","","","","","","","","./tasks/HMM-beads/Images/WhiteBeadChoiceCorrect.png","","","","","","","","","",""
"image-keyboard-response","271","369240","0.0-3.0-6.0-1.0-0.45","65dc39c407a42529d7d7199f","6662009ae78f21dd82fcd179","66620c6c80e7717867e40c8e","190","","j","","","","","","","","./tasks/HMM-beads/Images/NewTrialWC.png","lowH","1","45","1","1","1","1","true","",""
"image-keyboard-response","272","369545","0.0-3.0-6.0-1.0-1.45","65dc39c407a42529d7d7199f","6662009ae78f21dd82fcd179","66620c6c80e7717867e40c8e","null","","null","","","","","","","","./tasks/HMM-beads/Images/WhiteBeadChoice.png","","","","","","","","","",""
"image-keyboard-response","273","370052","0.0-3.0-6.0-1.0-2.45","65dc39c407a42529d7d7199f","6662009ae78f21dd82fcd179","66620c6c80e7717867e40c8e","null","","null","","","","","","","","./tasks/HMM-beads/Images/WhiteBeadChoiceCorrect.png","","","","","","","","","",""
"image-keyboard-response","274","370265","0.0-3.0-6.0-1.0-0.46","65dc39c407a42529d7d7199f","6662009ae78f21dd82fcd179","66620c6c80e7717867e40c8e","212","","j","","","","","","","","./tasks/HMM-beads/Images/NewTrialWC.png","lowH","1","46","1","1","1","1","true","",""
"image-keyboard-response","275","370579","0.0-3.0-6.0-1.0-1.46","65dc39c407a42529d7d7199f","6662009ae78f21dd82fcd179","66620c6c80e7717867e40c8e","null","","null","","","","","","","","./tasks/HMM-beads/Images/WhiteBeadChoice.png","","","","","","","","","",""
"image-keyboard-response","276","371086","0.0-3.0-6.0-1.0-2.46","65dc39c407a42529d7d7199f","6662009ae78f21dd82fcd179","66620c6c80e7717867e40c8e","null","","null","","","","","","","","./tasks/HMM-beads/Images/WhiteBeadChoiceCorrect.png","","","","","","","","","",""
"image-keyboard-response","277","371144","0.0-3.0-6.0-1.0-0.47","65dc39c407a42529d7d7199f","6662009ae78f21dd82fcd179","66620c6c80e7717867e40c8e","58","","j","","","","","","","","./tasks/HMM-beads/Images/NewTrialWC.png","lowH","1","47","1","0","1","1","false","",""
"image-keyboard-response","278","371448","0.0-3.0-6.0-1.0-1.47","65dc39c407a42529d7d7199f","6662009ae78f21dd82fcd179","66620c6c80e7717867e40c8e","null","","null","","","","","","","","./tasks/HMM-beads/Images/WhiteBeadChoice.png","","","","","","","","","",""
"image-keyboard-response","279","371952","0.0-3.0-6.0-1.0-2.47","65dc39c407a42529d7d7199f","6662009ae78f21dd82fcd179","66620c6c80e7717867e40c8e","null","","null","","","","","","","","./tasks/HMM-beads/Images/WhiteBeadChoiceWrong.png","","","","","","","","","",""
"image-keyboard-response","280","372234","0.0-3.0-6.0-1.0-0.48","65dc39c407a42529d7d7199f","6662009ae78f21dd82fcd179","66620c6c80e7717867e40c8e","281","","f","","","","","","","","./tasks/HMM-beads/Images/NewTrialBC.png","lowH","1","48","1","0","0","0","true","",""
"image-keyboard-response","281","372548","0.0-3.0-6.0-1.0-1.48","65dc39c407a42529d7d7199f","6662009ae78f21dd82fcd179","66620c6c80e7717867e40c8e","null","","null","","","","","","","","./tasks/HMM-beads/Images/BlackBeadChoice.png","","","","","","","","","",""
"image-keyboard-response","282","373054","0.0-3.0-6.0-1.0-2.48","65dc39c407a42529d7d7199f","6662009ae78f21dd82fcd179","66620c6c80e7717867e40c8e","null","","null","","","","","","","","./tasks/HMM-beads/Images/BlackBeadChoiceCorrect.png","","","","","","","","","",""
"image-keyboard-response","283","373160","0.0-3.0-6.0-1.0-0.49","65dc39c407a42529d7d7199f","6662009ae78f21dd82fcd179","66620c6c80e7717867e40c8e","106","","f","","","","","","","","./tasks/HMM-beads/Images/NewTrialBC.png","lowH","1","49","1","0","0","0","true","",""
"image-keyboard-response","284","373466","0.0-3.0-6.0-1.0-1.49","65dc39c407a42529d7d7199f","6662009ae78f21dd82fcd179","66620c6c80e7717867e40c8e","null","","null","","","","","","","","./tasks/HMM-beads/Images/BlackBeadChoice.png","","","","","","","","","",""
"image-keyboard-response","285","373972","0.0-3.0-6.0-1.0-2.49","65dc39c407a42529d7d7199f","6662009ae78f21dd82fcd179","66620c6c80e7717867e40c8e","null","","null","","","","","","","","./tasks/HMM-beads/Images/BlackBeadChoiceCorrect.png","","","","","","","","","",""
"image-keyboard-response","286","374378","0.0-3.0-6.0-1.0-0.50","65dc39c407a42529d7d7199f","6662009ae78f21dd82fcd179","66620c6c80e7717867e40c8e","405","","f","","","","","","","","./tasks/HMM-beads/Images/NewTrialBC.png","lowH","1","50","1","1","0","0","false","",""
"image-keyboard-response","287","374684","0.0-3.0-6.0-1.0-1.50","65dc39c407a42529d7d7199f","6662009ae78f21dd82fcd179","66620c6c80e7717867e40c8e","null","","null","","","","","","","","./tasks/HMM-beads/Images/BlackBeadChoice.png","","","","","","","","","",""
"image-keyboard-response","288","375205","0.0-3.0-6.0-1.0-2.50","65dc39c407a42529d7d7199f","6662009ae78f21dd82fcd179","66620c6c80e7717867e40c8e","null","","null","","","","","","","","./tasks/HMM-beads/Images/BlackBeadChoiceWrong.png","","","","","","","","","",""
"image-keyboard-response","289","375274","0.0-3.0-6.0-1.0-0.51","65dc39c407a42529d7d7199f","6662009ae78f21dd82fcd179","66620c6c80e7717867e40c8e","67","","j","","","","","","","","./tasks/HMM-beads/Images/NewTrialWC.png","lowH","1","51","1","1","1","1","true","",""
"image-keyboard-response","290","375585","0.0-3.0-6.0-1.0-1.51","65dc39c407a42529d7d7199f","6662009ae78f21dd82fcd179","66620c6c80e7717867e40c8e","null","","null","","","","","","","","./tasks/HMM-beads/Images/WhiteBeadChoice.png","","","","","","","","","",""
"image-keyboard-response","291","376091","0.0-3.0-6.0-1.0-2.51","65dc39c407a42529d7d7199f","6662009ae78f21dd82fcd179","66620c6c80e7717867e40c8e","null","","null","","","","","","","","./tasks/HMM-beads/Images/WhiteBeadChoiceCorrect.png","","","","","","","","","",""
"image-keyboard-response","292","377034","0.0-3.0-6.0-1.0-0.52","65dc39c407a42529d7d7199f","6662009ae78f21dd82fcd179","66620c6c80e7717867e40c8e","941","","j","","","","","","","","./tasks/HMM-beads/Images/NewTrialWC.png","lowH","1","52","1","1","1","1","true","",""
"image-keyboard-response","293","377338","0.0-3.0-6.0-1.0-1.52","65dc39c407a42529d7d7199f","6662009ae78f21dd82fcd179","66620c6c80e7717867e40c8e","null","","null","","","","","","","","./tasks/HMM-beads/Images/WhiteBeadChoice.png","","","","","","","","","",""
"image-keyboard-response","294","377841","0.0-3.0-6.0-1.0-2.52","65dc39c407a42529d7d7199f","6662009ae78f21dd82fcd179","66620c6c80e7717867e40c8e","null","","null","","","","","","","","./tasks/HMM-beads/Images/WhiteBeadChoiceCorrect.png","","","","","","","","","",""
"image-keyboard-response","295","380600","0.0-3.0-6.0-1.0-0.53","65dc39c407a42529d7d7199f","6662009ae78f21dd82fcd179","66620c6c80e7717867e40c8e","2758","","j","","","","","","","","./tasks/HMM-beads/Images/NewTrialWC.png","lowH","1","53","1","1","1","1","true","",""
"image-keyboard-response","296","380906","0.0-3.0-6.0-1.0-1.53","65dc39c407a42529d7d7199f","6662009ae78f21dd82fcd179","66620c6c80e7717867e40c8e","null","","null","","","","","","","","./tasks/HMM-beads/Images/WhiteBeadChoice.png","","","","","","","","","",""
"image-keyboard-response","297","381413","0.0-3.0-6.0-1.0-2.53","65dc39c407a42529d7d7199f","6662009ae78f21dd82fcd179","66620c6c80e7717867e40c8e","null","","null","","","","","","","","./tasks/HMM-beads/Images/WhiteBeadChoiceCorrect.png","","","","","","","","","",""
"image-keyboard-response","298","382185","0.0-3.0-6.0-1.0-0.54","65dc39c407a42529d7d7199f","6662009ae78f21dd82fcd179","66620c6c80e7717867e40c8e","772","","j","","","","","","","","./tasks/HMM-beads/Images/NewTrialWC.png","lowH","1","54","1","1","1","1","true","",""
"image-keyboard-response","299","382491","0.0-3.0-6.0-1.0-1.54","65dc39c407a42529d7d7199f","6662009ae78f21dd82fcd179","66620c6c80e7717867e40c8e","null","","null","","","","","","","","./tasks/HMM-beads/Images/WhiteBeadChoice.png","","","","","","","","","",""
"image-keyboard-response","300","382997","0.0-3.0-6.0-1.0-2.54","65dc39c407a42529d7d7199f","6662009ae78f21dd82fcd179","66620c6c80e7717867e40c8e","null","","null","","","","","","","","./tasks/HMM-beads/Images/WhiteBeadChoiceCorrect.png","","","","","","","","","",""
"image-keyboard-response","301","383177","0.0-3.0-6.0-1.0-0.55","65dc39c407a42529d7d7199f","6662009ae78f21dd82fcd179","66620c6c80e7717867e40c8e","176","","j","","","","","","","","./tasks/HMM-beads/Images/NewTrialWC.png","lowH","1","55","1","1","1","1","true","",""
"image-keyboard-response","302","383478","0.0-3.0-6.0-1.0-1.55","65dc39c407a42529d7d7199f","6662009ae78f21dd82fcd179","66620c6c80e7717867e40c8e","null","","null","","","","","","","","./tasks/HMM-beads/Images/WhiteBeadChoice.png","","","","","","","","","",""
"image-keyboard-response","303","383980","0.0-3.0-6.0-1.0-2.55","65dc39c407a42529d7d7199f","6662009ae78f21dd82fcd179","66620c6c80e7717867e40c8e","null","","null","","","","","","","","./tasks/HMM-beads/Images/WhiteBeadChoiceCorrect.png","","","","","","","","","",""
"image-keyboard-response","304","384600","0.0-3.0-6.0-1.0-0.56","65dc39c407a42529d7d7199f","6662009ae78f21dd82fcd179","66620c6c80e7717867e40c8e","620","","j","","","","","","","","./tasks/HMM-beads/Images/NewTrialWC.png","lowH","1","56","1","1","1","1","true","",""
"image-keyboard-response","305","384910","0.0-3.0-6.0-1.0-1.56","65dc39c407a42529d7d7199f","6662009ae78f21dd82fcd179","66620c6c80e7717867e40c8e","null","","null","","","","","","","","./tasks/HMM-beads/Images/WhiteBeadChoice.png","","","","","","","","","",""
"image-keyboard-response","306","385416","0.0-3.0-6.0-1.0-2.56","65dc39c407a42529d7d7199f","6662009ae78f21dd82fcd179","66620c6c80e7717867e40c8e","null","","null","","","","","","","","./tasks/HMM-beads/Images/WhiteBeadChoiceCorrect.png","","","","","","","","","",""
"image-keyboard-response","307","385528","0.0-3.0-6.0-1.0-0.57","65dc39c407a42529d7d7199f","6662009ae78f21dd82fcd179","66620c6c80e7717867e40c8e","111","","j","","","","","","","","./tasks/HMM-beads/Images/NewTrialWC.png","lowH","1","57","1","1","1","1","true","",""
"image-keyboard-response","308","385830","0.0-3.0-6.0-1.0-1.57","65dc39c407a42529d7d7199f","6662009ae78f21dd82fcd179","66620c6c80e7717867e40c8e","null","","null","","","","","","","","./tasks/HMM-beads/Images/WhiteBeadChoice.png","","","","","","","","","",""
"image-keyboard-response","309","386332","0.0-3.0-6.0-1.0-2.57","65dc39c407a42529d7d7199f","6662009ae78f21dd82fcd179","66620c6c80e7717867e40c8e","null","","null","","","","","","","","./tasks/HMM-beads/Images/WhiteBeadChoiceCorrect.png","","","","","","","","","",""
"image-keyboard-response","310","386874","0.0-3.0-6.0-1.0-0.58","65dc39c407a42529d7d7199f","6662009ae78f21dd82fcd179","66620c6c80e7717867e40c8e","541","","j","","","","","","","","./tasks/HMM-beads/Images/NewTrialWC.png","lowH","1","58","1","1","1","1","true","",""
"image-keyboard-response","311","387179","0.0-3.0-6.0-1.0-1.58","65dc39c407a42529d7d7199f","6662009ae78f21dd82fcd179","66620c6c80e7717867e40c8e","null","","null","","","","","","","","./tasks/HMM-beads/Images/WhiteBeadChoice.png","","","","","","","","","",""
"image-keyboard-response","312","387683","0.0-3.0-6.0-1.0-2.58","65dc39c407a42529d7d7199f","6662009ae78f21dd82fcd179","66620c6c80e7717867e40c8e","null","","null","","","","","","","","./tasks/HMM-beads/Images/WhiteBeadChoiceCorrect.png","","","","","","","","","",""
"image-keyboard-response","313","388441","0.0-3.0-6.0-1.0-0.59","65dc39c407a42529d7d7199f","6662009ae78f21dd82fcd179","66620c6c80e7717867e40c8e","756","","j","","","","","","","","./tasks/HMM-beads/Images/NewTrialWC.png","lowH","1","59","1","0","1","1","false","",""
"image-keyboard-response","314","388747","0.0-3.0-6.0-1.0-1.59","65dc39c407a42529d7d7199f","6662009ae78f21dd82fcd179","66620c6c80e7717867e40c8e","null","","null","","","","","","","","./tasks/HMM-beads/Images/WhiteBeadChoice.png","","","","","","","","","",""
"image-keyboard-response","315","389254","0.0-3.0-6.0-1.0-2.59","65dc39c407a42529d7d7199f","6662009ae78f21dd82fcd179","66620c6c80e7717867e40c8e","null","","null","","","","","","","","./tasks/HMM-beads/Images/WhiteBeadChoiceWrong.png","","","","","","","","","",""
"image-keyboard-response","316","389288","0.0-3.0-6.0-1.0-0.60","65dc39c407a42529d7d7199f","6662009ae78f21dd82fcd179","66620c6c80e7717867e40c8e","34","","f","","","","","","","","./tasks/HMM-beads/Images/NewTrialBC.png","lowH","1","60","1","1","0","0","false","",""
"image-keyboard-response","317","389599","0.0-3.0-6.0-1.0-1.60","65dc39c407a42529d7d7199f","6662009ae78f21dd82fcd179","66620c6c80e7717867e40c8e","null","","null","","","","","","","","./tasks/HMM-beads/Images/BlackBeadChoice.png","","","","","","","","","",""
"image-keyboard-response","318","390103","0.0-3.0-6.0-1.0-2.60","65dc39c407a42529d7d7199f","6662009ae78f21dd82fcd179","66620c6c80e7717867e40c8e","null","","null","","","","","","","","./tasks/HMM-beads/Images/BlackBeadChoiceWrong.png","","","","","","","","","",""
"image-keyboard-response","319","390570","0.0-3.0-6.0-1.0-0.61","65dc39c407a42529d7d7199f","6662009ae78f21dd82fcd179","66620c6c80e7717867e40c8e","465","","j","","","","","","","","./tasks/HMM-beads/Images/NewTrialWC.png","lowH","1","61","1","1","1","1","true","",""
"image-keyboard-response","320","390883","0.0-3.0-6.0-1.0-1.61","65dc39c407a42529d7d7199f","6662009ae78f21dd82fcd179","66620c6c80e7717867e40c8e","null","","null","","","","","","","","./tasks/HMM-beads/Images/WhiteBeadChoice.png","","","","","","","","","",""
"image-keyboard-response","321","391389","0.0-3.0-6.0-1.0-2.61","65dc39c407a42529d7d7199f","6662009ae78f21dd82fcd179","66620c6c80e7717867e40c8e","null","","null","","","","","","","","./tasks/HMM-beads/Images/WhiteBeadChoiceCorrect.png","","","","","","","","","",""
"image-keyboard-response","322","392297","0.0-3.0-6.0-1.0-0.62","65dc39c407a42529d7d7199f","6662009ae78f21dd82fcd179","66620c6c80e7717867e40c8e","906","","j","","","","","","","","./tasks/HMM-beads/Images/NewTrialWC.png","lowH","1","62","1","0","1","1","false","",""
"image-keyboard-response","323","392601","0.0-3.0-6.0-1.0-1.62","65dc39c407a42529d7d7199f","6662009ae78f21dd82fcd179","66620c6c80e7717867e40c8e","null","","null","","","","","","","","./tasks/HMM-beads/Images/WhiteBeadChoice.png","","","","","","","","","",""
"image-keyboard-response","324","393107","0.0-3.0-6.0-1.0-2.62","65dc39c407a42529d7d7199f","6662009ae78f21dd82fcd179","66620c6c80e7717867e40c8e","null","","null","","","","","","","","./tasks/HMM-beads/Images/WhiteBeadChoiceWrong.png","","","","","","","","","",""
"image-keyboard-response","325","393481","0.0-3.0-6.0-1.0-0.63","65dc39c407a42529d7d7199f","6662009ae78f21dd82fcd179","66620c6c80e7717867e40c8e","389","","j","","","","","","","","./tasks/HMM-beads/Images/NewTrialBC.png","lowH","1","63","1","1","0","1","true","",""
"image-keyboard-response","326","393787","0.0-3.0-6.0-1.0-1.63","65dc39c407a42529d7d7199f","6662009ae78f21dd82fcd179","66620c6c80e7717867e40c8e","null","","null","","","","","","","","./tasks/HMM-beads/Images/WhiteBeadChoice.png","","","","","","","","","",""
"image-keyboard-response","327","394294","0.0-3.0-6.0-1.0-2.63","65dc39c407a42529d7d7199f","6662009ae78f21dd82fcd179","66620c6c80e7717867e40c8e","null","","null","","","","","","","","./tasks/HMM-beads/Images/WhiteBeadChoiceCorrect.png","","","","","","","","","",""
"image-keyboard-response","328","394762","0.0-3.0-6.0-1.0-0.64","65dc39c407a42529d7d7199f","6662009ae78f21dd82fcd179","66620c6c80e7717867e40c8e","467","","j","","","","","","","","./tasks/HMM-beads/Images/NewTrialWC.png","lowH","1","64","1","1","1","1","true","",""
"image-keyboard-response","329","395072","0.0-3.0-6.0-1.0-1.64","65dc39c407a42529d7d7199f","6662009ae78f21dd82fcd179","66620c6c80e7717867e40c8e","null","","null","","","","","","","","./tasks/HMM-beads/Images/WhiteBeadChoice.png","","","","","","","","","",""
"image-keyboard-response","330","395578","0.0-3.0-6.0-1.0-2.64","65dc39c407a42529d7d7199f","6662009ae78f21dd82fcd179","66620c6c80e7717867e40c8e","null","","null","","","","","","","","./tasks/HMM-beads/Images/WhiteBeadChoiceCorrect.png","","","","","","","","","",""
"image-keyboard-response","331","395721","0.0-3.0-6.0-1.0-0.65","65dc39c407a42529d7d7199f","6662009ae78f21dd82fcd179","66620c6c80e7717867e40c8e","143","","j","","","","","","","","./tasks/HMM-beads/Images/NewTrialWC.png","lowH","1","65","1","1","1","1","true","",""
"image-keyboard-response","332","396023","0.0-3.0-6.0-1.0-1.65","65dc39c407a42529d7d7199f","6662009ae78f21dd82fcd179","66620c6c80e7717867e40c8e","null","","null","","","","","","","","./tasks/HMM-beads/Images/WhiteBeadChoice.png","","","","","","","","","",""
"image-keyboard-response","333","396529","0.0-3.0-6.0-1.0-2.65","65dc39c407a42529d7d7199f","6662009ae78f21dd82fcd179","66620c6c80e7717867e40c8e","null","","null","","","","","","","","./tasks/HMM-beads/Images/WhiteBeadChoiceCorrect.png","","","","","","","","","",""
"image-keyboard-response","334","396617","0.0-3.0-6.0-1.0-0.66","65dc39c407a42529d7d7199f","6662009ae78f21dd82fcd179","66620c6c80e7717867e40c8e","86","","j","","","","","","","","./tasks/HMM-beads/Images/NewTrialWC.png","lowH","1","66","1","1","1","1","true","",""
"image-keyboard-response","335","396924","0.0-3.0-6.0-1.0-1.66","65dc39c407a42529d7d7199f","6662009ae78f21dd82fcd179","66620c6c80e7717867e40c8e","null","","null","","","","","","","","./tasks/HMM-beads/Images/WhiteBeadChoice.png","","","","","","","","","",""
"image-keyboard-response","336","397430","0.0-3.0-6.0-1.0-2.66","65dc39c407a42529d7d7199f","6662009ae78f21dd82fcd179","66620c6c80e7717867e40c8e","null","","null","","","","","","","","./tasks/HMM-beads/Images/WhiteBeadChoiceCorrect.png","","","","","","","","","",""
"image-keyboard-response","337","397593","0.0-3.0-6.0-1.0-0.67","65dc39c407a42529d7d7199f","6662009ae78f21dd82fcd179","66620c6c80e7717867e40c8e","163","","j","","","","","","","","./tasks/HMM-beads/Images/NewTrialWC.png","lowH","1","67","1","0","1","1","false","",""
"image-keyboard-response","338","397908","0.0-3.0-6.0-1.0-1.67","65dc39c407a42529d7d7199f","6662009ae78f21dd82fcd179","66620c6c80e7717867e40c8e","null","","null","","","","","","","","./tasks/HMM-beads/Images/WhiteBeadChoice.png","","","","","","","","","",""
"image-keyboard-response","339","398414","0.0-3.0-6.0-1.0-2.67","65dc39c407a42529d7d7199f","6662009ae78f21dd82fcd179","66620c6c80e7717867e40c8e","null","","null","","","","","","","","./tasks/HMM-beads/Images/WhiteBeadChoiceWrong.png","","","","","","","","","",""
"image-keyboard-response","340","398425","0.0-3.0-6.0-1.0-0.68","65dc39c407a42529d7d7199f","6662009ae78f21dd82fcd179","66620c6c80e7717867e40c8e","8","","j","","","","","","","","./tasks/HMM-beads/Images/NewTrialBC.png","lowH","1","68","1","1","0","1","true","",""
"image-keyboard-response","341","398727","0.0-3.0-6.0-1.0-1.68","65dc39c407a42529d7d7199f","6662009ae78f21dd82fcd179","66620c6c80e7717867e40c8e","null","","null","","","","","","","","./tasks/HMM-beads/Images/WhiteBeadChoice.png","","","","","","","","","",""
"image-keyboard-response","342","399230","0.0-3.0-6.0-1.0-2.68","65dc39c407a42529d7d7199f","6662009ae78f21dd82fcd179","66620c6c80e7717867e40c8e","null","","null","","","","","","","","./tasks/HMM-beads/Images/WhiteBeadChoiceCorrect.png","","","","","","","","","",""
"image-keyboard-response","343","399850","0.0-3.0-6.0-1.0-0.69","65dc39c407a42529d7d7199f","6662009ae78f21dd82fcd179","66620c6c80e7717867e40c8e","618","","j","","","","","","","","./tasks/HMM-beads/Images/NewTrialWC.png","lowH","1","69","0","1","1","1","true","",""
"image-keyboard-response","344","400160","0.0-3.0-6.0-1.0-1.69","65dc39c407a42529d7d7199f","6662009ae78f21dd82fcd179","66620c6c80e7717867e40c8e","null","","null","","","","","","","","./tasks/HMM-beads/Images/WhiteBeadChoice.png","","","","","","","","","",""
"image-keyboard-response","345","400666","0.0-3.0-6.0-1.0-2.69","65dc39c407a42529d7d7199f","6662009ae78f21dd82fcd179","66620c6c80e7717867e40c8e","null","","null","","","","","","","","./tasks/HMM-beads/Images/WhiteBeadChoiceCorrect.png","","","","","","","","","",""
"image-keyboard-response","346","400985","0.0-3.0-6.0-1.0-0.70","65dc39c407a42529d7d7199f","6662009ae78f21dd82fcd179","66620c6c80e7717867e40c8e","318","","j","","","","","","","","./tasks/HMM-beads/Images/NewTrialWC.png","lowH","1","70","0","1","1","1","true","",""
"image-keyboard-response","347","401295","0.0-3.0-6.0-1.0-1.70","65dc39c407a42529d7d7199f","6662009ae78f21dd82fcd179","66620c6c80e7717867e40c8e","null","","null","","","","","","","","./tasks/HMM-beads/Images/WhiteBeadChoice.png","","","","","","","","","",""
"image-keyboard-response","348","401801","0.0-3.0-6.0-1.0-2.70","65dc39c407a42529d7d7199f","6662009ae78f21dd82fcd179","66620c6c80e7717867e40c8e","null","","null","","","","","","","","./tasks/HMM-beads/Images/WhiteBeadChoiceCorrect.png","","","","","","","","","",""
"image-keyboard-response","349","402601","0.0-3.0-6.0-1.0-0.71","65dc39c407a42529d7d7199f","6662009ae78f21dd82fcd179","66620c6c80e7717867e40c8e","800","","j","","","","","","","","./tasks/HMM-beads/Images/NewTrialWC.png","lowH","1","71","0","0","1","1","false","",""
"image-keyboard-response","350","402913","0.0-3.0-6.0-1.0-1.71","65dc39c407a42529d7d7199f","6662009ae78f21dd82fcd179","66620c6c80e7717867e40c8e","null","","null","","","","","","","","./tasks/HMM-beads/Images/WhiteBeadChoice.png","","","","","","","","","",""
"image-keyboard-response","351","403419","0.0-3.0-6.0-1.0-2.71","65dc39c407a42529d7d7199f","6662009ae78f21dd82fcd179","66620c6c80e7717867e40c8e","null","","null","","","","","","","","./tasks/HMM-beads/Images/WhiteBeadChoiceWrong.png","","","","","","","","","",""
"image-keyboard-response","352","403513","0.0-3.0-6.0-1.0-0.72","65dc39c407a42529d7d7199f","6662009ae78f21dd82fcd179","66620c6c80e7717867e40c8e","93","","j","","","","","","","","./tasks/HMM-beads/Images/NewTrialBC.png","lowH","1","72","0","0","0","1","false","",""
"image-keyboard-response","353","403832","0.0-3.0-6.0-1.0-1.72","65dc39c407a42529d7d7199f","6662009ae78f21dd82fcd179","66620c6c80e7717867e40c8e","null","","null","","","","","","","","./tasks/HMM-beads/Images/WhiteBeadChoice.png","","","","","","","","","",""
"image-keyboard-response","354","404335","0.0-3.0-6.0-1.0-2.72","65dc39c407a42529d7d7199f","6662009ae78f21dd82fcd179","66620c6c80e7717867e40c8e","null","","null","","","","","","","","./tasks/HMM-beads/Images/WhiteBeadChoiceWrong.png","","","","","","","","","",""
"image-keyboard-response","355","405833","0.0-3.0-6.0-1.0-0.73","65dc39c407a42529d7d7199f","6662009ae78f21dd82fcd179","66620c6c80e7717867e40c8e","1496","","f","","","","","","","","./tasks/HMM-beads/Images/NewTrialBC.png","lowH","1","73","0","1","0","0","false","",""
"image-keyboard-response","356","406135","0.0-3.0-6.0-1.0-1.73","65dc39c407a42529d7d7199f","6662009ae78f21dd82fcd179","66620c6c80e7717867e40c8e","null","","null","","","","","","","","./tasks/HMM-beads/Images/BlackBeadChoice.png","","","","","","","","","",""
"image-keyboard-response","357","406639","0.0-3.0-6.0-1.0-2.73","65dc39c407a42529d7d7199f","6662009ae78f21dd82fcd179","66620c6c80e7717867e40c8e","null","","null","","","","","","","","./tasks/HMM-beads/Images/BlackBeadChoiceWrong.png","","","","","","","","","",""
"image-keyboard-response","358","407209","0.0-3.0-6.0-1.0-0.74","65dc39c407a42529d7d7199f","6662009ae78f21dd82fcd179","66620c6c80e7717867e40c8e","569","","j","","","","","","","","./tasks/HMM-beads/Images/NewTrialWC.png","lowH","1","74","0","0","1","1","false","",""
"image-keyboard-response","359","407517","0.0-3.0-6.0-1.0-1.74","65dc39c407a42529d7d7199f","6662009ae78f21dd82fcd179","66620c6c80e7717867e40c8e","null","","null","","","","","","","","./tasks/HMM-beads/Images/WhiteBeadChoice.png","","","","","","","","","",""
"image-keyboard-response","360","408024","0.0-3.0-6.0-1.0-2.74","65dc39c407a42529d7d7199f","6662009ae78f21dd82fcd179","66620c6c80e7717867e40c8e","null","","null","","","","","","","","./tasks/HMM-beads/Images/WhiteBeadChoiceWrong.png","","","","","","","","","",""
"image-keyboard-response","361","409753","0.0-3.0-6.0-1.0-0.75","65dc39c407a42529d7d7199f","6662009ae78f21dd82fcd179","66620c6c80e7717867e40c8e","1729","","j","","","","","","","","./tasks/HMM-beads/Images/NewTrialBC.png","lowH","1","75","0","1","0","1","true","",""
"image-keyboard-response","362","410056","0.0-3.0-6.0-1.0-1.75","65dc39c407a42529d7d7199f","6662009ae78f21dd82fcd179","66620c6c80e7717867e40c8e","null","","null","","","","","","","","./tasks/HMM-beads/Images/WhiteBeadChoice.png","","","","","","","","","",""
"image-keyboard-response","363","410558","0.0-3.0-6.0-1.0-2.75","65dc39c407a42529d7d7199f","6662009ae78f21dd82fcd179","66620c6c80e7717867e40c8e","null","","null","","","","","","","","./tasks/HMM-beads/Images/WhiteBeadChoiceCorrect.png","","","","","","","","","",""
"image-keyboard-response","364","411385","0.0-3.0-6.0-1.0-0.76","65dc39c407a42529d7d7199f","6662009ae78f21dd82fcd179","66620c6c80e7717867e40c8e","827","","j","","","","","","","","./tasks/HMM-beads/Images/NewTrialWC.png","lowH","1","76","0","1","1","1","true","",""
"image-keyboard-response","365","411688","0.0-3.0-6.0-1.0-1.76","65dc39c407a42529d7d7199f","6662009ae78f21dd82fcd179","66620c6c80e7717867e40c8e","null","","null","","","","","","","","./tasks/HMM-beads/Images/WhiteBeadChoice.png","","","","","","","","","",""
"image-keyboard-response","366","412194","0.0-3.0-6.0-1.0-2.76","65dc39c407a42529d7d7199f","6662009ae78f21dd82fcd179","66620c6c80e7717867e40c8e","null","","null","","","","","","","","./tasks/HMM-beads/Images/WhiteBeadChoiceCorrect.png","","","","","","","","","",""
"image-keyboard-response","367","412505","0.0-3.0-6.0-1.0-0.77","65dc39c407a42529d7d7199f","6662009ae78f21dd82fcd179","66620c6c80e7717867e40c8e","310","","j","","","","","","","","./tasks/HMM-beads/Images/NewTrialWC.png","lowH","1","77","0","0","1","1","false","",""
"image-keyboard-response","368","412806","0.0-3.0-6.0-1.0-1.77","65dc39c407a42529d7d7199f","6662009ae78f21dd82fcd179","66620c6c80e7717867e40c8e","null","","null","","","","","","","","./tasks/HMM-beads/Images/WhiteBeadChoice.png","","","","","","","","","",""
"image-keyboard-response","369","413312","0.0-3.0-6.0-1.0-2.77","65dc39c407a42529d7d7199f","6662009ae78f21dd82fcd179","66620c6c80e7717867e40c8e","null","","null","","","","","","","","./tasks/HMM-beads/Images/WhiteBeadChoiceWrong.png","","","","","","","","","",""
"image-keyboard-response","370","415035","0.0-3.0-6.0-1.0-0.78","65dc39c407a42529d7d7199f","6662009ae78f21dd82fcd179","66620c6c80e7717867e40c8e","1722","","j","","","","","","","","./tasks/HMM-beads/Images/NewTrialBC.png","lowH","1","78","0","0","0","1","false","",""
"image-keyboard-response","371","415342","0.0-3.0-6.0-1.0-1.78","65dc39c407a42529d7d7199f","6662009ae78f21dd82fcd179","66620c6c80e7717867e40c8e","null","","null","","","","","","","","./tasks/HMM-beads/Images/WhiteBeadChoice.png","","","","","","","","","",""
"image-keyboard-response","372","415848","0.0-3.0-6.0-1.0-2.78","65dc39c407a42529d7d7199f","6662009ae78f21dd82fcd179","66620c6c80e7717867e40c8e","null","","null","","","","","","","","./tasks/HMM-beads/Images/WhiteBeadChoiceWrong.png","","","","","","","","","",""
"image-keyboard-response","373","416649","0.0-3.0-6.0-1.0-0.79","65dc39c407a42529d7d7199f","6662009ae78f21dd82fcd179","66620c6c80e7717867e40c8e","799","","j","","","","","","","","./tasks/HMM-beads/Images/NewTrialBC.png","lowH","1","79","0","0","0","1","false","",""
"image-keyboard-response","374","416960","0.0-3.0-6.0-1.0-1.79","65dc39c407a42529d7d7199f","6662009ae78f21dd82fcd179","66620c6c80e7717867e40c8e","null","","null","","","","","","","","./tasks/HMM-beads/Images/WhiteBeadChoice.png","","","","","","","","","",""
