"trial_type","trial_index","time_elapsed","internal_node_id","subject_id","study_id","session_id","rt","url","response","question_order","view_history","success","timeout","failed_images","failed_audio","failed_video","stimulus","block","block_rep","trial_number","jar","bead","previous_bead","choice","correct","lowH_score","total_bonus"
"pavlovia","0","1163","0.0-0.0","661f0e896898093f2e1e62f7","6662009ae78f21dd82fcd179","66620a27b067d1d8e941ffec","","","","","","","","","","","","","","","","","","","","",""
"external-html","1","35135","0.0-1.0-0.0","661f0e896898093f2e1e62f7","6662009ae78f21dd82fcd179","66620a27b067d1d8e941ffec","33850","new_consent.html","","","","","","","","","","","","","","","","","","",""
"survey-multi-choice","2","38496","0.0-1.0-1.0","661f0e896898093f2e1e62f7","6662009ae78f21dd82fcd179","66620a27b067d1d8e941ffec","3359","","{""Q0"":""Male"",""Q1"":""White""}","[0,1]","","","","","","","","","","","","","","","","",""
"survey-text","3","71824","0.0-1.0-2.0","661f0e896898093f2e1e62f7","6662009ae78f21dd82fcd179","66620a27b067d1d8e941ffec","33325","","{""Q0"":""23""}","","","","","","","","","","","","","","","","","",""
"instructions","4","74535","0.0-2.0","661f0e896898093f2e1e62f7","6662009ae78f21dd82fcd179","66620a27b067d1d8e941ffec","2608","","","","[{""page_index"":0,""viewing_time"":2608}]","","","","","","","","","","","","","","","",""
"preload","5","75530","0.0-3.0-0.0","661f0e896898093f2e1e62f7","6662009ae78f21dd82fcd179","66620a27b067d1d8e941ffec","","","","","","true","false","[]","[]","[]","","","","","","","","","","",""
"instructions","6","194990","0.0-3.0-1.0","661f0e896898093f2e1e62f7","6662009ae78f21dd82fcd179","66620a27b067d1d8e941ffec","119461","","","","[{""page_index"":0,""viewing_time"":27053},{""page_index"":1,""viewing_time"":3896},{""page_index"":2,""viewing_time"":1336},{""page_index"":3,""viewing_time"":824},{""page_index"":4,""viewing_time"":3024},{""page_index"":5,""viewing_time"":24432},{""page_index"":6,""viewing_time"":52240},{""page_index"":7,""viewing_time"":1776},{""page_index"":8,""viewing_time"":1216},{""page_index"":9,""viewing_time"":1080},{""page_index"":10,""viewing_time"":1464},{""page_index"":11,""viewing_time"":1120}]","","","","","","","","","","","","","","","",""
"html-button-response","7","198335","0.0-3.0-2.0-0.0-0.0","661f0e896898093f2e1e62f7","6662009ae78f21dd82fcd179","66620a27b067d1d8e941ffec","3344","","2","","","","","","","","<div align=center>Your goal is to predict…?<br><br></div>","","","","","","","","","",""
"html-button-response","8","201119","0.0-3.0-2.0-0.1-0.1","661f0e896898093f2e1e62f7","6662009ae78f21dd82fcd179","66620a27b067d1d8e941ffec","1632","","1","","","","","","","","<div align=center>Your goal is to predict…?<br><br></div>","","","","","","","","","",""
"html-button-response","9","206422","0.0-3.0-2.0-1.0-0.0","661f0e896898093f2e1e62f7","6662009ae78f21dd82fcd179","66620a27b067d1d8e941ffec","4360","","2","","","","","","","","<div align=center>In the jar with mostly white beads, there are ___% white beads and ___% black beads?<br><br></div>","","","","","","","","","",""
"html-button-response","10","270390","0.0-3.0-2.0-2.0-0.0","661f0e896898093f2e1e62f7","6662009ae78f21dd82fcd179","66620a27b067d1d8e941ffec","62799","","1","","","","","","","","<div align=center>When there is a 1% probability that the jars will switch, the next bead will most likely be drawn from the…<br><br></div>","","","","","","","","","",""
"html-button-response","11","272045","0.0-3.0-2.0-2.1-0.1","661f0e896898093f2e1e62f7","6662009ae78f21dd82fcd179","66620a27b067d1d8e941ffec","632","","0","","","","","","","","<div align=center>When there is a 1% probability that the jars will switch, the next bead will most likely be drawn from the…<br><br></div>","","","","","","","","","",""
"html-button-response","12","276198","0.0-3.0-2.0-3.0-0.0","661f0e896898093f2e1e62f7","6662009ae78f21dd82fcd179","66620a27b067d1d8e941ffec","2991","","1","","","","","","","","<div align=center>When there is a 99% probability that the jars will switch, the next bead will most likely be drawn from the…<br><br></div>","","","","","","","","","",""
"instructions","13","307589","0.0-3.0-3.0","661f0e896898093f2e1e62f7","6662009ae78f21dd82fcd179","66620a27b067d1d8e941ffec","30416","","","","[{""page_index"":0,""viewing_time"":30415}]","","","","","","","","","","","","","","","",""
"html-keyboard-response","14","309766","0.0-3.0-4.0-0.0","661f0e896898093f2e1e62f7","6662009ae78f21dd82fcd179","66620a27b067d1d8e941ffec","2176",""," ","","","","","","","","<div align=center>In this practice block, there will be a <b>1% chance</b> that the jar on the next trial will be different from the jar on the current trial.<br><br></div>","","","","","","","","","",""
"image-keyboard-response","15","312011","0.0-3.0-4.0-1.0-0.0","661f0e896898093f2e1e62f7","6662009ae78f21dd82fcd179","66620a27b067d1d8e941ffec","2244","","f","","","","","","","","./tasks/HMM-beads/Images/NoChoice.png","practice","0","0","0","0","9","0","true","",""
"image-keyboard-response","16","312323","0.0-3.0-4.0-1.0-1.0","661f0e896898093f2e1e62f7","6662009ae78f21dd82fcd179","66620a27b067d1d8e941ffec","null","","null","","","","","","","","./tasks/HMM-beads/Images/BlackBeadChoice.png","","","","","","","","","",""
"image-keyboard-response","17","312837","0.0-3.0-4.0-1.0-2.0","661f0e896898093f2e1e62f7","6662009ae78f21dd82fcd179","66620a27b067d1d8e941ffec","null","","null","","","","","","","","./tasks/HMM-beads/Images/BlackBeadChoiceCorrect.png","","","","","","","","","",""
"image-keyboard-response","18","314390","0.0-3.0-4.0-1.0-0.1","661f0e896898093f2e1e62f7","6662009ae78f21dd82fcd179","66620a27b067d1d8e941ffec","1552","","j","","","","","","","","./tasks/HMM-beads/Images/NewTrialBC.png","practice","0","1","0","0","0","1","false","",""
"image-keyboard-response","19","314699","0.0-3.0-4.0-1.0-1.1","661f0e896898093f2e1e62f7","6662009ae78f21dd82fcd179","66620a27b067d1d8e941ffec","null","","null","","","","","","","","./tasks/HMM-beads/Images/WhiteBeadChoice.png","","","","","","","","","",""
"image-keyboard-response","20","315213","0.0-3.0-4.0-1.0-2.1","661f0e896898093f2e1e62f7","6662009ae78f21dd82fcd179","66620a27b067d1d8e941ffec","null","","null","","","","","","","","./tasks/HMM-beads/Images/WhiteBeadChoiceWrong.png","","","","","","","","","",""
"image-keyboard-response","21","316038","0.0-3.0-4.0-1.0-0.2","661f0e896898093f2e1e62f7","6662009ae78f21dd82fcd179","66620a27b067d1d8e941ffec","824","","f","","","","","","","","./tasks/HMM-beads/Images/NewTrialBC.png","practice","0","2","0","1","0","0","false","",""
"image-keyboard-response","22","316350","0.0-3.0-4.0-1.0-1.2","661f0e896898093f2e1e62f7","6662009ae78f21dd82fcd179","66620a27b067d1d8e941ffec","null","","null","","","","","","","","./tasks/HMM-beads/Images/BlackBeadChoice.png","","","","","","","","","",""
"image-keyboard-response","23","316864","0.0-3.0-4.0-1.0-2.2","661f0e896898093f2e1e62f7","6662009ae78f21dd82fcd179","66620a27b067d1d8e941ffec","null","","null","","","","","","","","./tasks/HMM-beads/Images/BlackBeadChoiceWrong.png","","","","","","","","","",""
"image-keyboard-response","24","318653","0.0-3.0-4.0-1.0-0.3","661f0e896898093f2e1e62f7","6662009ae78f21dd82fcd179","66620a27b067d1d8e941ffec","1789","","j","","","","","","","","./tasks/HMM-beads/Images/NewTrialWC.png","practice","0","3","0","0","1","1","false","",""
"image-keyboard-response","25","318956","0.0-3.0-4.0-1.0-1.3","661f0e896898093f2e1e62f7","6662009ae78f21dd82fcd179","66620a27b067d1d8e941ffec","null","","null","","","","","","","","./tasks/HMM-beads/Images/WhiteBeadChoice.png","","","","","","","","","",""
"image-keyboard-response","26","319460","0.0-3.0-4.0-1.0-2.3","661f0e896898093f2e1e62f7","6662009ae78f21dd82fcd179","66620a27b067d1d8e941ffec","null","","null","","","","","","","","./tasks/HMM-beads/Images/WhiteBeadChoiceWrong.png","","","","","","","","","",""
"image-keyboard-response","27","320464","0.0-3.0-4.0-1.0-0.4","661f0e896898093f2e1e62f7","6662009ae78f21dd82fcd179","66620a27b067d1d8e941ffec","1003","","j","","","","","","","","./tasks/HMM-beads/Images/NewTrialBC.png","practice","0","4","0","0","0","1","false","",""
"image-keyboard-response","28","320775","0.0-3.0-4.0-1.0-1.4","661f0e896898093f2e1e62f7","6662009ae78f21dd82fcd179","66620a27b067d1d8e941ffec","null","","null","","","","","","","","./tasks/HMM-beads/Images/WhiteBeadChoice.png","","","","","","","","","",""
"image-keyboard-response","29","321287","0.0-3.0-4.0-1.0-2.4","661f0e896898093f2e1e62f7","6662009ae78f21dd82fcd179","66620a27b067d1d8e941ffec","null","","null","","","","","","","","./tasks/HMM-beads/Images/WhiteBeadChoiceWrong.png","","","","","","","","","",""
"image-keyboard-response","30","322012","0.0-3.0-4.0-1.0-0.5","661f0e896898093f2e1e62f7","6662009ae78f21dd82fcd179","66620a27b067d1d8e941ffec","724","","f","","","","","","","","./tasks/HMM-beads/Images/NewTrialBC.png","practice","0","5","0","1","0","0","false","",""
"image-keyboard-response","31","322319","0.0-3.0-4.0-1.0-1.5","661f0e896898093f2e1e62f7","6662009ae78f21dd82fcd179","66620a27b067d1d8e941ffec","null","","null","","","","","","","","./tasks/HMM-beads/Images/BlackBeadChoice.png","","","","","","","","","",""
"image-keyboard-response","32","322835","0.0-3.0-4.0-1.0-2.5","661f0e896898093f2e1e62f7","6662009ae78f21dd82fcd179","66620a27b067d1d8e941ffec","null","","null","","","","","","","","./tasks/HMM-beads/Images/BlackBeadChoiceWrong.png","","","","","","","","","",""
"image-keyboard-response","33","323614","0.0-3.0-4.0-1.0-0.6","661f0e896898093f2e1e62f7","6662009ae78f21dd82fcd179","66620a27b067d1d8e941ffec","779","","f","","","","","","","","./tasks/HMM-beads/Images/NewTrialWC.png","practice","0","6","0","0","1","0","true","",""
"image-keyboard-response","34","323929","0.0-3.0-4.0-1.0-1.6","661f0e896898093f2e1e62f7","6662009ae78f21dd82fcd179","66620a27b067d1d8e941ffec","null","","null","","","","","","","","./tasks/HMM-beads/Images/BlackBeadChoice.png","","","","","","","","","",""
"image-keyboard-response","35","324432","0.0-3.0-4.0-1.0-2.6","661f0e896898093f2e1e62f7","6662009ae78f21dd82fcd179","66620a27b067d1d8e941ffec","null","","null","","","","","","","","./tasks/HMM-beads/Images/BlackBeadChoiceCorrect.png","","","","","","","","","",""
"image-keyboard-response","36","325304","0.0-3.0-4.0-1.0-0.7","661f0e896898093f2e1e62f7","6662009ae78f21dd82fcd179","66620a27b067d1d8e941ffec","872","","f","","","","","","","","./tasks/HMM-beads/Images/NewTrialBC.png","practice","0","7","0","0","0","0","true","",""
"image-keyboard-response","37","325615","0.0-3.0-4.0-1.0-1.7","661f0e896898093f2e1e62f7","6662009ae78f21dd82fcd179","66620a27b067d1d8e941ffec","null","","null","","","","","","","","./tasks/HMM-beads/Images/BlackBeadChoice.png","","","","","","","","","",""
"image-keyboard-response","38","326118","0.0-3.0-4.0-1.0-2.7","661f0e896898093f2e1e62f7","6662009ae78f21dd82fcd179","66620a27b067d1d8e941ffec","null","","null","","","","","","","","./tasks/HMM-beads/Images/BlackBeadChoiceCorrect.png","","","","","","","","","",""
"image-keyboard-response","39","326640","0.0-3.0-4.0-1.0-0.8","661f0e896898093f2e1e62f7","6662009ae78f21dd82fcd179","66620a27b067d1d8e941ffec","521","","f","","","","","","","","./tasks/HMM-beads/Images/NewTrialBC.png","practice","0","8","0","0","0","0","true","",""
"image-keyboard-response","40","326943","0.0-3.0-4.0-1.0-1.8","661f0e896898093f2e1e62f7","6662009ae78f21dd82fcd179","66620a27b067d1d8e941ffec","null","","null","","","","","","","","./tasks/HMM-beads/Images/BlackBeadChoice.png","","","","","","","","","",""
"image-keyboard-response","41","327444","0.0-3.0-4.0-1.0-2.8","661f0e896898093f2e1e62f7","6662009ae78f21dd82fcd179","66620a27b067d1d8e941ffec","null","","null","","","","","","","","./tasks/HMM-beads/Images/BlackBeadChoiceCorrect.png","","","","","","","","","",""
"image-keyboard-response","42","328029","0.0-3.0-4.0-1.0-0.9","661f0e896898093f2e1e62f7","6662009ae78f21dd82fcd179","66620a27b067d1d8e941ffec","584","","j","","","","","","","","./tasks/HMM-beads/Images/NewTrialBC.png","practice","0","9","0","1","0","1","true","",""
"image-keyboard-response","43","328335","0.0-3.0-4.0-1.0-1.9","661f0e896898093f2e1e62f7","6662009ae78f21dd82fcd179","66620a27b067d1d8e941ffec","null","","null","","","","","","","","./tasks/HMM-beads/Images/WhiteBeadChoice.png","","","","","","","","","",""
"image-keyboard-response","44","328848","0.0-3.0-4.0-1.0-2.9","661f0e896898093f2e1e62f7","6662009ae78f21dd82fcd179","66620a27b067d1d8e941ffec","null","","null","","","","","","","","./tasks/HMM-beads/Images/WhiteBeadChoiceCorrect.png","","","","","","","","","",""
"image-keyboard-response","45","329632","0.0-3.0-4.0-1.0-0.10","661f0e896898093f2e1e62f7","6662009ae78f21dd82fcd179","66620a27b067d1d8e941ffec","783","","f","","","","","","","","./tasks/HMM-beads/Images/NewTrialWC.png","practice","0","10","0","0","1","0","true","",""
"image-keyboard-response","46","329941","0.0-3.0-4.0-1.0-1.10","661f0e896898093f2e1e62f7","6662009ae78f21dd82fcd179","66620a27b067d1d8e941ffec","null","","null","","","","","","","","./tasks/HMM-beads/Images/BlackBeadChoice.png","","","","","","","","","",""
"image-keyboard-response","47","330455","0.0-3.0-4.0-1.0-2.10","661f0e896898093f2e1e62f7","6662009ae78f21dd82fcd179","66620a27b067d1d8e941ffec","null","","null","","","","","","","","./tasks/HMM-beads/Images/BlackBeadChoiceCorrect.png","","","","","","","","","",""
"image-keyboard-response","48","331131","0.0-3.0-4.0-1.0-0.11","661f0e896898093f2e1e62f7","6662009ae78f21dd82fcd179","66620a27b067d1d8e941ffec","675","","f","","","","","","","","./tasks/HMM-beads/Images/NewTrialBC.png","practice","0","11","0","1","0","0","false","",""
"image-keyboard-response","49","331438","0.0-3.0-4.0-1.0-1.11","661f0e896898093f2e1e62f7","6662009ae78f21dd82fcd179","66620a27b067d1d8e941ffec","null","","null","","","","","","","","./tasks/HMM-beads/Images/BlackBeadChoice.png","","","","","","","","","",""
"image-keyboard-response","50","331949","0.0-3.0-4.0-1.0-2.11","661f0e896898093f2e1e62f7","6662009ae78f21dd82fcd179","66620a27b067d1d8e941ffec","null","","null","","","","","","","","./tasks/HMM-beads/Images/BlackBeadChoiceWrong.png","","","","","","","","","",""
"image-keyboard-response","51","332758","0.0-3.0-4.0-1.0-0.12","661f0e896898093f2e1e62f7","6662009ae78f21dd82fcd179","66620a27b067d1d8e941ffec","808","","j","","","","","","","","./tasks/HMM-beads/Images/NewTrialWC.png","practice","0","12","0","0","1","1","false","",""
"image-keyboard-response","52","333068","0.0-3.0-4.0-1.0-1.12","661f0e896898093f2e1e62f7","6662009ae78f21dd82fcd179","66620a27b067d1d8e941ffec","null","","null","","","","","","","","./tasks/HMM-beads/Images/WhiteBeadChoice.png","","","","","","","","","",""
"image-keyboard-response","53","333584","0.0-3.0-4.0-1.0-2.12","661f0e896898093f2e1e62f7","6662009ae78f21dd82fcd179","66620a27b067d1d8e941ffec","null","","null","","","","","","","","./tasks/HMM-beads/Images/WhiteBeadChoiceWrong.png","","","","","","","","","",""
"image-keyboard-response","54","334020","0.0-3.0-4.0-1.0-0.13","661f0e896898093f2e1e62f7","6662009ae78f21dd82fcd179","66620a27b067d1d8e941ffec","435","","f","","","","","","","","./tasks/HMM-beads/Images/NewTrialBC.png","practice","0","13","0","0","0","0","true","",""
"image-keyboard-response","55","334333","0.0-3.0-4.0-1.0-1.13","661f0e896898093f2e1e62f7","6662009ae78f21dd82fcd179","66620a27b067d1d8e941ffec","null","","null","","","","","","","","./tasks/HMM-beads/Images/BlackBeadChoice.png","","","","","","","","","",""
"image-keyboard-response","56","334847","0.0-3.0-4.0-1.0-2.13","661f0e896898093f2e1e62f7","6662009ae78f21dd82fcd179","66620a27b067d1d8e941ffec","null","","null","","","","","","","","./tasks/HMM-beads/Images/BlackBeadChoiceCorrect.png","","","","","","","","","",""
"image-keyboard-response","57","335425","0.0-3.0-4.0-1.0-0.14","661f0e896898093f2e1e62f7","6662009ae78f21dd82fcd179","66620a27b067d1d8e941ffec","578","","j","","","","","","","","./tasks/HMM-beads/Images/NewTrialBC.png","practice","0","14","0","0","0","1","false","",""
"image-keyboard-response","58","335738","0.0-3.0-4.0-1.0-1.14","661f0e896898093f2e1e62f7","6662009ae78f21dd82fcd179","66620a27b067d1d8e941ffec","null","","null","","","","","","","","./tasks/HMM-beads/Images/WhiteBeadChoice.png","","","","","","","","","",""
"image-keyboard-response","59","336239","0.0-3.0-4.0-1.0-2.14","661f0e896898093f2e1e62f7","6662009ae78f21dd82fcd179","66620a27b067d1d8e941ffec","null","","null","","","","","","","","./tasks/HMM-beads/Images/WhiteBeadChoiceWrong.png","","","","","","","","","",""
"image-keyboard-response","60","336665","0.0-3.0-4.0-1.0-0.15","661f0e896898093f2e1e62f7","6662009ae78f21dd82fcd179","66620a27b067d1d8e941ffec","425","","j","","","","","","","","./tasks/HMM-beads/Images/NewTrialBC.png","practice","0","15","0","0","0","1","false","",""
"image-keyboard-response","61","336972","0.0-3.0-4.0-1.0-1.15","661f0e896898093f2e1e62f7","6662009ae78f21dd82fcd179","66620a27b067d1d8e941ffec","null","","null","","","","","","","","./tasks/HMM-beads/Images/WhiteBeadChoice.png","","","","","","","","","",""
"image-keyboard-response","62","337486","0.0-3.0-4.0-1.0-2.15","661f0e896898093f2e1e62f7","6662009ae78f21dd82fcd179","66620a27b067d1d8e941ffec","null","","null","","","","","","","","./tasks/HMM-beads/Images/WhiteBeadChoiceWrong.png","","","","","","","","","",""
"image-keyboard-response","63","337915","0.0-3.0-4.0-1.0-0.16","661f0e896898093f2e1e62f7","6662009ae78f21dd82fcd179","66620a27b067d1d8e941ffec","428","","j","","","","","","","","./tasks/HMM-beads/Images/NewTrialBC.png","practice","0","16","0","0","0","1","false","",""
"image-keyboard-response","64","338218","0.0-3.0-4.0-1.0-1.16","661f0e896898093f2e1e62f7","6662009ae78f21dd82fcd179","66620a27b067d1d8e941ffec","null","","null","","","","","","","","./tasks/HMM-beads/Images/WhiteBeadChoice.png","","","","","","","","","",""
"image-keyboard-response","65","338732","0.0-3.0-4.0-1.0-2.16","661f0e896898093f2e1e62f7","6662009ae78f21dd82fcd179","66620a27b067d1d8e941ffec","null","","null","","","","","","","","./tasks/HMM-beads/Images/WhiteBeadChoiceWrong.png","","","","","","","","","",""
"image-keyboard-response","66","339106","0.0-3.0-4.0-1.0-0.17","661f0e896898093f2e1e62f7","6662009ae78f21dd82fcd179","66620a27b067d1d8e941ffec","372","","j","","","","","","","","./tasks/HMM-beads/Images/NewTrialBC.png","practice","0","17","0","0","0","1","false","",""
"image-keyboard-response","67","339419","0.0-3.0-4.0-1.0-1.17","661f0e896898093f2e1e62f7","6662009ae78f21dd82fcd179","66620a27b067d1d8e941ffec","null","","null","","","","","","","","./tasks/HMM-beads/Images/WhiteBeadChoice.png","","","","","","","","","",""
"image-keyboard-response","68","339935","0.0-3.0-4.0-1.0-2.17","661f0e896898093f2e1e62f7","6662009ae78f21dd82fcd179","66620a27b067d1d8e941ffec","null","","null","","","","","","","","./tasks/HMM-beads/Images/WhiteBeadChoiceWrong.png","","","","","","","","","",""
"image-keyboard-response","69","340275","0.0-3.0-4.0-1.0-0.18","661f0e896898093f2e1e62f7","6662009ae78f21dd82fcd179","66620a27b067d1d8e941ffec","339","","f","","","","","","","","./tasks/HMM-beads/Images/NewTrialBC.png","practice","0","18","0","1","0","0","false","",""
"image-keyboard-response","70","340589","0.0-3.0-4.0-1.0-1.18","661f0e896898093f2e1e62f7","6662009ae78f21dd82fcd179","66620a27b067d1d8e941ffec","null","","null","","","","","","","","./tasks/HMM-beads/Images/BlackBeadChoice.png","","","","","","","","","",""
"image-keyboard-response","71","341104","0.0-3.0-4.0-1.0-2.18","661f0e896898093f2e1e62f7","6662009ae78f21dd82fcd179","66620a27b067d1d8e941ffec","null","","null","","","","","","","","./tasks/HMM-beads/Images/BlackBeadChoiceWrong.png","","","","","","","","","",""
"image-keyboard-response","72","341211","0.0-3.0-4.0-1.0-0.19","661f0e896898093f2e1e62f7","6662009ae78f21dd82fcd179","66620a27b067d1d8e941ffec","106","","j","","","","","","","","./tasks/HMM-beads/Images/NewTrialWC.png","practice","0","19","0","0","1","1","false","",""
"image-keyboard-response","73","341525","0.0-3.0-4.0-1.0-1.19","661f0e896898093f2e1e62f7","6662009ae78f21dd82fcd179","66620a27b067d1d8e941ffec","null","","null","","","","","","","","./tasks/HMM-beads/Images/WhiteBeadChoice.png","","","","","","","","","",""
"image-keyboard-response","74","342029","0.0-3.0-4.0-1.0-2.19","661f0e896898093f2e1e62f7","6662009ae78f21dd82fcd179","66620a27b067d1d8e941ffec","null","","null","","","","","","","","./tasks/HMM-beads/Images/WhiteBeadChoiceWrong.png","","","","","","","","","",""
"image-keyboard-response","75","345329","0.0-3.0-4.0-1.0-0.20","661f0e896898093f2e1e62f7","6662009ae78f21dd82fcd179","66620a27b067d1d8e941ffec","3299","","j","","","","","","","","./tasks/HMM-beads/Images/NewTrialBC.png","practice","0","20","0","0","0","1","false","",""
"image-keyboard-response","76","345641","0.0-3.0-4.0-1.0-1.20","661f0e896898093f2e1e62f7","6662009ae78f21dd82fcd179","66620a27b067d1d8e941ffec","null","","null","","","","","","","","./tasks/HMM-beads/Images/WhiteBeadChoice.png","","","","","","","","","",""
"image-keyboard-response","77","346153","0.0-3.0-4.0-1.0-2.20","661f0e896898093f2e1e62f7","6662009ae78f21dd82fcd179","66620a27b067d1d8e941ffec","null","","null","","","","","","","","./tasks/HMM-beads/Images/WhiteBeadChoiceWrong.png","","","","","","","","","",""
"image-keyboard-response","78","346598","0.0-3.0-4.0-1.0-0.21","661f0e896898093f2e1e62f7","6662009ae78f21dd82fcd179","66620a27b067d1d8e941ffec","444","","f","","","","","","","","./tasks/HMM-beads/Images/NewTrialBC.png","practice","0","21","0","1","0","0","false","",""
"image-keyboard-response","79","346914","0.0-3.0-4.0-1.0-1.21","661f0e896898093f2e1e62f7","6662009ae78f21dd82fcd179","66620a27b067d1d8e941ffec","null","","null","","","","","","","","./tasks/HMM-beads/Images/BlackBeadChoice.png","","","","","","","","","",""
"image-keyboard-response","80","347428","0.0-3.0-4.0-1.0-2.21","661f0e896898093f2e1e62f7","6662009ae78f21dd82fcd179","66620a27b067d1d8e941ffec","null","","null","","","","","","","","./tasks/HMM-beads/Images/BlackBeadChoiceWrong.png","","","","","","","","","",""
"image-keyboard-response","81","347789","0.0-3.0-4.0-1.0-0.22","661f0e896898093f2e1e62f7","6662009ae78f21dd82fcd179","66620a27b067d1d8e941ffec","360","","j","","","","","","","","./tasks/HMM-beads/Images/NewTrialWC.png","practice","0","22","1","1","1","1","true","",""
"image-keyboard-response","82","348104","0.0-3.0-4.0-1.0-1.22","661f0e896898093f2e1e62f7","6662009ae78f21dd82fcd179","66620a27b067d1d8e941ffec","null","","null","","","","","","","","./tasks/HMM-beads/Images/WhiteBeadChoice.png","","","","","","","","","",""
"image-keyboard-response","83","348618","0.0-3.0-4.0-1.0-2.22","661f0e896898093f2e1e62f7","6662009ae78f21dd82fcd179","66620a27b067d1d8e941ffec","null","","null","","","","","","","","./tasks/HMM-beads/Images/WhiteBeadChoiceCorrect.png","","","","","","","","","",""
"image-keyboard-response","84","348914","0.0-3.0-4.0-1.0-0.23","661f0e896898093f2e1e62f7","6662009ae78f21dd82fcd179","66620a27b067d1d8e941ffec","295","","j","","","","","","","","./tasks/HMM-beads/Images/NewTrialWC.png","practice","0","23","1","0","1","1","false","",""
"image-keyboard-response","85","349224","0.0-3.0-4.0-1.0-1.23","661f0e896898093f2e1e62f7","6662009ae78f21dd82fcd179","66620a27b067d1d8e941ffec","null","","null","","","","","","","","./tasks/HMM-beads/Images/WhiteBeadChoice.png","","","","","","","","","",""
"image-keyboard-response","86","349738","0.0-3.0-4.0-1.0-2.23","661f0e896898093f2e1e62f7","6662009ae78f21dd82fcd179","66620a27b067d1d8e941ffec","null","","null","","","","","","","","./tasks/HMM-beads/Images/WhiteBeadChoiceWrong.png","","","","","","","","","",""
"image-keyboard-response","87","350125","0.0-3.0-4.0-1.0-0.24","661f0e896898093f2e1e62f7","6662009ae78f21dd82fcd179","66620a27b067d1d8e941ffec","386","","f","","","","","","","","./tasks/HMM-beads/Images/NewTrialBC.png","practice","0","24","1","1","0","0","false","",""
"image-keyboard-response","88","350437","0.0-3.0-4.0-1.0-1.24","661f0e896898093f2e1e62f7","6662009ae78f21dd82fcd179","66620a27b067d1d8e941ffec","null","","null","","","","","","","","./tasks/HMM-beads/Images/BlackBeadChoice.png","","","","","","","","","",""
"image-keyboard-response","89","350949","0.0-3.0-4.0-1.0-2.24","661f0e896898093f2e1e62f7","6662009ae78f21dd82fcd179","66620a27b067d1d8e941ffec","null","","null","","","","","","","","./tasks/HMM-beads/Images/BlackBeadChoiceWrong.png","","","","","","","","","",""
"image-keyboard-response","90","351290","0.0-3.0-4.0-1.0-0.25","661f0e896898093f2e1e62f7","6662009ae78f21dd82fcd179","66620a27b067d1d8e941ffec","340","","j","","","","","","","","./tasks/HMM-beads/Images/NewTrialWC.png","practice","0","25","1","1","1","1","true","",""
"image-keyboard-response","91","351602","0.0-3.0-4.0-1.0-1.25","661f0e896898093f2e1e62f7","6662009ae78f21dd82fcd179","66620a27b067d1d8e941ffec","null","","null","","","","","","","","./tasks/HMM-beads/Images/WhiteBeadChoice.png","","","","","","","","","",""
"image-keyboard-response","92","352117","0.0-3.0-4.0-1.0-2.25","661f0e896898093f2e1e62f7","6662009ae78f21dd82fcd179","66620a27b067d1d8e941ffec","null","","null","","","","","","","","./tasks/HMM-beads/Images/WhiteBeadChoiceCorrect.png","","","","","","","","","",""
"image-keyboard-response","93","352397","0.0-3.0-4.0-1.0-0.26","661f0e896898093f2e1e62f7","6662009ae78f21dd82fcd179","66620a27b067d1d8e941ffec","279","","j","","","","","","","","./tasks/HMM-beads/Images/NewTrialWC.png","practice","0","26","1","1","1","1","true","",""
"image-keyboard-response","94","352712","0.0-3.0-4.0-1.0-1.26","661f0e896898093f2e1e62f7","6662009ae78f21dd82fcd179","66620a27b067d1d8e941ffec","null","","null","","","","","","","","./tasks/HMM-beads/Images/WhiteBeadChoice.png","","","","","","","","","",""
"image-keyboard-response","95","353226","0.0-3.0-4.0-1.0-2.26","661f0e896898093f2e1e62f7","6662009ae78f21dd82fcd179","66620a27b067d1d8e941ffec","null","","null","","","","","","","","./tasks/HMM-beads/Images/WhiteBeadChoiceCorrect.png","","","","","","","","","",""
"image-keyboard-response","96","353452","0.0-3.0-4.0-1.0-0.27","661f0e896898093f2e1e62f7","6662009ae78f21dd82fcd179","66620a27b067d1d8e941ffec","225","","j","","","","","","","","./tasks/HMM-beads/Images/NewTrialWC.png","practice","0","27","1","1","1","1","true","",""
"image-keyboard-response","97","353755","0.0-3.0-4.0-1.0-1.27","661f0e896898093f2e1e62f7","6662009ae78f21dd82fcd179","66620a27b067d1d8e941ffec","null","","null","","","","","","","","./tasks/HMM-beads/Images/WhiteBeadChoice.png","","","","","","","","","",""
"image-keyboard-response","98","354268","0.0-3.0-4.0-1.0-2.27","661f0e896898093f2e1e62f7","6662009ae78f21dd82fcd179","66620a27b067d1d8e941ffec","null","","null","","","","","","","","./tasks/HMM-beads/Images/WhiteBeadChoiceCorrect.png","","","","","","","","","",""
"image-keyboard-response","99","354587","0.0-3.0-4.0-1.0-0.28","661f0e896898093f2e1e62f7","6662009ae78f21dd82fcd179","66620a27b067d1d8e941ffec","318","","f","","","","","","","","./tasks/HMM-beads/Images/NewTrialWC.png","practice","0","28","1","0","1","0","true","",""
"image-keyboard-response","100","354892","0.0-3.0-4.0-1.0-1.28","661f0e896898093f2e1e62f7","6662009ae78f21dd82fcd179","66620a27b067d1d8e941ffec","null","","null","","","","","","","","./tasks/HMM-beads/Images/BlackBeadChoice.png","","","","","","","","","",""
"image-keyboard-response","101","355394","0.0-3.0-4.0-1.0-2.28","661f0e896898093f2e1e62f7","6662009ae78f21dd82fcd179","66620a27b067d1d8e941ffec","null","","null","","","","","","","","./tasks/HMM-beads/Images/BlackBeadChoiceCorrect.png","","","","","","","","","",""
"image-keyboard-response","102","355489","0.0-3.0-4.0-1.0-0.29","661f0e896898093f2e1e62f7","6662009ae78f21dd82fcd179","66620a27b067d1d8e941ffec","94","","f","","","","","","","","./tasks/HMM-beads/Images/NewTrialBC.png","practice","0","29","1","1","0","0","false","",""
"image-keyboard-response","103","355803","0.0-3.0-4.0-1.0-1.29","661f0e896898093f2e1e62f7","6662009ae78f21dd82fcd179","66620a27b067d1d8e941ffec","null","","null","","","","","","","","./tasks/HMM-beads/Images/BlackBeadChoice.png","","","","","","","","","",""
"image-keyboard-response","104","356318","0.0-3.0-4.0-1.0-2.29","661f0e896898093f2e1e62f7","6662009ae78f21dd82fcd179","66620a27b067d1d8e941ffec","null","","null","","","","","","","","./tasks/HMM-beads/Images/BlackBeadChoiceWrong.png","","","","","","","","","",""
"image-keyboard-response","105","356448","0.0-3.0-4.0-1.0-0.30","661f0e896898093f2e1e62f7","6662009ae78f21dd82fcd179","66620a27b067d1d8e941ffec","128","","j","","","","","","","","./tasks/HMM-beads/Images/NewTrialWC.png","practice","0","30","1","0","1","1","false","",""
"image-keyboard-response","106","356757","0.0-3.0-4.0-1.0-1.30","661f0e896898093f2e1e62f7","6662009ae78f21dd82fcd179","66620a27b067d1d8e941ffec","null","","null","","","","","","","","./tasks/HMM-beads/Images/WhiteBeadChoice.png","","","","","","","","","",""
"image-keyboard-response","107","357272","0.0-3.0-4.0-1.0-2.30","661f0e896898093f2e1e62f7","6662009ae78f21dd82fcd179","66620a27b067d1d8e941ffec","null","","null","","","","","","","","./tasks/HMM-beads/Images/WhiteBeadChoiceWrong.png","","","","","","","","","",""
"image-keyboard-response","108","357370","0.0-3.0-4.0-1.0-0.31","661f0e896898093f2e1e62f7","6662009ae78f21dd82fcd179","66620a27b067d1d8e941ffec","97","","f","","","","","","","","./tasks/HMM-beads/Images/NewTrialBC.png","practice","0","31","1","1","0","0","false","",""
"image-keyboard-response","109","357679","0.0-3.0-4.0-1.0-1.31","661f0e896898093f2e1e62f7","6662009ae78f21dd82fcd179","66620a27b067d1d8e941ffec","null","","null","","","","","","","","./tasks/HMM-beads/Images/BlackBeadChoice.png","","","","","","","","","",""
"image-keyboard-response","110","358183","0.0-3.0-4.0-1.0-2.31","661f0e896898093f2e1e62f7","6662009ae78f21dd82fcd179","66620a27b067d1d8e941ffec","null","","null","","","","","","","","./tasks/HMM-beads/Images/BlackBeadChoiceWrong.png","","","","","","","","","",""
"image-keyboard-response","111","358463","0.0-3.0-4.0-1.0-0.32","661f0e896898093f2e1e62f7","6662009ae78f21dd82fcd179","66620a27b067d1d8e941ffec","279","","f","","","","","","","","./tasks/HMM-beads/Images/NewTrialWC.png","practice","0","32","1","1","1","0","false","",""
"image-keyboard-response","112","358776","0.0-3.0-4.0-1.0-1.32","661f0e896898093f2e1e62f7","6662009ae78f21dd82fcd179","66620a27b067d1d8e941ffec","null","","null","","","","","","","","./tasks/HMM-beads/Images/BlackBeadChoice.png","","","","","","","","","",""
"image-keyboard-response","113","359290","0.0-3.0-4.0-1.0-2.32","661f0e896898093f2e1e62f7","6662009ae78f21dd82fcd179","66620a27b067d1d8e941ffec","null","","null","","","","","","","","./tasks/HMM-beads/Images/BlackBeadChoiceWrong.png","","","","","","","","","",""
"image-keyboard-response","114","359510","0.0-3.0-4.0-1.0-0.33","661f0e896898093f2e1e62f7","6662009ae78f21dd82fcd179","66620a27b067d1d8e941ffec","219","","j","","","","","","","","./tasks/HMM-beads/Images/NewTrialWC.png","practice","0","33","1","1","1","1","true","",""
"image-keyboard-response","115","359821","0.0-3.0-4.0-1.0-1.33","661f0e896898093f2e1e62f7","6662009ae78f21dd82fcd179","66620a27b067d1d8e941ffec","null","","null","","","","","","","","./tasks/HMM-beads/Images/WhiteBeadChoice.png","","","","","","","","","",""
"image-keyboard-response","116","360337","0.0-3.0-4.0-1.0-2.33","661f0e896898093f2e1e62f7","6662009ae78f21dd82fcd179","66620a27b067d1d8e941ffec","null","","null","","","","","","","","./tasks/HMM-beads/Images/WhiteBeadChoiceCorrect.png","","","","","","","","","",""
"image-keyboard-response","117","360506","0.0-3.0-4.0-1.0-0.34","661f0e896898093f2e1e62f7","6662009ae78f21dd82fcd179","66620a27b067d1d8e941ffec","168","","f","","","","","","","","./tasks/HMM-beads/Images/NewTrialWC.png","practice","0","34","1","1","1","0","false","",""
"image-keyboard-response","118","360820","0.0-3.0-4.0-1.0-1.34","661f0e896898093f2e1e62f7","6662009ae78f21dd82fcd179","66620a27b067d1d8e941ffec","null","","null","","","","","","","","./tasks/HMM-beads/Images/BlackBeadChoice.png","","","","","","","","","",""
"image-keyboard-response","119","361332","0.0-3.0-4.0-1.0-2.34","661f0e896898093f2e1e62f7","6662009ae78f21dd82fcd179","66620a27b067d1d8e941ffec","null","","null","","","","","","","","./tasks/HMM-beads/Images/BlackBeadChoiceWrong.png","","","","","","","","","",""
"image-keyboard-response","120","361359","0.0-3.0-4.0-1.0-0.35","661f0e896898093f2e1e62f7","6662009ae78f21dd82fcd179","66620a27b067d1d8e941ffec","26","","j","","","","","","","","./tasks/HMM-beads/Images/NewTrialWC.png","practice","0","35","1","1","1","1","true","",""
"image-keyboard-response","121","361662","0.0-3.0-4.0-1.0-1.35","661f0e896898093f2e1e62f7","6662009ae78f21dd82fcd179","66620a27b067d1d8e941ffec","null","","null","","","","","","","","./tasks/HMM-beads/Images/WhiteBeadChoice.png","","","","","","","","","",""
"image-keyboard-response","122","362174","0.0-3.0-4.0-1.0-2.35","661f0e896898093f2e1e62f7","6662009ae78f21dd82fcd179","66620a27b067d1d8e941ffec","null","","null","","","","","","","","./tasks/HMM-beads/Images/WhiteBeadChoiceCorrect.png","","","","","","","","","",""
"image-keyboard-response","123","362530","0.0-3.0-4.0-1.0-0.36","661f0e896898093f2e1e62f7","6662009ae78f21dd82fcd179","66620a27b067d1d8e941ffec","355","","f","","","","","","","","./tasks/HMM-beads/Images/NewTrialWC.png","practice","0","36","1","0","1","0","true","",""
"image-keyboard-response","124","362844","0.0-3.0-4.0-1.0-1.36","661f0e896898093f2e1e62f7","6662009ae78f21dd82fcd179","66620a27b067d1d8e941ffec","null","","null","","","","","","","","./tasks/HMM-beads/Images/BlackBeadChoice.png","","","","","","","","","",""
"image-keyboard-response","125","363360","0.0-3.0-4.0-1.0-2.36","661f0e896898093f2e1e62f7","6662009ae78f21dd82fcd179","66620a27b067d1d8e941ffec","null","","null","","","","","","","","./tasks/HMM-beads/Images/BlackBeadChoiceCorrect.png","","","","","","","","","",""
"image-keyboard-response","126","363855","0.0-3.0-4.0-1.0-0.37","661f0e896898093f2e1e62f7","6662009ae78f21dd82fcd179","66620a27b067d1d8e941ffec","494","","f","","","","","","","","./tasks/HMM-beads/Images/NewTrialBC.png","practice","0","37","1","1","0","0","false","",""
"image-keyboard-response","127","364158","0.0-3.0-4.0-1.0-1.37","661f0e896898093f2e1e62f7","6662009ae78f21dd82fcd179","66620a27b067d1d8e941ffec","null","","null","","","","","","","","./tasks/HMM-beads/Images/BlackBeadChoice.png","","","","","","","","","",""
"image-keyboard-response","128","364673","0.0-3.0-4.0-1.0-2.37","661f0e896898093f2e1e62f7","6662009ae78f21dd82fcd179","66620a27b067d1d8e941ffec","null","","null","","","","","","","","./tasks/HMM-beads/Images/BlackBeadChoiceWrong.png","","","","","","","","","",""
"image-keyboard-response","129","364865","0.0-3.0-4.0-1.0-0.38","661f0e896898093f2e1e62f7","6662009ae78f21dd82fcd179","66620a27b067d1d8e941ffec","191","","j","","","","","","","","./tasks/HMM-beads/Images/NewTrialWC.png","practice","0","38","1","1","1","1","true","",""
"image-keyboard-response","130","365173","0.0-3.0-4.0-1.0-1.38","661f0e896898093f2e1e62f7","6662009ae78f21dd82fcd179","66620a27b067d1d8e941ffec","null","","null","","","","","","","","./tasks/HMM-beads/Images/WhiteBeadChoice.png","","","","","","","","","",""
"image-keyboard-response","131","365686","0.0-3.0-4.0-1.0-2.38","661f0e896898093f2e1e62f7","6662009ae78f21dd82fcd179","66620a27b067d1d8e941ffec","null","","null","","","","","","","","./tasks/HMM-beads/Images/WhiteBeadChoiceCorrect.png","","","","","","","","","",""
"image-keyboard-response","132","365894","0.0-3.0-4.0-1.0-0.39","661f0e896898093f2e1e62f7","6662009ae78f21dd82fcd179","66620a27b067d1d8e941ffec","207","","j","","","","","","","","./tasks/HMM-beads/Images/NewTrialWC.png","practice","0","39","1","1","1","1","true","",""
"image-keyboard-response","133","366200","0.0-3.0-4.0-1.0-1.39","661f0e896898093f2e1e62f7","6662009ae78f21dd82fcd179","66620a27b067d1d8e941ffec","null","","null","","","","","","","","./tasks/HMM-beads/Images/WhiteBeadChoice.png","","","","","","","","","",""
"image-keyboard-response","134","366715","0.0-3.0-4.0-1.0-2.39","661f0e896898093f2e1e62f7","6662009ae78f21dd82fcd179","66620a27b067d1d8e941ffec","null","","null","","","","","","","","./tasks/HMM-beads/Images/WhiteBeadChoiceCorrect.png","","","","","","","","","",""
"html-keyboard-response","135","371239","0.0-3.0-4.0-2.0","661f0e896898093f2e1e62f7","6662009ae78f21dd82fcd179","66620a27b067d1d8e941ffec","4523",""," ","","","","","","","","","","","","","","","","","",""
"instructions","136","387037","0.0-3.0-5.0","661f0e896898093f2e1e62f7","6662009ae78f21dd82fcd179","66620a27b067d1d8e941ffec","15798","","","","[{""page_index"":0,""viewing_time"":9710},{""page_index"":1,""viewing_time"":6088}]","","","","","","","","","","","","","","","",""
"html-keyboard-response","137","395535","0.0-3.0-6.0-0.0","661f0e896898093f2e1e62f7","6662009ae78f21dd82fcd179","66620a27b067d1d8e941ffec","8498",""," ","","","","","","","","<div align=center>In this block, there will be a <b>1% chance</b> that the jar on the next trial will be different from the jar on the current trial.<br><br></div>","","","","","","","","","",""
"image-keyboard-response","138","397643","0.0-3.0-6.0-1.0-0.0","661f0e896898093f2e1e62f7","6662009ae78f21dd82fcd179","66620a27b067d1d8e941ffec","2107","","f","","","","","","","","./tasks/HMM-beads/Images/NoChoice.png","lowH","1","0","1","0","9","0","true","",""
"image-keyboard-response","139","397958","0.0-3.0-6.0-1.0-1.0","661f0e896898093f2e1e62f7","6662009ae78f21dd82fcd179","66620a27b067d1d8e941ffec","null","","null","","","","","","","","./tasks/HMM-beads/Images/BlackBeadChoice.png","","","","","","","","","",""
"image-keyboard-response","140","398460","0.0-3.0-6.0-1.0-2.0","661f0e896898093f2e1e62f7","6662009ae78f21dd82fcd179","66620a27b067d1d8e941ffec","null","","null","","","","","","","","./tasks/HMM-beads/Images/BlackBeadChoiceCorrect.png","","","","","","","","","",""
"image-keyboard-response","141","398519","0.0-3.0-6.0-1.0-0.1","661f0e896898093f2e1e62f7","6662009ae78f21dd82fcd179","66620a27b067d1d8e941ffec","59","","f","","","","","","","","./tasks/HMM-beads/Images/NewTrialBC.png","lowH","1","1","1","1","0","0","false","",""
"image-keyboard-response","142","398835","0.0-3.0-6.0-1.0-1.1","661f0e896898093f2e1e62f7","6662009ae78f21dd82fcd179","66620a27b067d1d8e941ffec","null","","null","","","","","","","","./tasks/HMM-beads/Images/BlackBeadChoice.png","","","","","","","","","",""
"image-keyboard-response","143","399337","0.0-3.0-6.0-1.0-2.1","661f0e896898093f2e1e62f7","6662009ae78f21dd82fcd179","66620a27b067d1d8e941ffec","null","","null","","","","","","","","./tasks/HMM-beads/Images/BlackBeadChoiceWrong.png","","","","","","","","","",""
"image-keyboard-response","144","399955","0.0-3.0-6.0-1.0-0.2","661f0e896898093f2e1e62f7","6662009ae78f21dd82fcd179","66620a27b067d1d8e941ffec","618","","f","","","","","","","","./tasks/HMM-beads/Images/NewTrialWC.png","lowH","1","2","1","1","1","0","false","",""
"image-keyboard-response","145","400269","0.0-3.0-6.0-1.0-1.2","661f0e896898093f2e1e62f7","6662009ae78f21dd82fcd179","66620a27b067d1d8e941ffec","null","","null","","","","","","","","./tasks/HMM-beads/Images/BlackBeadChoice.png","","","","","","","","","",""
"image-keyboard-response","146","400783","0.0-3.0-6.0-1.0-2.2","661f0e896898093f2e1e62f7","6662009ae78f21dd82fcd179","66620a27b067d1d8e941ffec","null","","null","","","","","","","","./tasks/HMM-beads/Images/BlackBeadChoiceWrong.png","","","","","","","","","",""
"image-keyboard-response","147","401026","0.0-3.0-6.0-1.0-0.3","661f0e896898093f2e1e62f7","6662009ae78f21dd82fcd179","66620a27b067d1d8e941ffec","242","","j","","","","","","","","./tasks/HMM-beads/Images/NewTrialWC.png","lowH","1","3","1","1","1","1","true","",""
"image-keyboard-response","148","401330","0.0-3.0-6.0-1.0-1.3","661f0e896898093f2e1e62f7","6662009ae78f21dd82fcd179","66620a27b067d1d8e941ffec","null","","null","","","","","","","","./tasks/HMM-beads/Images/WhiteBeadChoice.png","","","","","","","","","",""
"image-keyboard-response","149","401846","0.0-3.0-6.0-1.0-2.3","661f0e896898093f2e1e62f7","6662009ae78f21dd82fcd179","66620a27b067d1d8e941ffec","null","","null","","","","","","","","./tasks/HMM-beads/Images/WhiteBeadChoiceCorrect.png","","","","","","","","","",""
"image-keyboard-response","150","401942","0.0-3.0-6.0-1.0-0.4","661f0e896898093f2e1e62f7","6662009ae78f21dd82fcd179","66620a27b067d1d8e941ffec","96","","j","","","","","","","","./tasks/HMM-beads/Images/NewTrialWC.png","lowH","1","4","1","1","1","1","true","",""
"image-keyboard-response","151","402257","0.0-3.0-6.0-1.0-1.4","661f0e896898093f2e1e62f7","6662009ae78f21dd82fcd179","66620a27b067d1d8e941ffec","null","","null","","","","","","","","./tasks/HMM-beads/Images/WhiteBeadChoice.png","","","","","","","","","",""
"image-keyboard-response","152","402770","0.0-3.0-6.0-1.0-2.4","661f0e896898093f2e1e62f7","6662009ae78f21dd82fcd179","66620a27b067d1d8e941ffec","null","","null","","","","","","","","./tasks/HMM-beads/Images/WhiteBeadChoiceCorrect.png","","","","","","","","","",""
"image-keyboard-response","153","403002","0.0-3.0-6.0-1.0-0.5","661f0e896898093f2e1e62f7","6662009ae78f21dd82fcd179","66620a27b067d1d8e941ffec","232","","f","","","","","","","","./tasks/HMM-beads/Images/NewTrialWC.png","lowH","1","5","1","1","1","0","false","",""
"image-keyboard-response","154","403317","0.0-3.0-6.0-1.0-1.5","661f0e896898093f2e1e62f7","6662009ae78f21dd82fcd179","66620a27b067d1d8e941ffec","null","","null","","","","","","","","./tasks/HMM-beads/Images/BlackBeadChoice.png","","","","","","","","","",""
"image-keyboard-response","155","403830","0.0-3.0-6.0-1.0-2.5","661f0e896898093f2e1e62f7","6662009ae78f21dd82fcd179","66620a27b067d1d8e941ffec","null","","null","","","","","","","","./tasks/HMM-beads/Images/BlackBeadChoiceWrong.png","","","","","","","","","",""
"image-keyboard-response","156","404114","0.0-3.0-6.0-1.0-0.6","661f0e896898093f2e1e62f7","6662009ae78f21dd82fcd179","66620a27b067d1d8e941ffec","283","","j","","","","","","","","./tasks/HMM-beads/Images/NewTrialWC.png","lowH","1","6","1","0","1","1","false","",""
"image-keyboard-response","157","404422","0.0-3.0-6.0-1.0-1.6","661f0e896898093f2e1e62f7","6662009ae78f21dd82fcd179","66620a27b067d1d8e941ffec","null","","null","","","","","","","","./tasks/HMM-beads/Images/WhiteBeadChoice.png","","","","","","","","","",""
"image-keyboard-response","158","404936","0.0-3.0-6.0-1.0-2.6","661f0e896898093f2e1e62f7","6662009ae78f21dd82fcd179","66620a27b067d1d8e941ffec","null","","null","","","","","","","","./tasks/HMM-beads/Images/WhiteBeadChoiceWrong.png","","","","","","","","","",""
"image-keyboard-response","159","405668","0.0-3.0-6.0-1.0-0.7","661f0e896898093f2e1e62f7","6662009ae78f21dd82fcd179","66620a27b067d1d8e941ffec","731","","f","","","","","","","","./tasks/HMM-beads/Images/NewTrialBC.png","lowH","1","7","1","1","0","0","false","",""
"image-keyboard-response","160","405983","0.0-3.0-6.0-1.0-1.7","661f0e896898093f2e1e62f7","6662009ae78f21dd82fcd179","66620a27b067d1d8e941ffec","null","","null","","","","","","","","./tasks/HMM-beads/Images/BlackBeadChoice.png","","","","","","","","","",""
"image-keyboard-response","161","406498","0.0-3.0-6.0-1.0-2.7","661f0e896898093f2e1e62f7","6662009ae78f21dd82fcd179","66620a27b067d1d8e941ffec","null","","null","","","","","","","","./tasks/HMM-beads/Images/BlackBeadChoiceWrong.png","","","","","","","","","",""
"image-keyboard-response","162","406593","0.0-3.0-6.0-1.0-0.8","661f0e896898093f2e1e62f7","6662009ae78f21dd82fcd179","66620a27b067d1d8e941ffec","95","","j","","","","","","","","./tasks/HMM-beads/Images/NewTrialWC.png","lowH","1","8","1","1","1","1","true","",""
"image-keyboard-response","163","406902","0.0-3.0-6.0-1.0-1.8","661f0e896898093f2e1e62f7","6662009ae78f21dd82fcd179","66620a27b067d1d8e941ffec","null","","null","","","","","","","","./tasks/HMM-beads/Images/WhiteBeadChoice.png","","","","","","","","","",""
"image-keyboard-response","164","407403","0.0-3.0-6.0-1.0-2.8","661f0e896898093f2e1e62f7","6662009ae78f21dd82fcd179","66620a27b067d1d8e941ffec","null","","null","","","","","","","","./tasks/HMM-beads/Images/WhiteBeadChoiceCorrect.png","","","","","","","","","",""
"image-keyboard-response","165","407736","0.0-3.0-6.0-1.0-0.9","661f0e896898093f2e1e62f7","6662009ae78f21dd82fcd179","66620a27b067d1d8e941ffec","333","","j","","","","","","","","./tasks/HMM-beads/Images/NewTrialWC.png","lowH","1","9","1","1","1","1","true","",""
"image-keyboard-response","166","408049","0.0-3.0-6.0-1.0-1.9","661f0e896898093f2e1e62f7","6662009ae78f21dd82fcd179","66620a27b067d1d8e941ffec","null","","null","","","","","","","","./tasks/HMM-beads/Images/WhiteBeadChoice.png","","","","","","","","","",""
"image-keyboard-response","167","408566","0.0-3.0-6.0-1.0-2.9","661f0e896898093f2e1e62f7","6662009ae78f21dd82fcd179","66620a27b067d1d8e941ffec","null","","null","","","","","","","","./tasks/HMM-beads/Images/WhiteBeadChoiceCorrect.png","","","","","","","","","",""
"image-keyboard-response","168","408779","0.0-3.0-6.0-1.0-0.10","661f0e896898093f2e1e62f7","6662009ae78f21dd82fcd179","66620a27b067d1d8e941ffec","212","","j","","","","","","","","./tasks/HMM-beads/Images/NewTrialWC.png","lowH","1","10","1","1","1","1","true","",""
"image-keyboard-response","169","409082","0.0-3.0-6.0-1.0-1.10","661f0e896898093f2e1e62f7","6662009ae78f21dd82fcd179","66620a27b067d1d8e941ffec","null","","null","","","","","","","","./tasks/HMM-beads/Images/WhiteBeadChoice.png","","","","","","","","","",""
"image-keyboard-response","170","409596","0.0-3.0-6.0-1.0-2.10","661f0e896898093f2e1e62f7","6662009ae78f21dd82fcd179","66620a27b067d1d8e941ffec","null","","null","","","","","","","","./tasks/HMM-beads/Images/WhiteBeadChoiceCorrect.png","","","","","","","","","",""
"image-keyboard-response","171","409665","0.0-3.0-6.0-1.0-0.11","661f0e896898093f2e1e62f7","6662009ae78f21dd82fcd179","66620a27b067d1d8e941ffec","69","","f","","","","","","","","./tasks/HMM-beads/Images/NewTrialWC.png","lowH","1","11","1","1","1","0","false","",""
"image-keyboard-response","172","409971","0.0-3.0-6.0-1.0-1.11","661f0e896898093f2e1e62f7","6662009ae78f21dd82fcd179","66620a27b067d1d8e941ffec","null","","null","","","","","","","","./tasks/HMM-beads/Images/BlackBeadChoice.png","","","","","","","","","",""
"image-keyboard-response","173","410485","0.0-3.0-6.0-1.0-2.11","661f0e896898093f2e1e62f7","6662009ae78f21dd82fcd179","66620a27b067d1d8e941ffec","null","","null","","","","","","","","./tasks/HMM-beads/Images/BlackBeadChoiceWrong.png","","","","","","","","","",""
"image-keyboard-response","174","410941","0.0-3.0-6.0-1.0-0.12","661f0e896898093f2e1e62f7","6662009ae78f21dd82fcd179","66620a27b067d1d8e941ffec","456","","f","","","","","","","","./tasks/HMM-beads/Images/NewTrialWC.png","lowH","1","12","1","1","1","0","false","",""
"image-keyboard-response","175","411250","0.0-3.0-6.0-1.0-1.12","661f0e896898093f2e1e62f7","6662009ae78f21dd82fcd179","66620a27b067d1d8e941ffec","null","","null","","","","","","","","./tasks/HMM-beads/Images/BlackBeadChoice.png","","","","","","","","","",""
"image-keyboard-response","176","411763","0.0-3.0-6.0-1.0-2.12","661f0e896898093f2e1e62f7","6662009ae78f21dd82fcd179","66620a27b067d1d8e941ffec","null","","null","","","","","","","","./tasks/HMM-beads/Images/BlackBeadChoiceWrong.png","","","","","","","","","",""
"image-keyboard-response","177","411919","0.0-3.0-6.0-1.0-0.13","661f0e896898093f2e1e62f7","6662009ae78f21dd82fcd179","66620a27b067d1d8e941ffec","156","","f","","","","","","","","./tasks/HMM-beads/Images/NewTrialWC.png","lowH","1","13","1","0","1","0","true","",""
"image-keyboard-response","178","412228","0.0-3.0-6.0-1.0-1.13","661f0e896898093f2e1e62f7","6662009ae78f21dd82fcd179","66620a27b067d1d8e941ffec","null","","null","","","","","","","","./tasks/HMM-beads/Images/BlackBeadChoice.png","","","","","","","","","",""
"image-keyboard-response","179","412729","0.0-3.0-6.0-1.0-2.13","661f0e896898093f2e1e62f7","6662009ae78f21dd82fcd179","66620a27b067d1d8e941ffec","null","","null","","","","","","","","./tasks/HMM-beads/Images/BlackBeadChoiceCorrect.png","","","","","","","","","",""
"image-keyboard-response","180","413118","0.0-3.0-6.0-1.0-0.14","661f0e896898093f2e1e62f7","6662009ae78f21dd82fcd179","66620a27b067d1d8e941ffec","389","","f","","","","","","","","./tasks/HMM-beads/Images/NewTrialBC.png","lowH","1","14","1","0","0","0","true","",""
"image-keyboard-response","181","413421","0.0-3.0-6.0-1.0-1.14","661f0e896898093f2e1e62f7","6662009ae78f21dd82fcd179","66620a27b067d1d8e941ffec","null","","null","","","","","","","","./tasks/HMM-beads/Images/BlackBeadChoice.png","","","","","","","","","",""
"image-keyboard-response","182","413930","0.0-3.0-6.0-1.0-2.14","661f0e896898093f2e1e62f7","6662009ae78f21dd82fcd179","66620a27b067d1d8e941ffec","null","","null","","","","","","","","./tasks/HMM-beads/Images/BlackBeadChoiceCorrect.png","","","","","","","","","",""
"image-keyboard-response","183","414033","0.0-3.0-6.0-1.0-0.15","661f0e896898093f2e1e62f7","6662009ae78f21dd82fcd179","66620a27b067d1d8e941ffec","103","","j","","","","","","","","./tasks/HMM-beads/Images/NewTrialBC.png","lowH","1","15","1","1","0","1","true","",""
"image-keyboard-response","184","414336","0.0-3.0-6.0-1.0-1.15","661f0e896898093f2e1e62f7","6662009ae78f21dd82fcd179","66620a27b067d1d8e941ffec","null","","null","","","","","","","","./tasks/HMM-beads/Images/WhiteBeadChoice.png","","","","","","","","","",""
"image-keyboard-response","185","414849","0.0-3.0-6.0-1.0-2.15","661f0e896898093f2e1e62f7","6662009ae78f21dd82fcd179","66620a27b067d1d8e941ffec","null","","null","","","","","","","","./tasks/HMM-beads/Images/WhiteBeadChoiceCorrect.png","","","","","","","","","",""
"image-keyboard-response","186","423487","0.0-3.0-6.0-1.0-0.16","661f0e896898093f2e1e62f7","6662009ae78f21dd82fcd179","66620a27b067d1d8e941ffec","8637","","f","","","","","","","","./tasks/HMM-beads/Images/NewTrialWC.png","lowH","1","16","1","1","1","0","false","",""
"image-keyboard-response","187","423795","0.0-3.0-6.0-1.0-1.16","661f0e896898093f2e1e62f7","6662009ae78f21dd82fcd179","66620a27b067d1d8e941ffec","null","","null","","","","","","","","./tasks/HMM-beads/Images/BlackBeadChoice.png","","","","","","","","","",""
"image-keyboard-response","188","424308","0.0-3.0-6.0-1.0-2.16","661f0e896898093f2e1e62f7","6662009ae78f21dd82fcd179","66620a27b067d1d8e941ffec","null","","null","","","","","","","","./tasks/HMM-beads/Images/BlackBeadChoiceWrong.png","","","","","","","","","",""
"image-keyboard-response","189","424682","0.0-3.0-6.0-1.0-0.17","661f0e896898093f2e1e62f7","6662009ae78f21dd82fcd179","66620a27b067d1d8e941ffec","373","","j","","","","","","","","./tasks/HMM-beads/Images/NewTrialWC.png","lowH","1","17","1","1","1","1","true","",""
"image-keyboard-response","190","424995","0.0-3.0-6.0-1.0-1.17","661f0e896898093f2e1e62f7","6662009ae78f21dd82fcd179","66620a27b067d1d8e941ffec","null","","null","","","","","","","","./tasks/HMM-beads/Images/WhiteBeadChoice.png","","","","","","","","","",""
"image-keyboard-response","191","425512","0.0-3.0-6.0-1.0-2.17","661f0e896898093f2e1e62f7","6662009ae78f21dd82fcd179","66620a27b067d1d8e941ffec","null","","null","","","","","","","","./tasks/HMM-beads/Images/WhiteBeadChoiceCorrect.png","","","","","","","","","",""
"image-keyboard-response","192","425800","0.0-3.0-6.0-1.0-0.18","661f0e896898093f2e1e62f7","6662009ae78f21dd82fcd179","66620a27b067d1d8e941ffec","288","","f","","","","","","","","./tasks/HMM-beads/Images/NewTrialWC.png","lowH","1","18","1","1","1","0","false","",""
"image-keyboard-response","193","426106","0.0-3.0-6.0-1.0-1.18","661f0e896898093f2e1e62f7","6662009ae78f21dd82fcd179","66620a27b067d1d8e941ffec","null","","null","","","","","","","","./tasks/HMM-beads/Images/BlackBeadChoice.png","","","","","","","","","",""
"image-keyboard-response","194","426621","0.0-3.0-6.0-1.0-2.18","661f0e896898093f2e1e62f7","6662009ae78f21dd82fcd179","66620a27b067d1d8e941ffec","null","","null","","","","","","","","./tasks/HMM-beads/Images/BlackBeadChoiceWrong.png","","","","","","","","","",""
"image-keyboard-response","195","426782","0.0-3.0-6.0-1.0-0.19","661f0e896898093f2e1e62f7","6662009ae78f21dd82fcd179","66620a27b067d1d8e941ffec","161","","j","","","","","","","","./tasks/HMM-beads/Images/NewTrialWC.png","lowH","1","19","1","1","1","1","true","",""
"image-keyboard-response","196","427087","0.0-3.0-6.0-1.0-1.19","661f0e896898093f2e1e62f7","6662009ae78f21dd82fcd179","66620a27b067d1d8e941ffec","null","","null","","","","","","","","./tasks/HMM-beads/Images/WhiteBeadChoice.png","","","","","","","","","",""
"image-keyboard-response","197","427588","0.0-3.0-6.0-1.0-2.19","661f0e896898093f2e1e62f7","6662009ae78f21dd82fcd179","66620a27b067d1d8e941ffec","null","","null","","","","","","","","./tasks/HMM-beads/Images/WhiteBeadChoiceCorrect.png","","","","","","","","","",""
"image-keyboard-response","198","427699","0.0-3.0-6.0-1.0-0.20","661f0e896898093f2e1e62f7","6662009ae78f21dd82fcd179","66620a27b067d1d8e941ffec","111","","j","","","","","","","","./tasks/HMM-beads/Images/NewTrialWC.png","lowH","1","20","1","1","1","1","true","",""
"image-keyboard-response","199","428007","0.0-3.0-6.0-1.0-1.20","661f0e896898093f2e1e62f7","6662009ae78f21dd82fcd179","66620a27b067d1d8e941ffec","null","","null","","","","","","","","./tasks/HMM-beads/Images/WhiteBeadChoice.png","","","","","","","","","",""
"image-keyboard-response","200","428509","0.0-3.0-6.0-1.0-2.20","661f0e896898093f2e1e62f7","6662009ae78f21dd82fcd179","66620a27b067d1d8e941ffec","null","","null","","","","","","","","./tasks/HMM-beads/Images/WhiteBeadChoiceCorrect.png","","","","","","","","","",""
"image-keyboard-response","201","428728","0.0-3.0-6.0-1.0-0.21","661f0e896898093f2e1e62f7","6662009ae78f21dd82fcd179","66620a27b067d1d8e941ffec","219","","j","","","","","","","","./tasks/HMM-beads/Images/NewTrialWC.png","lowH","1","21","1","1","1","1","true","",""
"image-keyboard-response","202","429043","0.0-3.0-6.0-1.0-1.21","661f0e896898093f2e1e62f7","6662009ae78f21dd82fcd179","66620a27b067d1d8e941ffec","null","","null","","","","","","","","./tasks/HMM-beads/Images/WhiteBeadChoice.png","","","","","","","","","",""
"image-keyboard-response","203","429558","0.0-3.0-6.0-1.0-2.21","661f0e896898093f2e1e62f7","6662009ae78f21dd82fcd179","66620a27b067d1d8e941ffec","null","","null","","","","","","","","./tasks/HMM-beads/Images/WhiteBeadChoiceCorrect.png","","","","","","","","","",""
"image-keyboard-response","204","429687","0.0-3.0-6.0-1.0-0.22","661f0e896898093f2e1e62f7","6662009ae78f21dd82fcd179","66620a27b067d1d8e941ffec","129","","j","","","","","","","","./tasks/HMM-beads/Images/NewTrialWC.png","lowH","1","22","1","1","1","1","true","",""
"image-keyboard-response","205","429998","0.0-3.0-6.0-1.0-1.22","661f0e896898093f2e1e62f7","6662009ae78f21dd82fcd179","66620a27b067d1d8e941ffec","null","","null","","","","","","","","./tasks/HMM-beads/Images/WhiteBeadChoice.png","","","","","","","","","",""
"image-keyboard-response","206","430510","0.0-3.0-6.0-1.0-2.22","661f0e896898093f2e1e62f7","6662009ae78f21dd82fcd179","66620a27b067d1d8e941ffec","null","","null","","","","","","","","./tasks/HMM-beads/Images/WhiteBeadChoiceCorrect.png","","","","","","","","","",""
"image-keyboard-response","207","430760","0.0-3.0-6.0-1.0-0.23","661f0e896898093f2e1e62f7","6662009ae78f21dd82fcd179","66620a27b067d1d8e941ffec","250","","f","","","","","","","","./tasks/HMM-beads/Images/NewTrialWC.png","lowH","1","23","1","1","1","0","false","",""
"image-keyboard-response","208","431072","0.0-3.0-6.0-1.0-1.23","661f0e896898093f2e1e62f7","6662009ae78f21dd82fcd179","66620a27b067d1d8e941ffec","null","","null","","","","","","","","./tasks/HMM-beads/Images/BlackBeadChoice.png","","","","","","","","","",""
"image-keyboard-response","209","431586","0.0-3.0-6.0-1.0-2.23","661f0e896898093f2e1e62f7","6662009ae78f21dd82fcd179","66620a27b067d1d8e941ffec","null","","null","","","","","","","","./tasks/HMM-beads/Images/BlackBeadChoiceWrong.png","","","","","","","","","",""
"image-keyboard-response","210","432077","0.0-3.0-6.0-1.0-0.24","661f0e896898093f2e1e62f7","6662009ae78f21dd82fcd179","66620a27b067d1d8e941ffec","490","","j","","","","","","","","./tasks/HMM-beads/Images/NewTrialWC.png","lowH","1","24","1","0","1","1","false","",""
"image-keyboard-response","211","432381","0.0-3.0-6.0-1.0-1.24","661f0e896898093f2e1e62f7","6662009ae78f21dd82fcd179","66620a27b067d1d8e941ffec","null","","null","","","","","","","","./tasks/HMM-beads/Images/WhiteBeadChoice.png","","","","","","","","","",""
"image-keyboard-response","212","432894","0.0-3.0-6.0-1.0-2.24","661f0e896898093f2e1e62f7","6662009ae78f21dd82fcd179","66620a27b067d1d8e941ffec","null","","null","","","","","","","","./tasks/HMM-beads/Images/WhiteBeadChoiceWrong.png","","","","","","","","","",""
"image-keyboard-response","213","433401","0.0-3.0-6.0-1.0-0.25","661f0e896898093f2e1e62f7","6662009ae78f21dd82fcd179","66620a27b067d1d8e941ffec","506","","f","","","","","","","","./tasks/HMM-beads/Images/NewTrialBC.png","lowH","1","25","1","1","0","0","false","",""
"image-keyboard-response","214","433704","0.0-3.0-6.0-1.0-1.25","661f0e896898093f2e1e62f7","6662009ae78f21dd82fcd179","66620a27b067d1d8e941ffec","null","","null","","","","","","","","./tasks/HMM-beads/Images/BlackBeadChoice.png","","","","","","","","","",""
"image-keyboard-response","215","434220","0.0-3.0-6.0-1.0-2.25","661f0e896898093f2e1e62f7","6662009ae78f21dd82fcd179","66620a27b067d1d8e941ffec","null","","null","","","","","","","","./tasks/HMM-beads/Images/BlackBeadChoiceWrong.png","","","","","","","","","",""
"image-keyboard-response","216","434936","0.0-3.0-6.0-1.0-0.26","661f0e896898093f2e1e62f7","6662009ae78f21dd82fcd179","66620a27b067d1d8e941ffec","715","","f","","","","","","","","./tasks/HMM-beads/Images/NewTrialWC.png","lowH","1","26","1","0","1","0","true","",""
"image-keyboard-response","217","435238","0.0-3.0-6.0-1.0-1.26","661f0e896898093f2e1e62f7","6662009ae78f21dd82fcd179","66620a27b067d1d8e941ffec","null","","null","","","","","","","","./tasks/HMM-beads/Images/BlackBeadChoice.png","","","","","","","","","",""
"image-keyboard-response","218","435739","0.0-3.0-6.0-1.0-2.26","661f0e896898093f2e1e62f7","6662009ae78f21dd82fcd179","66620a27b067d1d8e941ffec","null","","null","","","","","","","","./tasks/HMM-beads/Images/BlackBeadChoiceCorrect.png","","","","","","","","","",""
"image-keyboard-response","219","435880","0.0-3.0-6.0-1.0-0.27","661f0e896898093f2e1e62f7","6662009ae78f21dd82fcd179","66620a27b067d1d8e941ffec","141","","j","","","","","","","","./tasks/HMM-beads/Images/NewTrialBC.png","lowH","1","27","1","1","0","1","true","",""
"image-keyboard-response","220","436193","0.0-3.0-6.0-1.0-1.27","661f0e896898093f2e1e62f7","6662009ae78f21dd82fcd179","66620a27b067d1d8e941ffec","null","","null","","","","","","","","./tasks/HMM-beads/Images/WhiteBeadChoice.png","","","","","","","","","",""
"image-keyboard-response","221","436704","0.0-3.0-6.0-1.0-2.27","661f0e896898093f2e1e62f7","6662009ae78f21dd82fcd179","66620a27b067d1d8e941ffec","null","","null","","","","","","","","./tasks/HMM-beads/Images/WhiteBeadChoiceCorrect.png","","","","","","","","","",""
"image-keyboard-response","222","436891","0.0-3.0-6.0-1.0-0.28","661f0e896898093f2e1e62f7","6662009ae78f21dd82fcd179","66620a27b067d1d8e941ffec","186","","j","","","","","","","","./tasks/HMM-beads/Images/NewTrialWC.png","lowH","1","28","1","1","1","1","true","",""
"image-keyboard-response","223","437203","0.0-3.0-6.0-1.0-1.28","661f0e896898093f2e1e62f7","6662009ae78f21dd82fcd179","66620a27b067d1d8e941ffec","null","","null","","","","","","","","./tasks/HMM-beads/Images/WhiteBeadChoice.png","","","","","","","","","",""
"image-keyboard-response","224","437715","0.0-3.0-6.0-1.0-2.28","661f0e896898093f2e1e62f7","6662009ae78f21dd82fcd179","66620a27b067d1d8e941ffec","null","","null","","","","","","","","./tasks/HMM-beads/Images/WhiteBeadChoiceCorrect.png","","","","","","","","","",""
"image-keyboard-response","225","437722","0.0-3.0-6.0-1.0-0.29","661f0e896898093f2e1e62f7","6662009ae78f21dd82fcd179","66620a27b067d1d8e941ffec","6","","j","","","","","","","","./tasks/HMM-beads/Images/NewTrialWC.png","lowH","1","29","1","1","1","1","true","",""
"image-keyboard-response","226","438039","0.0-3.0-6.0-1.0-1.29","661f0e896898093f2e1e62f7","6662009ae78f21dd82fcd179","66620a27b067d1d8e941ffec","null","","null","","","","","","","","./tasks/HMM-beads/Images/WhiteBeadChoice.png","","","","","","","","","",""
"image-keyboard-response","227","438545","0.0-3.0-6.0-1.0-2.29","661f0e896898093f2e1e62f7","6662009ae78f21dd82fcd179","66620a27b067d1d8e941ffec","null","","null","","","","","","","","./tasks/HMM-beads/Images/WhiteBeadChoiceCorrect.png","","","","","","","","","",""
"image-keyboard-response","228","438608","0.0-3.0-6.0-1.0-0.30","661f0e896898093f2e1e62f7","6662009ae78f21dd82fcd179","66620a27b067d1d8e941ffec","63","","j","","","","","","","","./tasks/HMM-beads/Images/NewTrialWC.png","lowH","1","30","1","1","1","1","true","",""
"image-keyboard-response","229","438920","0.0-3.0-6.0-1.0-1.30","661f0e896898093f2e1e62f7","6662009ae78f21dd82fcd179","66620a27b067d1d8e941ffec","null","","null","","","","","","","","./tasks/HMM-beads/Images/WhiteBeadChoice.png","","","","","","","","","",""
"image-keyboard-response","230","439420","0.0-3.0-6.0-1.0-2.30","661f0e896898093f2e1e62f7","6662009ae78f21dd82fcd179","66620a27b067d1d8e941ffec","null","","null","","","","","","","","./tasks/HMM-beads/Images/WhiteBeadChoiceCorrect.png","","","","","","","","","",""
"image-keyboard-response","231","439471","0.0-3.0-6.0-1.0-0.31","661f0e896898093f2e1e62f7","6662009ae78f21dd82fcd179","66620a27b067d1d8e941ffec","50","","j","","","","","","","","./tasks/HMM-beads/Images/NewTrialWC.png","lowH","1","31","1","1","1","1","true","",""
"image-keyboard-response","232","439779","0.0-3.0-6.0-1.0-1.31","661f0e896898093f2e1e62f7","6662009ae78f21dd82fcd179","66620a27b067d1d8e941ffec","null","","null","","","","","","","","./tasks/HMM-beads/Images/WhiteBeadChoice.png","","","","","","","","","",""
"image-keyboard-response","233","440295","0.0-3.0-6.0-1.0-2.31","661f0e896898093f2e1e62f7","6662009ae78f21dd82fcd179","66620a27b067d1d8e941ffec","null","","null","","","","","","","","./tasks/HMM-beads/Images/WhiteBeadChoiceCorrect.png","","","","","","","","","",""
"image-keyboard-response","234","440354","0.0-3.0-6.0-1.0-0.32","661f0e896898093f2e1e62f7","6662009ae78f21dd82fcd179","66620a27b067d1d8e941ffec","59","","j","","","","","","","","./tasks/HMM-beads/Images/NewTrialWC.png","lowH","1","32","1","1","1","1","true","",""
"image-keyboard-response","235","440666","0.0-3.0-6.0-1.0-1.32","661f0e896898093f2e1e62f7","6662009ae78f21dd82fcd179","66620a27b067d1d8e941ffec","null","","null","","","","","","","","./tasks/HMM-beads/Images/WhiteBeadChoice.png","","","","","","","","","",""
"image-keyboard-response","236","441183","0.0-3.0-6.0-1.0-2.32","661f0e896898093f2e1e62f7","6662009ae78f21dd82fcd179","66620a27b067d1d8e941ffec","null","","null","","","","","","","","./tasks/HMM-beads/Images/WhiteBeadChoiceCorrect.png","","","","","","","","","",""
"image-keyboard-response","237","441225","0.0-3.0-6.0-1.0-0.33","661f0e896898093f2e1e62f7","6662009ae78f21dd82fcd179","66620a27b067d1d8e941ffec","42","","j","","","","","","","","./tasks/HMM-beads/Images/NewTrialWC.png","lowH","1","33","1","1","1","1","true","",""
"image-keyboard-response","238","441540","0.0-3.0-6.0-1.0-1.33","661f0e896898093f2e1e62f7","6662009ae78f21dd82fcd179","66620a27b067d1d8e941ffec","null","","null","","","","","","","","./tasks/HMM-beads/Images/WhiteBeadChoice.png","","","","","","","","","",""
"image-keyboard-response","239","442055","0.0-3.0-6.0-1.0-2.33","661f0e896898093f2e1e62f7","6662009ae78f21dd82fcd179","66620a27b067d1d8e941ffec","null","","null","","","","","","","","./tasks/HMM-beads/Images/WhiteBeadChoiceCorrect.png","","","","","","","","","",""
"image-keyboard-response","240","442169","0.0-3.0-6.0-1.0-0.34","661f0e896898093f2e1e62f7","6662009ae78f21dd82fcd179","66620a27b067d1d8e941ffec","114","","j","","","","","","","","./tasks/HMM-beads/Images/NewTrialWC.png","lowH","1","34","1","1","1","1","true","",""
"image-keyboard-response","241","442476","0.0-3.0-6.0-1.0-1.34","661f0e896898093f2e1e62f7","6662009ae78f21dd82fcd179","66620a27b067d1d8e941ffec","null","","null","","","","","","","","./tasks/HMM-beads/Images/WhiteBeadChoice.png","","","","","","","","","",""
"image-keyboard-response","242","442992","0.0-3.0-6.0-1.0-2.34","661f0e896898093f2e1e62f7","6662009ae78f21dd82fcd179","66620a27b067d1d8e941ffec","null","","null","","","","","","","","./tasks/HMM-beads/Images/WhiteBeadChoiceCorrect.png","","","","","","","","","",""
"image-keyboard-response","243","443048","0.0-3.0-6.0-1.0-0.35","661f0e896898093f2e1e62f7","6662009ae78f21dd82fcd179","66620a27b067d1d8e941ffec","56","","j","","","","","","","","./tasks/HMM-beads/Images/NewTrialWC.png","lowH","1","35","1","1","1","1","true","",""
"image-keyboard-response","244","443352","0.0-3.0-6.0-1.0-1.35","661f0e896898093f2e1e62f7","6662009ae78f21dd82fcd179","66620a27b067d1d8e941ffec","null","","null","","","","","","","","./tasks/HMM-beads/Images/WhiteBeadChoice.png","","","","","","","","","",""
"image-keyboard-response","245","443866","0.0-3.0-6.0-1.0-2.35","661f0e896898093f2e1e62f7","6662009ae78f21dd82fcd179","66620a27b067d1d8e941ffec","null","","null","","","","","","","","./tasks/HMM-beads/Images/WhiteBeadChoiceCorrect.png","","","","","","","","","",""
"image-keyboard-response","246","443946","0.0-3.0-6.0-1.0-0.36","661f0e896898093f2e1e62f7","6662009ae78f21dd82fcd179","66620a27b067d1d8e941ffec","79","","j","","","","","","","","./tasks/HMM-beads/Images/NewTrialWC.png","lowH","1","36","1","1","1","1","true","",""
"image-keyboard-response","247","444256","0.0-3.0-6.0-1.0-1.36","661f0e896898093f2e1e62f7","6662009ae78f21dd82fcd179","66620a27b067d1d8e941ffec","null","","null","","","","","","","","./tasks/HMM-beads/Images/WhiteBeadChoice.png","","","","","","","","","",""
"image-keyboard-response","248","444769","0.0-3.0-6.0-1.0-2.36","661f0e896898093f2e1e62f7","6662009ae78f21dd82fcd179","66620a27b067d1d8e941ffec","null","","null","","","","","","","","./tasks/HMM-beads/Images/WhiteBeadChoiceCorrect.png","","","","","","","","","",""
"image-keyboard-response","249","444917","0.0-3.0-6.0-1.0-0.37","661f0e896898093f2e1e62f7","6662009ae78f21dd82fcd179","66620a27b067d1d8e941ffec","148","","j","","","","","","","","./tasks/HMM-beads/Images/NewTrialWC.png","lowH","1","37","1","1","1","1","true","",""
"image-keyboard-response","250","445225","0.0-3.0-6.0-1.0-1.37","661f0e896898093f2e1e62f7","6662009ae78f21dd82fcd179","66620a27b067d1d8e941ffec","null","","null","","","","","","","","./tasks/HMM-beads/Images/WhiteBeadChoice.png","","","","","","","","","",""
"image-keyboard-response","251","445738","0.0-3.0-6.0-1.0-2.37","661f0e896898093f2e1e62f7","6662009ae78f21dd82fcd179","66620a27b067d1d8e941ffec","null","","null","","","","","","","","./tasks/HMM-beads/Images/WhiteBeadChoiceCorrect.png","","","","","","","","","",""
"image-keyboard-response","252","446995","0.0-3.0-6.0-1.0-0.38","661f0e896898093f2e1e62f7","6662009ae78f21dd82fcd179","66620a27b067d1d8e941ffec","1256","","j","","","","","","","","./tasks/HMM-beads/Images/NewTrialWC.png","lowH","1","38","1","1","1","1","true","",""
"image-keyboard-response","253","447298","0.0-3.0-6.0-1.0-1.38","661f0e896898093f2e1e62f7","6662009ae78f21dd82fcd179","66620a27b067d1d8e941ffec","null","","null","","","","","","","","./tasks/HMM-beads/Images/WhiteBeadChoice.png","","","","","","","","","",""
"image-keyboard-response","254","447811","0.0-3.0-6.0-1.0-2.38","661f0e896898093f2e1e62f7","6662009ae78f21dd82fcd179","66620a27b067d1d8e941ffec","null","","null","","","","","","","","./tasks/HMM-beads/Images/WhiteBeadChoiceCorrect.png","","","","","","","","","",""
"image-keyboard-response","255","447992","0.0-3.0-6.0-1.0-0.39","661f0e896898093f2e1e62f7","6662009ae78f21dd82fcd179","66620a27b067d1d8e941ffec","180","","j","","","","","","","","./tasks/HMM-beads/Images/NewTrialWC.png","lowH","1","39","1","1","1","1","true","",""
"image-keyboard-response","256","448293","0.0-3.0-6.0-1.0-1.39","661f0e896898093f2e1e62f7","6662009ae78f21dd82fcd179","66620a27b067d1d8e941ffec","null","","null","","","","","","","","./tasks/HMM-beads/Images/WhiteBeadChoice.png","","","","","","","","","",""
"image-keyboard-response","257","448808","0.0-3.0-6.0-1.0-2.39","661f0e896898093f2e1e62f7","6662009ae78f21dd82fcd179","66620a27b067d1d8e941ffec","null","","null","","","","","","","","./tasks/HMM-beads/Images/WhiteBeadChoiceCorrect.png","","","","","","","","","",""
"image-keyboard-response","258","448954","0.0-3.0-6.0-1.0-0.40","661f0e896898093f2e1e62f7","6662009ae78f21dd82fcd179","66620a27b067d1d8e941ffec","145","","j","","","","","","","","./tasks/HMM-beads/Images/NewTrialWC.png","lowH","1","40","1","1","1","1","true","",""
"image-keyboard-response","259","449260","0.0-3.0-6.0-1.0-1.40","661f0e896898093f2e1e62f7","6662009ae78f21dd82fcd179","66620a27b067d1d8e941ffec","null","","null","","","","","","","","./tasks/HMM-beads/Images/WhiteBeadChoice.png","","","","","","","","","",""
"image-keyboard-response","260","449777","0.0-3.0-6.0-1.0-2.40","661f0e896898093f2e1e62f7","6662009ae78f21dd82fcd179","66620a27b067d1d8e941ffec","null","","null","","","","","","","","./tasks/HMM-beads/Images/WhiteBeadChoiceCorrect.png","","","","","","","","","",""
"image-keyboard-response","261","449937","0.0-3.0-6.0-1.0-0.41","661f0e896898093f2e1e62f7","6662009ae78f21dd82fcd179","66620a27b067d1d8e941ffec","159","","j","","","","","","","","./tasks/HMM-beads/Images/NewTrialWC.png","lowH","1","41","1","1","1","1","true","",""
"image-keyboard-response","262","450244","0.0-3.0-6.0-1.0-1.41","661f0e896898093f2e1e62f7","6662009ae78f21dd82fcd179","66620a27b067d1d8e941ffec","null","","null","","","","","","","","./tasks/HMM-beads/Images/WhiteBeadChoice.png","","","","","","","","","",""
"image-keyboard-response","263","450758","0.0-3.0-6.0-1.0-2.41","661f0e896898093f2e1e62f7","6662009ae78f21dd82fcd179","66620a27b067d1d8e941ffec","null","","null","","","","","","","","./tasks/HMM-beads/Images/WhiteBeadChoiceCorrect.png","","","","","","","","","",""
"image-keyboard-response","264","450817","0.0-3.0-6.0-1.0-0.42","661f0e896898093f2e1e62f7","6662009ae78f21dd82fcd179","66620a27b067d1d8e941ffec","57","","f","","","","","","","","./tasks/HMM-beads/Images/NewTrialWC.png","lowH","1","42","1","1","1","0","false","",""
"image-keyboard-response","265","451118","0.0-3.0-6.0-1.0-1.42","661f0e896898093f2e1e62f7","6662009ae78f21dd82fcd179","66620a27b067d1d8e941ffec","null","","null","","","","","","","","./tasks/HMM-beads/Images/BlackBeadChoice.png","","","","","","","","","",""
"image-keyboard-response","266","451630","0.0-3.0-6.0-1.0-2.42","661f0e896898093f2e1e62f7","6662009ae78f21dd82fcd179","66620a27b067d1d8e941ffec","null","","null","","","","","","","","./tasks/HMM-beads/Images/BlackBeadChoiceWrong.png","","","","","","","","","",""
"image-keyboard-response","267","451901","0.0-3.0-6.0-1.0-0.43","661f0e896898093f2e1e62f7","6662009ae78f21dd82fcd179","66620a27b067d1d8e941ffec","270","","f","","","","","","","","./tasks/HMM-beads/Images/NewTrialWC.png","lowH","1","43","1","1","1","0","false","",""
"image-keyboard-response","268","452211","0.0-3.0-6.0-1.0-1.43","661f0e896898093f2e1e62f7","6662009ae78f21dd82fcd179","66620a27b067d1d8e941ffec","null","","null","","","","","","","","./tasks/HMM-beads/Images/BlackBeadChoice.png","","","","","","","","","",""
"image-keyboard-response","269","452725","0.0-3.0-6.0-1.0-2.43","661f0e896898093f2e1e62f7","6662009ae78f21dd82fcd179","66620a27b067d1d8e941ffec","null","","null","","","","","","","","./tasks/HMM-beads/Images/BlackBeadChoiceWrong.png","","","","","","","","","",""
"image-keyboard-response","270","452964","0.0-3.0-6.0-1.0-0.44","661f0e896898093f2e1e62f7","6662009ae78f21dd82fcd179","66620a27b067d1d8e941ffec","238","","j","","","","","","","","./tasks/HMM-beads/Images/NewTrialWC.png","lowH","1","44","1","1","1","1","true","",""
"image-keyboard-response","271","453270","0.0-3.0-6.0-1.0-1.44","661f0e896898093f2e1e62f7","6662009ae78f21dd82fcd179","66620a27b067d1d8e941ffec","null","","null","","","","","","","","./tasks/HMM-beads/Images/WhiteBeadChoice.png","","","","","","","","","",""
"image-keyboard-response","272","453784","0.0-3.0-6.0-1.0-2.44","661f0e896898093f2e1e62f7","6662009ae78f21dd82fcd179","66620a27b067d1d8e941ffec","null","","null","","","","","","","","./tasks/HMM-beads/Images/WhiteBeadChoiceCorrect.png","","","","","","","","","",""
"image-keyboard-response","273","454026","0.0-3.0-6.0-1.0-0.45","661f0e896898093f2e1e62f7","6662009ae78f21dd82fcd179","66620a27b067d1d8e941ffec","241","","j","","","","","","","","./tasks/HMM-beads/Images/NewTrialWC.png","lowH","1","45","1","1","1","1","true","",""
"image-keyboard-response","274","454329","0.0-3.0-6.0-1.0-1.45","661f0e896898093f2e1e62f7","6662009ae78f21dd82fcd179","66620a27b067d1d8e941ffec","null","","null","","","","","","","","./tasks/HMM-beads/Images/WhiteBeadChoice.png","","","","","","","","","",""
"image-keyboard-response","275","454843","0.0-3.0-6.0-1.0-2.45","661f0e896898093f2e1e62f7","6662009ae78f21dd82fcd179","66620a27b067d1d8e941ffec","null","","null","","","","","","","","./tasks/HMM-beads/Images/WhiteBeadChoiceCorrect.png","","","","","","","","","",""
"image-keyboard-response","276","455035","0.0-3.0-6.0-1.0-0.46","661f0e896898093f2e1e62f7","6662009ae78f21dd82fcd179","66620a27b067d1d8e941ffec","191","","j","","","","","","","","./tasks/HMM-beads/Images/NewTrialWC.png","lowH","1","46","1","1","1","1","true","",""
"image-keyboard-response","277","455342","0.0-3.0-6.0-1.0-1.46","661f0e896898093f2e1e62f7","6662009ae78f21dd82fcd179","66620a27b067d1d8e941ffec","null","","null","","","","","","","","./tasks/HMM-beads/Images/WhiteBeadChoice.png","","","","","","","","","",""
"image-keyboard-response","278","455857","0.0-3.0-6.0-1.0-2.46","661f0e896898093f2e1e62f7","6662009ae78f21dd82fcd179","66620a27b067d1d8e941ffec","null","","null","","","","","","","","./tasks/HMM-beads/Images/WhiteBeadChoiceCorrect.png","","","","","","","","","",""
"image-keyboard-response","279","455967","0.0-3.0-6.0-1.0-0.47","661f0e896898093f2e1e62f7","6662009ae78f21dd82fcd179","66620a27b067d1d8e941ffec","110","","j","","","","","","","","./tasks/HMM-beads/Images/NewTrialWC.png","lowH","1","47","1","0","1","1","false","",""
"image-keyboard-response","280","456277","0.0-3.0-6.0-1.0-1.47","661f0e896898093f2e1e62f7","6662009ae78f21dd82fcd179","66620a27b067d1d8e941ffec","null","","null","","","","","","","","./tasks/HMM-beads/Images/WhiteBeadChoice.png","","","","","","","","","",""
"image-keyboard-response","281","456791","0.0-3.0-6.0-1.0-2.47","661f0e896898093f2e1e62f7","6662009ae78f21dd82fcd179","66620a27b067d1d8e941ffec","null","","null","","","","","","","","./tasks/HMM-beads/Images/WhiteBeadChoiceWrong.png","","","","","","","","","",""
"image-keyboard-response","282","457386","0.0-3.0-6.0-1.0-0.48","661f0e896898093f2e1e62f7","6662009ae78f21dd82fcd179","66620a27b067d1d8e941ffec","594","","f","","","","","","","","./tasks/HMM-beads/Images/NewTrialBC.png","lowH","1","48","1","0","0","0","true","",""
"image-keyboard-response","283","457698","0.0-3.0-6.0-1.0-1.48","661f0e896898093f2e1e62f7","6662009ae78f21dd82fcd179","66620a27b067d1d8e941ffec","null","","null","","","","","","","","./tasks/HMM-beads/Images/BlackBeadChoice.png","","","","","","","","","",""
"image-keyboard-response","284","458214","0.0-3.0-6.0-1.0-2.48","661f0e896898093f2e1e62f7","6662009ae78f21dd82fcd179","66620a27b067d1d8e941ffec","null","","null","","","","","","","","./tasks/HMM-beads/Images/BlackBeadChoiceCorrect.png","","","","","","","","","",""
"image-keyboard-response","285","458305","0.0-3.0-6.0-1.0-0.49","661f0e896898093f2e1e62f7","6662009ae78f21dd82fcd179","66620a27b067d1d8e941ffec","90","","f","","","","","","","","./tasks/HMM-beads/Images/NewTrialBC.png","lowH","1","49","1","0","0","0","true","",""
"image-keyboard-response","286","458619","0.0-3.0-6.0-1.0-1.49","661f0e896898093f2e1e62f7","6662009ae78f21dd82fcd179","66620a27b067d1d8e941ffec","null","","null","","","","","","","","./tasks/HMM-beads/Images/BlackBeadChoice.png","","","","","","","","","",""
"image-keyboard-response","287","459132","0.0-3.0-6.0-1.0-2.49","661f0e896898093f2e1e62f7","6662009ae78f21dd82fcd179","66620a27b067d1d8e941ffec","null","","null","","","","","","","","./tasks/HMM-beads/Images/BlackBeadChoiceCorrect.png","","","","","","","","","",""
"image-keyboard-response","288","459179","0.0-3.0-6.0-1.0-0.50","661f0e896898093f2e1e62f7","6662009ae78f21dd82fcd179","66620a27b067d1d8e941ffec","46","","f","","","","","","","","./tasks/HMM-beads/Images/NewTrialBC.png","lowH","1","50","1","1","0","0","false","",""
"image-keyboard-response","289","459490","0.0-3.0-6.0-1.0-1.50","661f0e896898093f2e1e62f7","6662009ae78f21dd82fcd179","66620a27b067d1d8e941ffec","null","","null","","","","","","","","./tasks/HMM-beads/Images/BlackBeadChoice.png","","","","","","","","","",""
"image-keyboard-response","290","460004","0.0-3.0-6.0-1.0-2.50","661f0e896898093f2e1e62f7","6662009ae78f21dd82fcd179","66620a27b067d1d8e941ffec","null","","null","","","","","","","","./tasks/HMM-beads/Images/BlackBeadChoiceWrong.png","","","","","","","","","",""
"image-keyboard-response","291","460499","0.0-3.0-6.0-1.0-0.51","661f0e896898093f2e1e62f7","6662009ae78f21dd82fcd179","66620a27b067d1d8e941ffec","494","","j","","","","","","","","./tasks/HMM-beads/Images/NewTrialWC.png","lowH","1","51","1","1","1","1","true","",""
"image-keyboard-response","292","460812","0.0-3.0-6.0-1.0-1.51","661f0e896898093f2e1e62f7","6662009ae78f21dd82fcd179","66620a27b067d1d8e941ffec","null","","null","","","","","","","","./tasks/HMM-beads/Images/WhiteBeadChoice.png","","","","","","","","","",""
"image-keyboard-response","293","461326","0.0-3.0-6.0-1.0-2.51","661f0e896898093f2e1e62f7","6662009ae78f21dd82fcd179","66620a27b067d1d8e941ffec","null","","null","","","","","","","","./tasks/HMM-beads/Images/WhiteBeadChoiceCorrect.png","","","","","","","","","",""
"image-keyboard-response","294","461526","0.0-3.0-6.0-1.0-0.52","661f0e896898093f2e1e62f7","6662009ae78f21dd82fcd179","66620a27b067d1d8e941ffec","199","","j","","","","","","","","./tasks/HMM-beads/Images/NewTrialWC.png","lowH","1","52","1","1","1","1","true","",""
"image-keyboard-response","295","461840","0.0-3.0-6.0-1.0-1.52","661f0e896898093f2e1e62f7","6662009ae78f21dd82fcd179","66620a27b067d1d8e941ffec","null","","null","","","","","","","","./tasks/HMM-beads/Images/WhiteBeadChoice.png","","","","","","","","","",""
"image-keyboard-response","296","462354","0.0-3.0-6.0-1.0-2.52","661f0e896898093f2e1e62f7","6662009ae78f21dd82fcd179","66620a27b067d1d8e941ffec","null","","null","","","","","","","","./tasks/HMM-beads/Images/WhiteBeadChoiceCorrect.png","","","","","","","","","",""
"image-keyboard-response","297","462470","0.0-3.0-6.0-1.0-0.53","661f0e896898093f2e1e62f7","6662009ae78f21dd82fcd179","66620a27b067d1d8e941ffec","115","","j","","","","","","","","./tasks/HMM-beads/Images/NewTrialWC.png","lowH","1","53","1","1","1","1","true","",""
"image-keyboard-response","298","462778","0.0-3.0-6.0-1.0-1.53","661f0e896898093f2e1e62f7","6662009ae78f21dd82fcd179","66620a27b067d1d8e941ffec","null","","null","","","","","","","","./tasks/HMM-beads/Images/WhiteBeadChoice.png","","","","","","","","","",""
"image-keyboard-response","299","463290","0.0-3.0-6.0-1.0-2.53","661f0e896898093f2e1e62f7","6662009ae78f21dd82fcd179","66620a27b067d1d8e941ffec","null","","null","","","","","","","","./tasks/HMM-beads/Images/WhiteBeadChoiceCorrect.png","","","","","","","","","",""
"image-keyboard-response","300","463374","0.0-3.0-6.0-1.0-0.54","661f0e896898093f2e1e62f7","6662009ae78f21dd82fcd179","66620a27b067d1d8e941ffec","83","","j","","","","","","","","./tasks/HMM-beads/Images/NewTrialWC.png","lowH","1","54","1","1","1","1","true","",""
"image-keyboard-response","301","463680","0.0-3.0-6.0-1.0-1.54","661f0e896898093f2e1e62f7","6662009ae78f21dd82fcd179","66620a27b067d1d8e941ffec","null","","null","","","","","","","","./tasks/HMM-beads/Images/WhiteBeadChoice.png","","","","","","","","","",""
"image-keyboard-response","302","464196","0.0-3.0-6.0-1.0-2.54","661f0e896898093f2e1e62f7","6662009ae78f21dd82fcd179","66620a27b067d1d8e941ffec","null","","null","","","","","","","","./tasks/HMM-beads/Images/WhiteBeadChoiceCorrect.png","","","","","","","","","",""
"image-keyboard-response","303","464236","0.0-3.0-6.0-1.0-0.55","661f0e896898093f2e1e62f7","6662009ae78f21dd82fcd179","66620a27b067d1d8e941ffec","39","","j","","","","","","","","./tasks/HMM-beads/Images/NewTrialWC.png","lowH","1","55","1","1","1","1","true","",""
"image-keyboard-response","304","464537","0.0-3.0-6.0-1.0-1.55","661f0e896898093f2e1e62f7","6662009ae78f21dd82fcd179","66620a27b067d1d8e941ffec","null","","null","","","","","","","","./tasks/HMM-beads/Images/WhiteBeadChoice.png","","","","","","","","","",""
"image-keyboard-response","305","465050","0.0-3.0-6.0-1.0-2.55","661f0e896898093f2e1e62f7","6662009ae78f21dd82fcd179","66620a27b067d1d8e941ffec","null","","null","","","","","","","","./tasks/HMM-beads/Images/WhiteBeadChoiceCorrect.png","","","","","","","","","",""
"image-keyboard-response","306","465090","0.0-3.0-6.0-1.0-0.56","661f0e896898093f2e1e62f7","6662009ae78f21dd82fcd179","66620a27b067d1d8e941ffec","39","","j","","","","","","","","./tasks/HMM-beads/Images/NewTrialWC.png","lowH","1","56","1","1","1","1","true","",""
"image-keyboard-response","307","465395","0.0-3.0-6.0-1.0-1.56","661f0e896898093f2e1e62f7","6662009ae78f21dd82fcd179","66620a27b067d1d8e941ffec","null","","null","","","","","","","","./tasks/HMM-beads/Images/WhiteBeadChoice.png","","","","","","","","","",""
"image-keyboard-response","308","465909","0.0-3.0-6.0-1.0-2.56","661f0e896898093f2e1e62f7","6662009ae78f21dd82fcd179","66620a27b067d1d8e941ffec","null","","null","","","","","","","","./tasks/HMM-beads/Images/WhiteBeadChoiceCorrect.png","","","","","","","","","",""
"image-keyboard-response","309","471591","0.0-3.0-6.0-1.0-0.57","661f0e896898093f2e1e62f7","6662009ae78f21dd82fcd179","66620a27b067d1d8e941ffec","5681","","j","","","","","","","","./tasks/HMM-beads/Images/NewTrialWC.png","lowH","1","57","1","1","1","1","true","",""
"image-keyboard-response","310","471904","0.0-3.0-6.0-1.0-1.57","661f0e896898093f2e1e62f7","6662009ae78f21dd82fcd179","66620a27b067d1d8e941ffec","null","","null","","","","","","","","./tasks/HMM-beads/Images/WhiteBeadChoice.png","","","","","","","","","",""
"image-keyboard-response","311","472418","0.0-3.0-6.0-1.0-2.57","661f0e896898093f2e1e62f7","6662009ae78f21dd82fcd179","66620a27b067d1d8e941ffec","null","","null","","","","","","","","./tasks/HMM-beads/Images/WhiteBeadChoiceCorrect.png","","","","","","","","","",""
"image-keyboard-response","312","472543","0.0-3.0-6.0-1.0-0.58","661f0e896898093f2e1e62f7","6662009ae78f21dd82fcd179","66620a27b067d1d8e941ffec","124","","j","","","","","","","","./tasks/HMM-beads/Images/NewTrialWC.png","lowH","1","58","1","1","1","1","true","",""
"image-keyboard-response","313","472854","0.0-3.0-6.0-1.0-1.58","661f0e896898093f2e1e62f7","6662009ae78f21dd82fcd179","66620a27b067d1d8e941ffec","null","","null","","","","","","","","./tasks/HMM-beads/Images/WhiteBeadChoice.png","","","","","","","","","",""
"image-keyboard-response","314","473368","0.0-3.0-6.0-1.0-2.58","661f0e896898093f2e1e62f7","6662009ae78f21dd82fcd179","66620a27b067d1d8e941ffec","null","","null","","","","","","","","./tasks/HMM-beads/Images/WhiteBeadChoiceCorrect.png","","","","","","","","","",""
"image-keyboard-response","315","473376","0.0-3.0-6.0-1.0-0.59","661f0e896898093f2e1e62f7","6662009ae78f21dd82fcd179","66620a27b067d1d8e941ffec","7","","j","","","","","","","","./tasks/HMM-beads/Images/NewTrialWC.png","lowH","1","59","1","0","1","1","false","",""
"image-keyboard-response","316","473681","0.0-3.0-6.0-1.0-1.59","661f0e896898093f2e1e62f7","6662009ae78f21dd82fcd179","66620a27b067d1d8e941ffec","null","","null","","","","","","","","./tasks/HMM-beads/Images/WhiteBeadChoice.png","","","","","","","","","",""
"image-keyboard-response","317","474184","0.0-3.0-6.0-1.0-2.59","661f0e896898093f2e1e62f7","6662009ae78f21dd82fcd179","66620a27b067d1d8e941ffec","null","","null","","","","","","","","./tasks/HMM-beads/Images/WhiteBeadChoiceWrong.png","","","","","","","","","",""
"image-keyboard-response","318","474377","0.0-3.0-6.0-1.0-0.60","661f0e896898093f2e1e62f7","6662009ae78f21dd82fcd179","66620a27b067d1d8e941ffec","192","","f","","","","","","","","./tasks/HMM-beads/Images/NewTrialBC.png","lowH","1","60","1","1","0","0","false","",""
"image-keyboard-response","319","474683","0.0-3.0-6.0-1.0-1.60","661f0e896898093f2e1e62f7","6662009ae78f21dd82fcd179","66620a27b067d1d8e941ffec","null","","null","","","","","","","","./tasks/HMM-beads/Images/BlackBeadChoice.png","","","","","","","","","",""
"image-keyboard-response","320","475197","0.0-3.0-6.0-1.0-2.60","661f0e896898093f2e1e62f7","6662009ae78f21dd82fcd179","66620a27b067d1d8e941ffec","null","","null","","","","","","","","./tasks/HMM-beads/Images/BlackBeadChoiceWrong.png","","","","","","","","","",""
"image-keyboard-response","321","475652","0.0-3.0-6.0-1.0-0.61","661f0e896898093f2e1e62f7","6662009ae78f21dd82fcd179","66620a27b067d1d8e941ffec","454","","j","","","","","","","","./tasks/HMM-beads/Images/NewTrialWC.png","lowH","1","61","1","1","1","1","true","",""
"image-keyboard-response","322","475962","0.0-3.0-6.0-1.0-1.61","661f0e896898093f2e1e62f7","6662009ae78f21dd82fcd179","66620a27b067d1d8e941ffec","null","","null","","","","","","","","./tasks/HMM-beads/Images/WhiteBeadChoice.png","","","","","","","","","",""
"image-keyboard-response","323","476476","0.0-3.0-6.0-1.0-2.61","661f0e896898093f2e1e62f7","6662009ae78f21dd82fcd179","66620a27b067d1d8e941ffec","null","","null","","","","","","","","./tasks/HMM-beads/Images/WhiteBeadChoiceCorrect.png","","","","","","","","","",""
"image-keyboard-response","324","476566","0.0-3.0-6.0-1.0-0.62","661f0e896898093f2e1e62f7","6662009ae78f21dd82fcd179","66620a27b067d1d8e941ffec","89","","j","","","","","","","","./tasks/HMM-beads/Images/NewTrialWC.png","lowH","1","62","1","0","1","1","false","",""
"image-keyboard-response","325","476868","0.0-3.0-6.0-1.0-1.62","661f0e896898093f2e1e62f7","6662009ae78f21dd82fcd179","66620a27b067d1d8e941ffec","null","","null","","","","","","","","./tasks/HMM-beads/Images/WhiteBeadChoice.png","","","","","","","","","",""
"image-keyboard-response","326","477378","0.0-3.0-6.0-1.0-2.62","661f0e896898093f2e1e62f7","6662009ae78f21dd82fcd179","66620a27b067d1d8e941ffec","null","","null","","","","","","","","./tasks/HMM-beads/Images/WhiteBeadChoiceWrong.png","","","","","","","","","",""
"image-keyboard-response","327","477689","0.0-3.0-6.0-1.0-0.63","661f0e896898093f2e1e62f7","6662009ae78f21dd82fcd179","66620a27b067d1d8e941ffec","310","","j","","","","","","","","./tasks/HMM-beads/Images/NewTrialBC.png","lowH","1","63","1","1","0","1","true","",""
"image-keyboard-response","328","478002","0.0-3.0-6.0-1.0-1.63","661f0e896898093f2e1e62f7","6662009ae78f21dd82fcd179","66620a27b067d1d8e941ffec","null","","null","","","","","","","","./tasks/HMM-beads/Images/WhiteBeadChoice.png","","","","","","","","","",""
"image-keyboard-response","329","478516","0.0-3.0-6.0-1.0-2.63","661f0e896898093f2e1e62f7","6662009ae78f21dd82fcd179","66620a27b067d1d8e941ffec","null","","null","","","","","","","","./tasks/HMM-beads/Images/WhiteBeadChoiceCorrect.png","","","","","","","","","",""
"image-keyboard-response","330","478616","0.0-3.0-6.0-1.0-0.64","661f0e896898093f2e1e62f7","6662009ae78f21dd82fcd179","66620a27b067d1d8e941ffec","99","","j","","","","","","","","./tasks/HMM-beads/Images/NewTrialWC.png","lowH","1","64","1","1","1","1","true","",""
"image-keyboard-response","331","478920","0.0-3.0-6.0-1.0-1.64","661f0e896898093f2e1e62f7","6662009ae78f21dd82fcd179","66620a27b067d1d8e941ffec","null","","null","","","","","","","","./tasks/HMM-beads/Images/WhiteBeadChoice.png","","","","","","","","","",""
"image-keyboard-response","332","479435","0.0-3.0-6.0-1.0-2.64","661f0e896898093f2e1e62f7","6662009ae78f21dd82fcd179","66620a27b067d1d8e941ffec","null","","null","","","","","","","","./tasks/HMM-beads/Images/WhiteBeadChoiceCorrect.png","","","","","","","","","",""
"image-keyboard-response","333","479503","0.0-3.0-6.0-1.0-0.65","661f0e896898093f2e1e62f7","6662009ae78f21dd82fcd179","66620a27b067d1d8e941ffec","67","","j","","","","","","","","./tasks/HMM-beads/Images/NewTrialWC.png","lowH","1","65","1","1","1","1","true","",""
"image-keyboard-response","334","479811","0.0-3.0-6.0-1.0-1.65","661f0e896898093f2e1e62f7","6662009ae78f21dd82fcd179","66620a27b067d1d8e941ffec","null","","null","","","","","","","","./tasks/HMM-beads/Images/WhiteBeadChoice.png","","","","","","","","","",""
"image-keyboard-response","335","480313","0.0-3.0-6.0-1.0-2.65","661f0e896898093f2e1e62f7","6662009ae78f21dd82fcd179","66620a27b067d1d8e941ffec","null","","null","","","","","","","","./tasks/HMM-beads/Images/WhiteBeadChoiceCorrect.png","","","","","","","","","",""
"image-keyboard-response","336","480402","0.0-3.0-6.0-1.0-0.66","661f0e896898093f2e1e62f7","6662009ae78f21dd82fcd179","66620a27b067d1d8e941ffec","88","","j","","","","","","","","./tasks/HMM-beads/Images/NewTrialWC.png","lowH","1","66","1","1","1","1","true","",""
"image-keyboard-response","337","480703","0.0-3.0-6.0-1.0-1.66","661f0e896898093f2e1e62f7","6662009ae78f21dd82fcd179","66620a27b067d1d8e941ffec","null","","null","","","","","","","","./tasks/HMM-beads/Images/WhiteBeadChoice.png","","","","","","","","","",""
"image-keyboard-response","338","481218","0.0-3.0-6.0-1.0-2.66","661f0e896898093f2e1e62f7","6662009ae78f21dd82fcd179","66620a27b067d1d8e941ffec","null","","null","","","","","","","","./tasks/HMM-beads/Images/WhiteBeadChoiceCorrect.png","","","","","","","","","",""
"image-keyboard-response","339","481321","0.0-3.0-6.0-1.0-0.67","661f0e896898093f2e1e62f7","6662009ae78f21dd82fcd179","66620a27b067d1d8e941ffec","102","","j","","","","","","","","./tasks/HMM-beads/Images/NewTrialWC.png","lowH","1","67","1","0","1","1","false","",""
"image-keyboard-response","340","481625","0.0-3.0-6.0-1.0-1.67","661f0e896898093f2e1e62f7","6662009ae78f21dd82fcd179","66620a27b067d1d8e941ffec","null","","null","","","","","","","","./tasks/HMM-beads/Images/WhiteBeadChoice.png","","","","","","","","","",""
"image-keyboard-response","341","482136","0.0-3.0-6.0-1.0-2.67","661f0e896898093f2e1e62f7","6662009ae78f21dd82fcd179","66620a27b067d1d8e941ffec","null","","null","","","","","","","","./tasks/HMM-beads/Images/WhiteBeadChoiceWrong.png","","","","","","","","","",""
"image-keyboard-response","342","483221","0.0-3.0-6.0-1.0-0.68","661f0e896898093f2e1e62f7","6662009ae78f21dd82fcd179","66620a27b067d1d8e941ffec","1084","","j","","","","","","","","./tasks/HMM-beads/Images/NewTrialBC.png","lowH","1","68","1","1","0","1","true","",""
"image-keyboard-response","343","483526","0.0-3.0-6.0-1.0-1.68","661f0e896898093f2e1e62f7","6662009ae78f21dd82fcd179","66620a27b067d1d8e941ffec","null","","null","","","","","","","","./tasks/HMM-beads/Images/WhiteBeadChoice.png","","","","","","","","","",""
"image-keyboard-response","344","484041","0.0-3.0-6.0-1.0-2.68","661f0e896898093f2e1e62f7","6662009ae78f21dd82fcd179","66620a27b067d1d8e941ffec","null","","null","","","","","","","","./tasks/HMM-beads/Images/WhiteBeadChoiceCorrect.png","","","","","","","","","",""
"image-keyboard-response","345","484514","0.0-3.0-6.0-1.0-0.69","661f0e896898093f2e1e62f7","6662009ae78f21dd82fcd179","66620a27b067d1d8e941ffec","472","","j","","","","","","","","./tasks/HMM-beads/Images/NewTrialWC.png","lowH","1","69","0","1","1","1","true","",""
"image-keyboard-response","346","484821","0.0-3.0-6.0-1.0-1.69","661f0e896898093f2e1e62f7","6662009ae78f21dd82fcd179","66620a27b067d1d8e941ffec","null","","null","","","","","","","","./tasks/HMM-beads/Images/WhiteBeadChoice.png","","","","","","","","","",""
"image-keyboard-response","347","485322","0.0-3.0-6.0-1.0-2.69","661f0e896898093f2e1e62f7","6662009ae78f21dd82fcd179","66620a27b067d1d8e941ffec","null","","null","","","","","","","","./tasks/HMM-beads/Images/WhiteBeadChoiceCorrect.png","","","","","","","","","",""
"image-keyboard-response","348","485443","0.0-3.0-6.0-1.0-0.70","661f0e896898093f2e1e62f7","6662009ae78f21dd82fcd179","66620a27b067d1d8e941ffec","120","","j","","","","","","","","./tasks/HMM-beads/Images/NewTrialWC.png","lowH","1","70","0","1","1","1","true","",""
"image-keyboard-response","349","485757","0.0-3.0-6.0-1.0-1.70","661f0e896898093f2e1e62f7","6662009ae78f21dd82fcd179","66620a27b067d1d8e941ffec","null","","null","","","","","","","","./tasks/HMM-beads/Images/WhiteBeadChoice.png","","","","","","","","","",""
"image-keyboard-response","350","486258","0.0-3.0-6.0-1.0-2.70","661f0e896898093f2e1e62f7","6662009ae78f21dd82fcd179","66620a27b067d1d8e941ffec","null","","null","","","","","","","","./tasks/HMM-beads/Images/WhiteBeadChoiceCorrect.png","","","","","","","","","",""
"image-keyboard-response","351","486288","0.0-3.0-6.0-1.0-0.71","661f0e896898093f2e1e62f7","6662009ae78f21dd82fcd179","66620a27b067d1d8e941ffec","29","","j","","","","","","","","./tasks/HMM-beads/Images/NewTrialWC.png","lowH","1","71","0","0","1","1","false","",""
"image-keyboard-response","352","486600","0.0-3.0-6.0-1.0-1.71","661f0e896898093f2e1e62f7","6662009ae78f21dd82fcd179","66620a27b067d1d8e941ffec","null","","null","","","","","","","","./tasks/HMM-beads/Images/WhiteBeadChoice.png","","","","","","","","","",""
"image-keyboard-response","353","487115","0.0-3.0-6.0-1.0-2.71","661f0e896898093f2e1e62f7","6662009ae78f21dd82fcd179","66620a27b067d1d8e941ffec","null","","null","","","","","","","","./tasks/HMM-beads/Images/WhiteBeadChoiceWrong.png","","","","","","","","","",""
"image-keyboard-response","354","487186","0.0-3.0-6.0-1.0-0.72","661f0e896898093f2e1e62f7","6662009ae78f21dd82fcd179","66620a27b067d1d8e941ffec","70","","j","","","","","","","","./tasks/HMM-beads/Images/NewTrialBC.png","lowH","1","72","0","0","0","1","false","",""
"image-keyboard-response","355","487489","0.0-3.0-6.0-1.0-1.72","661f0e896898093f2e1e62f7","6662009ae78f21dd82fcd179","66620a27b067d1d8e941ffec","null","","null","","","","","","","","./tasks/HMM-beads/Images/WhiteBeadChoice.png","","","","","","","","","",""
"image-keyboard-response","356","487994","0.0-3.0-6.0-1.0-2.72","661f0e896898093f2e1e62f7","6662009ae78f21dd82fcd179","66620a27b067d1d8e941ffec","null","","null","","","","","","","","./tasks/HMM-beads/Images/WhiteBeadChoiceWrong.png","","","","","","","","","",""
"image-keyboard-response","357","488010","0.0-3.0-6.0-1.0-0.73","661f0e896898093f2e1e62f7","6662009ae78f21dd82fcd179","66620a27b067d1d8e941ffec","15","","j","","","","","","","","./tasks/HMM-beads/Images/NewTrialBC.png","lowH","1","73","0","1","0","1","true","",""
"image-keyboard-response","358","488315","0.0-3.0-6.0-1.0-1.73","661f0e896898093f2e1e62f7","6662009ae78f21dd82fcd179","66620a27b067d1d8e941ffec","null","","null","","","","","","","","./tasks/HMM-beads/Images/WhiteBeadChoice.png","","","","","","","","","",""
"image-keyboard-response","359","488829","0.0-3.0-6.0-1.0-2.73","661f0e896898093f2e1e62f7","6662009ae78f21dd82fcd179","66620a27b067d1d8e941ffec","null","","null","","","","","","","","./tasks/HMM-beads/Images/WhiteBeadChoiceCorrect.png","","","","","","","","","",""
"image-keyboard-response","360","488888","0.0-3.0-6.0-1.0-0.74","661f0e896898093f2e1e62f7","6662009ae78f21dd82fcd179","66620a27b067d1d8e941ffec","58","","j","","","","","","","","./tasks/HMM-beads/Images/NewTrialWC.png","lowH","1","74","0","0","1","1","false","",""
"image-keyboard-response","361","489203","0.0-3.0-6.0-1.0-1.74","661f0e896898093f2e1e62f7","6662009ae78f21dd82fcd179","66620a27b067d1d8e941ffec","null","","null","","","","","","","","./tasks/HMM-beads/Images/WhiteBeadChoice.png","","","","","","","","","",""
"image-keyboard-response","362","489718","0.0-3.0-6.0-1.0-2.74","661f0e896898093f2e1e62f7","6662009ae78f21dd82fcd179","66620a27b067d1d8e941ffec","null","","null","","","","","","","","./tasks/HMM-beads/Images/WhiteBeadChoiceWrong.png","","","","","","","","","",""
"image-keyboard-response","363","489915","0.0-3.0-6.0-1.0-0.75","661f0e896898093f2e1e62f7","6662009ae78f21dd82fcd179","66620a27b067d1d8e941ffec","196","","f","","","","","","","","./tasks/HMM-beads/Images/NewTrialBC.png","lowH","1","75","0","1","0","0","false","",""
"image-keyboard-response","364","490216","0.0-3.0-6.0-1.0-1.75","661f0e896898093f2e1e62f7","6662009ae78f21dd82fcd179","66620a27b067d1d8e941ffec","null","","null","","","","","","","","./tasks/HMM-beads/Images/BlackBeadChoice.png","","","","","","","","","",""
"image-keyboard-response","365","490717","0.0-3.0-6.0-1.0-2.75","661f0e896898093f2e1e62f7","6662009ae78f21dd82fcd179","66620a27b067d1d8e941ffec","null","","null","","","","","","","","./tasks/HMM-beads/Images/BlackBeadChoiceWrong.png","","","","","","","","","",""
"image-keyboard-response","366","491203","0.0-3.0-6.0-1.0-0.76","661f0e896898093f2e1e62f7","6662009ae78f21dd82fcd179","66620a27b067d1d8e941ffec","485","","j","","","","","","","","./tasks/HMM-beads/Images/NewTrialWC.png","lowH","1","76","0","1","1","1","true","",""
"image-keyboard-response","367","491514","0.0-3.0-6.0-1.0-1.76","661f0e896898093f2e1e62f7","6662009ae78f21dd82fcd179","66620a27b067d1d8e941ffec","null","","null","","","","","","","","./tasks/HMM-beads/Images/WhiteBeadChoice.png","","","","","","","","","",""
"image-keyboard-response","368","492027","0.0-3.0-6.0-1.0-2.76","661f0e896898093f2e1e62f7","6662009ae78f21dd82fcd179","66620a27b067d1d8e941ffec","null","","null","","","","","","","","./tasks/HMM-beads/Images/WhiteBeadChoiceCorrect.png","","","","","","","","","",""
"image-keyboard-response","369","492093","0.0-3.0-6.0-1.0-0.77","661f0e896898093f2e1e62f7","6662009ae78f21dd82fcd179","66620a27b067d1d8e941ffec","65","","j","","","","","","","","./tasks/HMM-beads/Images/NewTrialWC.png","lowH","1","77","0","0","1","1","false","",""
"image-keyboard-response","370","492398","0.0-3.0-6.0-1.0-1.77","661f0e896898093f2e1e62f7","6662009ae78f21dd82fcd179","66620a27b067d1d8e941ffec","null","","null","","","","","","","","./tasks/HMM-beads/Images/WhiteBeadChoice.png","","","","","","","","","",""
"image-keyboard-response","371","492900","0.0-3.0-6.0-1.0-2.77","661f0e896898093f2e1e62f7","6662009ae78f21dd82fcd179","66620a27b067d1d8e941ffec","null","","null","","","","","","","","./tasks/HMM-beads/Images/WhiteBeadChoiceWrong.png","","","","","","","","","",""
"image-keyboard-response","372","493038","0.0-3.0-6.0-1.0-0.78","661f0e896898093f2e1e62f7","6662009ae78f21dd82fcd179","66620a27b067d1d8e941ffec","137","","f","","","","","","","","./tasks/HMM-beads/Images/NewTrialBC.png","lowH","1","78","0","0","0","0","true","",""
"image-keyboard-response","373","493354","0.0-3.0-6.0-1.0-1.78","661f0e896898093f2e1e62f7","6662009ae78f21dd82fcd179","66620a27b067d1d8e941ffec","null","","null","","","","","","","","./tasks/HMM-beads/Images/BlackBeadChoice.png","","","","","","","","","",""
"image-keyboard-response","374","493867","0.0-3.0-6.0-1.0-2.78","661f0e896898093f2e1e62f7","6662009ae78f21dd82fcd179","66620a27b067d1d8e941ffec","null","","null","","","","","","","","./tasks/HMM-beads/Images/BlackBeadChoiceCorrect.png","","","","","","","","","",""
