"trial_type","trial_index","time_elapsed","internal_node_id","subject_id","study_id","session_id","rt","url","response","question_order","view_history","success","timeout","failed_images","failed_audio","failed_video","stimulus","block","block_rep","trial_number","jar","bead","previous_bead","choice","correct","lowH_score","total_bonus"
"pavlovia","0","1236","0.0-0.0","5e8950c8b739115ed69e9fc3","6662009ae78f21dd82fcd179","66620a363f6f0e1083bec4df","","","","","","","","","","","","","","","","","","","","",""
"external-html","1","10062","0.0-1.0-0.0","5e8950c8b739115ed69e9fc3","6662009ae78f21dd82fcd179","66620a363f6f0e1083bec4df","8681","new_consent.html","","","","","","","","","","","","","","","","","","",""
"survey-multi-choice","2","19274","0.0-1.0-1.0","5e8950c8b739115ed69e9fc3","6662009ae78f21dd82fcd179","66620a363f6f0e1083bec4df","9207","","{""Q0"":""Female"",""Q1"":""White""}","[0,1]","","","","","","","","","","","","","","","","",""
"survey-text","3","26415","0.0-1.0-2.0","5e8950c8b739115ed69e9fc3","6662009ae78f21dd82fcd179","66620a363f6f0e1083bec4df","7128","","{""Q0"":""24""}","","","","","","","","","","","","","","","","","",""
"instructions","4","29030","0.0-2.0","5e8950c8b739115ed69e9fc3","6662009ae78f21dd82fcd179","66620a363f6f0e1083bec4df","2512","","","","[{""page_index"":0,""viewing_time"":2512}]","","","","","","","","","","","","","","","",""
"preload","5","31179","0.0-3.0-0.0","5e8950c8b739115ed69e9fc3","6662009ae78f21dd82fcd179","66620a363f6f0e1083bec4df","","","","","","true","false","[]","[]","[]","","","","","","","","","","",""
"instructions","6","213728","0.0-3.0-1.0","5e8950c8b739115ed69e9fc3","6662009ae78f21dd82fcd179","66620a363f6f0e1083bec4df","182554","","","","[{""page_index"":0,""viewing_time"":6866},{""page_index"":1,""viewing_time"":27957},{""page_index"":2,""viewing_time"":3710},{""page_index"":3,""viewing_time"":1196},{""page_index"":4,""viewing_time"":17764},{""page_index"":5,""viewing_time"":90538},{""page_index"":6,""viewing_time"":2874},{""page_index"":7,""viewing_time"":8008},{""page_index"":8,""viewing_time"":6462},{""page_index"":9,""viewing_time"":1745},{""page_index"":8,""viewing_time"":243},{""page_index"":9,""viewing_time"":11868},{""page_index"":10,""viewing_time"":1744},{""page_index"":11,""viewing_time"":1578}]","","","","","","","","","","","","","","","",""
"html-button-response","7","215804","0.0-3.0-2.0-0.0-0.0","5e8950c8b739115ed69e9fc3","6662009ae78f21dd82fcd179","66620a363f6f0e1083bec4df","2066","","1","","","","","","","","<div align=center>Your goal is to predict…?<br><br></div>","","","","","","","","","",""
"html-button-response","8","219619","0.0-3.0-2.0-1.0-0.0","5e8950c8b739115ed69e9fc3","6662009ae78f21dd82fcd179","66620a363f6f0e1083bec4df","2094","","2","","","","","","","","<div align=center>In the jar with mostly white beads, there are ___% white beads and ___% black beads?<br><br></div>","","","","","","","","","",""
"html-button-response","9","223303","0.0-3.0-2.0-2.0-0.0","5e8950c8b739115ed69e9fc3","6662009ae78f21dd82fcd179","66620a363f6f0e1083bec4df","2591","","1","","","","","","","","<div align=center>When there is a 1% probability that the jars will switch, the next bead will most likely be drawn from the…<br><br></div>","","","","","","","","","",""
"html-button-response","10","226029","0.0-3.0-2.0-2.1-0.1","5e8950c8b739115ed69e9fc3","6662009ae78f21dd82fcd179","66620a363f6f0e1083bec4df","1185","","0","","","","","","","","<div align=center>When there is a 1% probability that the jars will switch, the next bead will most likely be drawn from the…<br><br></div>","","","","","","","","","",""
"html-button-response","11","237084","0.0-3.0-2.0-3.0-0.0","5e8950c8b739115ed69e9fc3","6662009ae78f21dd82fcd179","66620a363f6f0e1083bec4df","10046","","1","","","","","","","","<div align=center>When there is a 99% probability that the jars will switch, the next bead will most likely be drawn from the…<br><br></div>","","","","","","","","","",""
"instructions","12","263535","0.0-3.0-3.0","5e8950c8b739115ed69e9fc3","6662009ae78f21dd82fcd179","66620a363f6f0e1083bec4df","25049","","","","[{""page_index"":0,""viewing_time"":25048}]","","","","","","","","","","","","","","","",""
"html-keyboard-response","13","266435","0.0-3.0-4.0-0.0","5e8950c8b739115ed69e9fc3","6662009ae78f21dd82fcd179","66620a363f6f0e1083bec4df","2896",""," ","","","","","","","","<div align=center>In this practice block, there will be a <b>1% chance</b> that the jar on the next trial will be different from the jar on the current trial.<br><br></div>","","","","","","","","","",""
"image-keyboard-response","14","269300","0.0-3.0-4.0-1.0-0.0","5e8950c8b739115ed69e9fc3","6662009ae78f21dd82fcd179","66620a363f6f0e1083bec4df","2860","","f","","","","","","","","./tasks/HMM-beads/Images/NoChoice.png","practice","0","0","0","0","9","0","true","",""
"image-keyboard-response","15","269612","0.0-3.0-4.0-1.0-1.0","5e8950c8b739115ed69e9fc3","6662009ae78f21dd82fcd179","66620a363f6f0e1083bec4df","null","","null","","","","","","","","./tasks/HMM-beads/Images/BlackBeadChoice.png","","","","","","","","","",""
"image-keyboard-response","16","270118","0.0-3.0-4.0-1.0-2.0","5e8950c8b739115ed69e9fc3","6662009ae78f21dd82fcd179","66620a363f6f0e1083bec4df","null","","null","","","","","","","","./tasks/HMM-beads/Images/BlackBeadChoiceCorrect.png","","","","","","","","","",""
"image-keyboard-response","17","272081","0.0-3.0-4.0-1.0-0.1","5e8950c8b739115ed69e9fc3","6662009ae78f21dd82fcd179","66620a363f6f0e1083bec4df","1961","","f","","","","","","","","./tasks/HMM-beads/Images/NewTrialBC.png","practice","0","1","0","0","0","0","true","",""
"image-keyboard-response","18","272392","0.0-3.0-4.0-1.0-1.1","5e8950c8b739115ed69e9fc3","6662009ae78f21dd82fcd179","66620a363f6f0e1083bec4df","null","","null","","","","","","","","./tasks/HMM-beads/Images/BlackBeadChoice.png","","","","","","","","","",""
"image-keyboard-response","19","272899","0.0-3.0-4.0-1.0-2.1","5e8950c8b739115ed69e9fc3","6662009ae78f21dd82fcd179","66620a363f6f0e1083bec4df","null","","null","","","","","","","","./tasks/HMM-beads/Images/BlackBeadChoiceCorrect.png","","","","","","","","","",""
"image-keyboard-response","20","275321","0.0-3.0-4.0-1.0-0.2","5e8950c8b739115ed69e9fc3","6662009ae78f21dd82fcd179","66620a363f6f0e1083bec4df","2417","","f","","","","","","","","./tasks/HMM-beads/Images/NewTrialBC.png","practice","0","2","0","1","0","0","false","",""
"image-keyboard-response","21","275636","0.0-3.0-4.0-1.0-1.2","5e8950c8b739115ed69e9fc3","6662009ae78f21dd82fcd179","66620a363f6f0e1083bec4df","null","","null","","","","","","","","./tasks/HMM-beads/Images/BlackBeadChoice.png","","","","","","","","","",""
"image-keyboard-response","22","276143","0.0-3.0-4.0-1.0-2.2","5e8950c8b739115ed69e9fc3","6662009ae78f21dd82fcd179","66620a363f6f0e1083bec4df","null","","null","","","","","","","","./tasks/HMM-beads/Images/BlackBeadChoiceWrong.png","","","","","","","","","",""
"image-keyboard-response","23","277089","0.0-3.0-4.0-1.0-0.3","5e8950c8b739115ed69e9fc3","6662009ae78f21dd82fcd179","66620a363f6f0e1083bec4df","943","","j","","","","","","","","./tasks/HMM-beads/Images/NewTrialWC.png","practice","0","3","0","0","1","1","false","",""
"image-keyboard-response","24","277406","0.0-3.0-4.0-1.0-1.3","5e8950c8b739115ed69e9fc3","6662009ae78f21dd82fcd179","66620a363f6f0e1083bec4df","null","","null","","","","","","","","./tasks/HMM-beads/Images/WhiteBeadChoice.png","","","","","","","","","",""
"image-keyboard-response","25","277914","0.0-3.0-4.0-1.0-2.3","5e8950c8b739115ed69e9fc3","6662009ae78f21dd82fcd179","66620a363f6f0e1083bec4df","null","","null","","","","","","","","./tasks/HMM-beads/Images/WhiteBeadChoiceWrong.png","","","","","","","","","",""
"image-keyboard-response","26","280168","0.0-3.0-4.0-1.0-0.4","5e8950c8b739115ed69e9fc3","6662009ae78f21dd82fcd179","66620a363f6f0e1083bec4df","2251","","f","","","","","","","","./tasks/HMM-beads/Images/NewTrialBC.png","practice","0","4","0","0","0","0","true","",""
"image-keyboard-response","27","280484","0.0-3.0-4.0-1.0-1.4","5e8950c8b739115ed69e9fc3","6662009ae78f21dd82fcd179","66620a363f6f0e1083bec4df","null","","null","","","","","","","","./tasks/HMM-beads/Images/BlackBeadChoice.png","","","","","","","","","",""
"image-keyboard-response","28","280996","0.0-3.0-4.0-1.0-2.4","5e8950c8b739115ed69e9fc3","6662009ae78f21dd82fcd179","66620a363f6f0e1083bec4df","null","","null","","","","","","","","./tasks/HMM-beads/Images/BlackBeadChoiceCorrect.png","","","","","","","","","",""
"image-keyboard-response","29","281102","0.0-3.0-4.0-1.0-0.5","5e8950c8b739115ed69e9fc3","6662009ae78f21dd82fcd179","66620a363f6f0e1083bec4df","103","","f","","","","","","","","./tasks/HMM-beads/Images/NewTrialBC.png","practice","0","5","0","1","0","0","false","",""
"image-keyboard-response","30","281420","0.0-3.0-4.0-1.0-1.5","5e8950c8b739115ed69e9fc3","6662009ae78f21dd82fcd179","66620a363f6f0e1083bec4df","null","","null","","","","","","","","./tasks/HMM-beads/Images/BlackBeadChoice.png","","","","","","","","","",""
"image-keyboard-response","31","281932","0.0-3.0-4.0-1.0-2.5","5e8950c8b739115ed69e9fc3","6662009ae78f21dd82fcd179","66620a363f6f0e1083bec4df","null","","null","","","","","","","","./tasks/HMM-beads/Images/BlackBeadChoiceWrong.png","","","","","","","","","",""
"image-keyboard-response","32","287643","0.0-3.0-4.0-1.0-0.6","5e8950c8b739115ed69e9fc3","6662009ae78f21dd82fcd179","66620a363f6f0e1083bec4df","5709","","f","","","","","","","","./tasks/HMM-beads/Images/NewTrialWC.png","practice","0","6","0","0","1","0","true","",""
"image-keyboard-response","33","287952","0.0-3.0-4.0-1.0-1.6","5e8950c8b739115ed69e9fc3","6662009ae78f21dd82fcd179","66620a363f6f0e1083bec4df","null","","null","","","","","","","","./tasks/HMM-beads/Images/BlackBeadChoice.png","","","","","","","","","",""
"image-keyboard-response","34","288463","0.0-3.0-4.0-1.0-2.6","5e8950c8b739115ed69e9fc3","6662009ae78f21dd82fcd179","66620a363f6f0e1083bec4df","null","","null","","","","","","","","./tasks/HMM-beads/Images/BlackBeadChoiceCorrect.png","","","","","","","","","",""
"image-keyboard-response","35","289538","0.0-3.0-4.0-1.0-0.7","5e8950c8b739115ed69e9fc3","6662009ae78f21dd82fcd179","66620a363f6f0e1083bec4df","1073","","f","","","","","","","","./tasks/HMM-beads/Images/NewTrialBC.png","practice","0","7","0","0","0","0","true","",""
"image-keyboard-response","36","289847","0.0-3.0-4.0-1.0-1.7","5e8950c8b739115ed69e9fc3","6662009ae78f21dd82fcd179","66620a363f6f0e1083bec4df","null","","null","","","","","","","","./tasks/HMM-beads/Images/BlackBeadChoice.png","","","","","","","","","",""
"image-keyboard-response","37","290359","0.0-3.0-4.0-1.0-2.7","5e8950c8b739115ed69e9fc3","6662009ae78f21dd82fcd179","66620a363f6f0e1083bec4df","null","","null","","","","","","","","./tasks/HMM-beads/Images/BlackBeadChoiceCorrect.png","","","","","","","","","",""
"image-keyboard-response","38","290726","0.0-3.0-4.0-1.0-0.8","5e8950c8b739115ed69e9fc3","6662009ae78f21dd82fcd179","66620a363f6f0e1083bec4df","363","","f","","","","","","","","./tasks/HMM-beads/Images/NewTrialBC.png","practice","0","8","0","0","0","0","true","",""
"image-keyboard-response","39","291034","0.0-3.0-4.0-1.0-1.8","5e8950c8b739115ed69e9fc3","6662009ae78f21dd82fcd179","66620a363f6f0e1083bec4df","null","","null","","","","","","","","./tasks/HMM-beads/Images/BlackBeadChoice.png","","","","","","","","","",""
"image-keyboard-response","40","291547","0.0-3.0-4.0-1.0-2.8","5e8950c8b739115ed69e9fc3","6662009ae78f21dd82fcd179","66620a363f6f0e1083bec4df","null","","null","","","","","","","","./tasks/HMM-beads/Images/BlackBeadChoiceCorrect.png","","","","","","","","","",""
"image-keyboard-response","41","293209","0.0-3.0-4.0-1.0-0.9","5e8950c8b739115ed69e9fc3","6662009ae78f21dd82fcd179","66620a363f6f0e1083bec4df","1660","","j","","","","","","","","./tasks/HMM-beads/Images/NewTrialBC.png","practice","0","9","0","1","0","1","true","",""
"image-keyboard-response","42","293519","0.0-3.0-4.0-1.0-1.9","5e8950c8b739115ed69e9fc3","6662009ae78f21dd82fcd179","66620a363f6f0e1083bec4df","null","","null","","","","","","","","./tasks/HMM-beads/Images/WhiteBeadChoice.png","","","","","","","","","",""
"image-keyboard-response","43","294028","0.0-3.0-4.0-1.0-2.9","5e8950c8b739115ed69e9fc3","6662009ae78f21dd82fcd179","66620a363f6f0e1083bec4df","null","","null","","","","","","","","./tasks/HMM-beads/Images/WhiteBeadChoiceCorrect.png","","","","","","","","","",""
"image-keyboard-response","44","295634","0.0-3.0-4.0-1.0-0.10","5e8950c8b739115ed69e9fc3","6662009ae78f21dd82fcd179","66620a363f6f0e1083bec4df","1603","","f","","","","","","","","./tasks/HMM-beads/Images/NewTrialWC.png","practice","0","10","0","0","1","0","true","",""
"image-keyboard-response","45","295945","0.0-3.0-4.0-1.0-1.10","5e8950c8b739115ed69e9fc3","6662009ae78f21dd82fcd179","66620a363f6f0e1083bec4df","null","","null","","","","","","","","./tasks/HMM-beads/Images/BlackBeadChoice.png","","","","","","","","","",""
"image-keyboard-response","46","296460","0.0-3.0-4.0-1.0-2.10","5e8950c8b739115ed69e9fc3","6662009ae78f21dd82fcd179","66620a363f6f0e1083bec4df","null","","null","","","","","","","","./tasks/HMM-beads/Images/BlackBeadChoiceCorrect.png","","","","","","","","","",""
"image-keyboard-response","47","297211","0.0-3.0-4.0-1.0-0.11","5e8950c8b739115ed69e9fc3","6662009ae78f21dd82fcd179","66620a363f6f0e1083bec4df","748","","f","","","","","","","","./tasks/HMM-beads/Images/NewTrialBC.png","practice","0","11","0","1","0","0","false","",""
"image-keyboard-response","48","297522","0.0-3.0-4.0-1.0-1.11","5e8950c8b739115ed69e9fc3","6662009ae78f21dd82fcd179","66620a363f6f0e1083bec4df","null","","null","","","","","","","","./tasks/HMM-beads/Images/BlackBeadChoice.png","","","","","","","","","",""
"image-keyboard-response","49","298036","0.0-3.0-4.0-1.0-2.11","5e8950c8b739115ed69e9fc3","6662009ae78f21dd82fcd179","66620a363f6f0e1083bec4df","null","","null","","","","","","","","./tasks/HMM-beads/Images/BlackBeadChoiceWrong.png","","","","","","","","","",""
"image-keyboard-response","50","301019","0.0-3.0-4.0-1.0-0.12","5e8950c8b739115ed69e9fc3","6662009ae78f21dd82fcd179","66620a363f6f0e1083bec4df","2981","","j","","","","","","","","./tasks/HMM-beads/Images/NewTrialWC.png","practice","0","12","0","0","1","1","false","",""
"image-keyboard-response","51","301325","0.0-3.0-4.0-1.0-1.12","5e8950c8b739115ed69e9fc3","6662009ae78f21dd82fcd179","66620a363f6f0e1083bec4df","null","","null","","","","","","","","./tasks/HMM-beads/Images/WhiteBeadChoice.png","","","","","","","","","",""
"image-keyboard-response","52","301833","0.0-3.0-4.0-1.0-2.12","5e8950c8b739115ed69e9fc3","6662009ae78f21dd82fcd179","66620a363f6f0e1083bec4df","null","","null","","","","","","","","./tasks/HMM-beads/Images/WhiteBeadChoiceWrong.png","","","","","","","","","",""
"image-keyboard-response","53","309336","0.0-3.0-4.0-1.0-0.13","5e8950c8b739115ed69e9fc3","6662009ae78f21dd82fcd179","66620a363f6f0e1083bec4df","7501","","f","","","","","","","","./tasks/HMM-beads/Images/NewTrialBC.png","practice","0","13","0","0","0","0","true","",""
"image-keyboard-response","54","309642","0.0-3.0-4.0-1.0-1.13","5e8950c8b739115ed69e9fc3","6662009ae78f21dd82fcd179","66620a363f6f0e1083bec4df","null","","null","","","","","","","","./tasks/HMM-beads/Images/BlackBeadChoice.png","","","","","","","","","",""
"image-keyboard-response","55","310146","0.0-3.0-4.0-1.0-2.13","5e8950c8b739115ed69e9fc3","6662009ae78f21dd82fcd179","66620a363f6f0e1083bec4df","null","","null","","","","","","","","./tasks/HMM-beads/Images/BlackBeadChoiceCorrect.png","","","","","","","","","",""
"image-keyboard-response","56","310232","0.0-3.0-4.0-1.0-0.14","5e8950c8b739115ed69e9fc3","6662009ae78f21dd82fcd179","66620a363f6f0e1083bec4df","85","","f","","","","","","","","./tasks/HMM-beads/Images/NewTrialBC.png","practice","0","14","0","0","0","0","true","",""
"image-keyboard-response","57","310539","0.0-3.0-4.0-1.0-1.14","5e8950c8b739115ed69e9fc3","6662009ae78f21dd82fcd179","66620a363f6f0e1083bec4df","null","","null","","","","","","","","./tasks/HMM-beads/Images/BlackBeadChoice.png","","","","","","","","","",""
"image-keyboard-response","58","311046","0.0-3.0-4.0-1.0-2.14","5e8950c8b739115ed69e9fc3","6662009ae78f21dd82fcd179","66620a363f6f0e1083bec4df","null","","null","","","","","","","","./tasks/HMM-beads/Images/BlackBeadChoiceCorrect.png","","","","","","","","","",""
"image-keyboard-response","59","311739","0.0-3.0-4.0-1.0-0.15","5e8950c8b739115ed69e9fc3","6662009ae78f21dd82fcd179","66620a363f6f0e1083bec4df","689","","f","","","","","","","","./tasks/HMM-beads/Images/NewTrialBC.png","practice","0","15","0","0","0","0","true","",""
"image-keyboard-response","60","312050","0.0-3.0-4.0-1.0-1.15","5e8950c8b739115ed69e9fc3","6662009ae78f21dd82fcd179","66620a363f6f0e1083bec4df","null","","null","","","","","","","","./tasks/HMM-beads/Images/BlackBeadChoice.png","","","","","","","","","",""
"image-keyboard-response","61","312553","0.0-3.0-4.0-1.0-2.15","5e8950c8b739115ed69e9fc3","6662009ae78f21dd82fcd179","66620a363f6f0e1083bec4df","null","","null","","","","","","","","./tasks/HMM-beads/Images/BlackBeadChoiceCorrect.png","","","","","","","","","",""
"image-keyboard-response","62","312939","0.0-3.0-4.0-1.0-0.16","5e8950c8b739115ed69e9fc3","6662009ae78f21dd82fcd179","66620a363f6f0e1083bec4df","380","","j","","","","","","","","./tasks/HMM-beads/Images/NewTrialBC.png","practice","0","16","0","0","0","1","false","",""
"image-keyboard-response","63","313243","0.0-3.0-4.0-1.0-1.16","5e8950c8b739115ed69e9fc3","6662009ae78f21dd82fcd179","66620a363f6f0e1083bec4df","null","","null","","","","","","","","./tasks/HMM-beads/Images/WhiteBeadChoice.png","","","","","","","","","",""
"image-keyboard-response","64","313759","0.0-3.0-4.0-1.0-2.16","5e8950c8b739115ed69e9fc3","6662009ae78f21dd82fcd179","66620a363f6f0e1083bec4df","null","","null","","","","","","","","./tasks/HMM-beads/Images/WhiteBeadChoiceWrong.png","","","","","","","","","",""
"image-keyboard-response","65","314706","0.0-3.0-4.0-1.0-0.17","5e8950c8b739115ed69e9fc3","6662009ae78f21dd82fcd179","66620a363f6f0e1083bec4df","943","","f","","","","","","","","./tasks/HMM-beads/Images/NewTrialBC.png","practice","0","17","0","0","0","0","true","",""
"image-keyboard-response","66","315021","0.0-3.0-4.0-1.0-1.17","5e8950c8b739115ed69e9fc3","6662009ae78f21dd82fcd179","66620a363f6f0e1083bec4df","null","","null","","","","","","","","./tasks/HMM-beads/Images/BlackBeadChoice.png","","","","","","","","","",""
"image-keyboard-response","67","315528","0.0-3.0-4.0-1.0-2.17","5e8950c8b739115ed69e9fc3","6662009ae78f21dd82fcd179","66620a363f6f0e1083bec4df","null","","null","","","","","","","","./tasks/HMM-beads/Images/BlackBeadChoiceCorrect.png","","","","","","","","","",""
"image-keyboard-response","68","316140","0.0-3.0-4.0-1.0-0.18","5e8950c8b739115ed69e9fc3","6662009ae78f21dd82fcd179","66620a363f6f0e1083bec4df","608","","f","","","","","","","","./tasks/HMM-beads/Images/NewTrialBC.png","practice","0","18","0","1","0","0","false","",""
"image-keyboard-response","69","316448","0.0-3.0-4.0-1.0-1.18","5e8950c8b739115ed69e9fc3","6662009ae78f21dd82fcd179","66620a363f6f0e1083bec4df","null","","null","","","","","","","","./tasks/HMM-beads/Images/BlackBeadChoice.png","","","","","","","","","",""
"image-keyboard-response","70","316955","0.0-3.0-4.0-1.0-2.18","5e8950c8b739115ed69e9fc3","6662009ae78f21dd82fcd179","66620a363f6f0e1083bec4df","null","","null","","","","","","","","./tasks/HMM-beads/Images/BlackBeadChoiceWrong.png","","","","","","","","","",""
"image-keyboard-response","71","318401","0.0-3.0-4.0-1.0-0.19","5e8950c8b739115ed69e9fc3","6662009ae78f21dd82fcd179","66620a363f6f0e1083bec4df","1444","","j","","","","","","","","./tasks/HMM-beads/Images/NewTrialWC.png","practice","0","19","0","0","1","1","false","",""
"image-keyboard-response","72","318708","0.0-3.0-4.0-1.0-1.19","5e8950c8b739115ed69e9fc3","6662009ae78f21dd82fcd179","66620a363f6f0e1083bec4df","null","","null","","","","","","","","./tasks/HMM-beads/Images/WhiteBeadChoice.png","","","","","","","","","",""
"image-keyboard-response","73","319213","0.0-3.0-4.0-1.0-2.19","5e8950c8b739115ed69e9fc3","6662009ae78f21dd82fcd179","66620a363f6f0e1083bec4df","null","","null","","","","","","","","./tasks/HMM-beads/Images/WhiteBeadChoiceWrong.png","","","","","","","","","",""
"image-keyboard-response","74","320273","0.0-3.0-4.0-1.0-0.20","5e8950c8b739115ed69e9fc3","6662009ae78f21dd82fcd179","66620a363f6f0e1083bec4df","1056","","f","","","","","","","","./tasks/HMM-beads/Images/NewTrialBC.png","practice","0","20","0","0","0","0","true","",""
"image-keyboard-response","75","320586","0.0-3.0-4.0-1.0-1.20","5e8950c8b739115ed69e9fc3","6662009ae78f21dd82fcd179","66620a363f6f0e1083bec4df","null","","null","","","","","","","","./tasks/HMM-beads/Images/BlackBeadChoice.png","","","","","","","","","",""
"image-keyboard-response","76","321095","0.0-3.0-4.0-1.0-2.20","5e8950c8b739115ed69e9fc3","6662009ae78f21dd82fcd179","66620a363f6f0e1083bec4df","null","","null","","","","","","","","./tasks/HMM-beads/Images/BlackBeadChoiceCorrect.png","","","","","","","","","",""
"image-keyboard-response","77","322505","0.0-3.0-4.0-1.0-0.21","5e8950c8b739115ed69e9fc3","6662009ae78f21dd82fcd179","66620a363f6f0e1083bec4df","1407","","f","","","","","","","","./tasks/HMM-beads/Images/NewTrialBC.png","practice","0","21","0","1","0","0","false","",""
"image-keyboard-response","78","322812","0.0-3.0-4.0-1.0-1.21","5e8950c8b739115ed69e9fc3","6662009ae78f21dd82fcd179","66620a363f6f0e1083bec4df","null","","null","","","","","","","","./tasks/HMM-beads/Images/BlackBeadChoice.png","","","","","","","","","",""
"image-keyboard-response","79","323331","0.0-3.0-4.0-1.0-2.21","5e8950c8b739115ed69e9fc3","6662009ae78f21dd82fcd179","66620a363f6f0e1083bec4df","null","","null","","","","","","","","./tasks/HMM-beads/Images/BlackBeadChoiceWrong.png","","","","","","","","","",""
"image-keyboard-response","80","325925","0.0-3.0-4.0-1.0-0.22","5e8950c8b739115ed69e9fc3","6662009ae78f21dd82fcd179","66620a363f6f0e1083bec4df","2592","","f","","","","","","","","./tasks/HMM-beads/Images/NewTrialWC.png","practice","0","22","1","1","1","0","false","",""
"image-keyboard-response","81","326230","0.0-3.0-4.0-1.0-1.22","5e8950c8b739115ed69e9fc3","6662009ae78f21dd82fcd179","66620a363f6f0e1083bec4df","null","","null","","","","","","","","./tasks/HMM-beads/Images/BlackBeadChoice.png","","","","","","","","","",""
"image-keyboard-response","82","326741","0.0-3.0-4.0-1.0-2.22","5e8950c8b739115ed69e9fc3","6662009ae78f21dd82fcd179","66620a363f6f0e1083bec4df","null","","null","","","","","","","","./tasks/HMM-beads/Images/BlackBeadChoiceWrong.png","","","","","","","","","",""
"image-keyboard-response","83","327967","0.0-3.0-4.0-1.0-0.23","5e8950c8b739115ed69e9fc3","6662009ae78f21dd82fcd179","66620a363f6f0e1083bec4df","1222","","f","","","","","","","","./tasks/HMM-beads/Images/NewTrialWC.png","practice","0","23","1","0","1","0","true","",""
"image-keyboard-response","84","328274","0.0-3.0-4.0-1.0-1.23","5e8950c8b739115ed69e9fc3","6662009ae78f21dd82fcd179","66620a363f6f0e1083bec4df","null","","null","","","","","","","","./tasks/HMM-beads/Images/BlackBeadChoice.png","","","","","","","","","",""
"image-keyboard-response","85","328782","0.0-3.0-4.0-1.0-2.23","5e8950c8b739115ed69e9fc3","6662009ae78f21dd82fcd179","66620a363f6f0e1083bec4df","null","","null","","","","","","","","./tasks/HMM-beads/Images/BlackBeadChoiceCorrect.png","","","","","","","","","",""
"image-keyboard-response","86","329373","0.0-3.0-4.0-1.0-0.24","5e8950c8b739115ed69e9fc3","6662009ae78f21dd82fcd179","66620a363f6f0e1083bec4df","589","","f","","","","","","","","./tasks/HMM-beads/Images/NewTrialBC.png","practice","0","24","1","1","0","0","false","",""
"image-keyboard-response","87","329682","0.0-3.0-4.0-1.0-1.24","5e8950c8b739115ed69e9fc3","6662009ae78f21dd82fcd179","66620a363f6f0e1083bec4df","null","","null","","","","","","","","./tasks/HMM-beads/Images/BlackBeadChoice.png","","","","","","","","","",""
"image-keyboard-response","88","330190","0.0-3.0-4.0-1.0-2.24","5e8950c8b739115ed69e9fc3","6662009ae78f21dd82fcd179","66620a363f6f0e1083bec4df","null","","null","","","","","","","","./tasks/HMM-beads/Images/BlackBeadChoiceWrong.png","","","","","","","","","",""
"image-keyboard-response","89","330592","0.0-3.0-4.0-1.0-0.25","5e8950c8b739115ed69e9fc3","6662009ae78f21dd82fcd179","66620a363f6f0e1083bec4df","401","","j","","","","","","","","./tasks/HMM-beads/Images/NewTrialWC.png","practice","0","25","1","1","1","1","true","",""
"image-keyboard-response","90","330900","0.0-3.0-4.0-1.0-1.25","5e8950c8b739115ed69e9fc3","6662009ae78f21dd82fcd179","66620a363f6f0e1083bec4df","null","","null","","","","","","","","./tasks/HMM-beads/Images/WhiteBeadChoice.png","","","","","","","","","",""
"image-keyboard-response","91","331407","0.0-3.0-4.0-1.0-2.25","5e8950c8b739115ed69e9fc3","6662009ae78f21dd82fcd179","66620a363f6f0e1083bec4df","null","","null","","","","","","","","./tasks/HMM-beads/Images/WhiteBeadChoiceCorrect.png","","","","","","","","","",""
"image-keyboard-response","92","331993","0.0-3.0-4.0-1.0-0.26","5e8950c8b739115ed69e9fc3","6662009ae78f21dd82fcd179","66620a363f6f0e1083bec4df","583","","j","","","","","","","","./tasks/HMM-beads/Images/NewTrialWC.png","practice","0","26","1","1","1","1","true","",""
"image-keyboard-response","93","332299","0.0-3.0-4.0-1.0-1.26","5e8950c8b739115ed69e9fc3","6662009ae78f21dd82fcd179","66620a363f6f0e1083bec4df","null","","null","","","","","","","","./tasks/HMM-beads/Images/WhiteBeadChoice.png","","","","","","","","","",""
"image-keyboard-response","94","332808","0.0-3.0-4.0-1.0-2.26","5e8950c8b739115ed69e9fc3","6662009ae78f21dd82fcd179","66620a363f6f0e1083bec4df","null","","null","","","","","","","","./tasks/HMM-beads/Images/WhiteBeadChoiceCorrect.png","","","","","","","","","",""
"image-keyboard-response","95","333312","0.0-3.0-4.0-1.0-0.27","5e8950c8b739115ed69e9fc3","6662009ae78f21dd82fcd179","66620a363f6f0e1083bec4df","500","","j","","","","","","","","./tasks/HMM-beads/Images/NewTrialWC.png","practice","0","27","1","1","1","1","true","",""
"image-keyboard-response","96","333624","0.0-3.0-4.0-1.0-1.27","5e8950c8b739115ed69e9fc3","6662009ae78f21dd82fcd179","66620a363f6f0e1083bec4df","null","","null","","","","","","","","./tasks/HMM-beads/Images/WhiteBeadChoice.png","","","","","","","","","",""
"image-keyboard-response","97","334127","0.0-3.0-4.0-1.0-2.27","5e8950c8b739115ed69e9fc3","6662009ae78f21dd82fcd179","66620a363f6f0e1083bec4df","null","","null","","","","","","","","./tasks/HMM-beads/Images/WhiteBeadChoiceCorrect.png","","","","","","","","","",""
"image-keyboard-response","98","334802","0.0-3.0-4.0-1.0-0.28","5e8950c8b739115ed69e9fc3","6662009ae78f21dd82fcd179","66620a363f6f0e1083bec4df","673","","j","","","","","","","","./tasks/HMM-beads/Images/NewTrialWC.png","practice","0","28","1","0","1","1","false","",""
"image-keyboard-response","99","335120","0.0-3.0-4.0-1.0-1.28","5e8950c8b739115ed69e9fc3","6662009ae78f21dd82fcd179","66620a363f6f0e1083bec4df","null","","null","","","","","","","","./tasks/HMM-beads/Images/WhiteBeadChoice.png","","","","","","","","","",""
"image-keyboard-response","100","335626","0.0-3.0-4.0-1.0-2.28","5e8950c8b739115ed69e9fc3","6662009ae78f21dd82fcd179","66620a363f6f0e1083bec4df","null","","null","","","","","","","","./tasks/HMM-beads/Images/WhiteBeadChoiceWrong.png","","","","","","","","","",""
"image-keyboard-response","101","336105","0.0-3.0-4.0-1.0-0.29","5e8950c8b739115ed69e9fc3","6662009ae78f21dd82fcd179","66620a363f6f0e1083bec4df","477","","f","","","","","","","","./tasks/HMM-beads/Images/NewTrialBC.png","practice","0","29","1","1","0","0","false","",""
"image-keyboard-response","102","336417","0.0-3.0-4.0-1.0-1.29","5e8950c8b739115ed69e9fc3","6662009ae78f21dd82fcd179","66620a363f6f0e1083bec4df","null","","null","","","","","","","","./tasks/HMM-beads/Images/BlackBeadChoice.png","","","","","","","","","",""
"image-keyboard-response","103","336927","0.0-3.0-4.0-1.0-2.29","5e8950c8b739115ed69e9fc3","6662009ae78f21dd82fcd179","66620a363f6f0e1083bec4df","null","","null","","","","","","","","./tasks/HMM-beads/Images/BlackBeadChoiceWrong.png","","","","","","","","","",""
"image-keyboard-response","104","339359","0.0-3.0-4.0-1.0-0.30","5e8950c8b739115ed69e9fc3","6662009ae78f21dd82fcd179","66620a363f6f0e1083bec4df","2430","","j","","","","","","","","./tasks/HMM-beads/Images/NewTrialWC.png","practice","0","30","1","0","1","1","false","",""
"image-keyboard-response","105","339667","0.0-3.0-4.0-1.0-1.30","5e8950c8b739115ed69e9fc3","6662009ae78f21dd82fcd179","66620a363f6f0e1083bec4df","null","","null","","","","","","","","./tasks/HMM-beads/Images/WhiteBeadChoice.png","","","","","","","","","",""
"image-keyboard-response","106","340179","0.0-3.0-4.0-1.0-2.30","5e8950c8b739115ed69e9fc3","6662009ae78f21dd82fcd179","66620a363f6f0e1083bec4df","null","","null","","","","","","","","./tasks/HMM-beads/Images/WhiteBeadChoiceWrong.png","","","","","","","","","",""
"image-keyboard-response","107","340955","0.0-3.0-4.0-1.0-0.31","5e8950c8b739115ed69e9fc3","6662009ae78f21dd82fcd179","66620a363f6f0e1083bec4df","774","","f","","","","","","","","./tasks/HMM-beads/Images/NewTrialBC.png","practice","0","31","1","1","0","0","false","",""
"image-keyboard-response","108","341258","0.0-3.0-4.0-1.0-1.31","5e8950c8b739115ed69e9fc3","6662009ae78f21dd82fcd179","66620a363f6f0e1083bec4df","null","","null","","","","","","","","./tasks/HMM-beads/Images/BlackBeadChoice.png","","","","","","","","","",""
"image-keyboard-response","109","341769","0.0-3.0-4.0-1.0-2.31","5e8950c8b739115ed69e9fc3","6662009ae78f21dd82fcd179","66620a363f6f0e1083bec4df","null","","null","","","","","","","","./tasks/HMM-beads/Images/BlackBeadChoiceWrong.png","","","","","","","","","",""
"image-keyboard-response","110","342828","0.0-3.0-4.0-1.0-0.32","5e8950c8b739115ed69e9fc3","6662009ae78f21dd82fcd179","66620a363f6f0e1083bec4df","1056","","j","","","","","","","","./tasks/HMM-beads/Images/NewTrialWC.png","practice","0","32","1","1","1","1","true","",""
"image-keyboard-response","111","343130","0.0-3.0-4.0-1.0-1.32","5e8950c8b739115ed69e9fc3","6662009ae78f21dd82fcd179","66620a363f6f0e1083bec4df","null","","null","","","","","","","","./tasks/HMM-beads/Images/WhiteBeadChoice.png","","","","","","","","","",""
"image-keyboard-response","112","343640","0.0-3.0-4.0-1.0-2.32","5e8950c8b739115ed69e9fc3","6662009ae78f21dd82fcd179","66620a363f6f0e1083bec4df","null","","null","","","","","","","","./tasks/HMM-beads/Images/WhiteBeadChoiceCorrect.png","","","","","","","","","",""
"image-keyboard-response","113","344990","0.0-3.0-4.0-1.0-0.33","5e8950c8b739115ed69e9fc3","6662009ae78f21dd82fcd179","66620a363f6f0e1083bec4df","1347","","j","","","","","","","","./tasks/HMM-beads/Images/NewTrialWC.png","practice","0","33","1","1","1","1","true","",""
"image-keyboard-response","114","345295","0.0-3.0-4.0-1.0-1.33","5e8950c8b739115ed69e9fc3","6662009ae78f21dd82fcd179","66620a363f6f0e1083bec4df","null","","null","","","","","","","","./tasks/HMM-beads/Images/WhiteBeadChoice.png","","","","","","","","","",""
"image-keyboard-response","115","345802","0.0-3.0-4.0-1.0-2.33","5e8950c8b739115ed69e9fc3","6662009ae78f21dd82fcd179","66620a363f6f0e1083bec4df","null","","null","","","","","","","","./tasks/HMM-beads/Images/WhiteBeadChoiceCorrect.png","","","","","","","","","",""
"image-keyboard-response","116","349097","0.0-3.0-4.0-1.0-0.34","5e8950c8b739115ed69e9fc3","6662009ae78f21dd82fcd179","66620a363f6f0e1083bec4df","3291","","j","","","","","","","","./tasks/HMM-beads/Images/NewTrialWC.png","practice","0","34","1","1","1","1","true","",""
"image-keyboard-response","117","349403","0.0-3.0-4.0-1.0-1.34","5e8950c8b739115ed69e9fc3","6662009ae78f21dd82fcd179","66620a363f6f0e1083bec4df","null","","null","","","","","","","","./tasks/HMM-beads/Images/WhiteBeadChoice.png","","","","","","","","","",""
"image-keyboard-response","118","349915","0.0-3.0-4.0-1.0-2.34","5e8950c8b739115ed69e9fc3","6662009ae78f21dd82fcd179","66620a363f6f0e1083bec4df","null","","null","","","","","","","","./tasks/HMM-beads/Images/WhiteBeadChoiceCorrect.png","","","","","","","","","",""
"image-keyboard-response","119","349930","0.0-3.0-4.0-1.0-0.35","5e8950c8b739115ed69e9fc3","6662009ae78f21dd82fcd179","66620a363f6f0e1083bec4df","13","","j","","","","","","","","./tasks/HMM-beads/Images/NewTrialWC.png","practice","0","35","1","1","1","1","true","",""
"image-keyboard-response","120","350250","0.0-3.0-4.0-1.0-1.35","5e8950c8b739115ed69e9fc3","6662009ae78f21dd82fcd179","66620a363f6f0e1083bec4df","null","","null","","","","","","","","./tasks/HMM-beads/Images/WhiteBeadChoice.png","","","","","","","","","",""
"image-keyboard-response","121","350761","0.0-3.0-4.0-1.0-2.35","5e8950c8b739115ed69e9fc3","6662009ae78f21dd82fcd179","66620a363f6f0e1083bec4df","null","","null","","","","","","","","./tasks/HMM-beads/Images/WhiteBeadChoiceCorrect.png","","","","","","","","","",""
"image-keyboard-response","122","351235","0.0-3.0-4.0-1.0-0.36","5e8950c8b739115ed69e9fc3","6662009ae78f21dd82fcd179","66620a363f6f0e1083bec4df","471","","j","","","","","","","","./tasks/HMM-beads/Images/NewTrialWC.png","practice","0","36","1","0","1","1","false","",""
"image-keyboard-response","123","351540","0.0-3.0-4.0-1.0-1.36","5e8950c8b739115ed69e9fc3","6662009ae78f21dd82fcd179","66620a363f6f0e1083bec4df","null","","null","","","","","","","","./tasks/HMM-beads/Images/WhiteBeadChoice.png","","","","","","","","","",""
"image-keyboard-response","124","352056","0.0-3.0-4.0-1.0-2.36","5e8950c8b739115ed69e9fc3","6662009ae78f21dd82fcd179","66620a363f6f0e1083bec4df","null","","null","","","","","","","","./tasks/HMM-beads/Images/WhiteBeadChoiceWrong.png","","","","","","","","","",""
"image-keyboard-response","125","354218","0.0-3.0-4.0-1.0-0.37","5e8950c8b739115ed69e9fc3","6662009ae78f21dd82fcd179","66620a363f6f0e1083bec4df","2160","","f","","","","","","","","./tasks/HMM-beads/Images/NewTrialBC.png","practice","0","37","1","1","0","0","false","",""
"image-keyboard-response","126","354528","0.0-3.0-4.0-1.0-1.37","5e8950c8b739115ed69e9fc3","6662009ae78f21dd82fcd179","66620a363f6f0e1083bec4df","null","","null","","","","","","","","./tasks/HMM-beads/Images/BlackBeadChoice.png","","","","","","","","","",""
"image-keyboard-response","127","355045","0.0-3.0-4.0-1.0-2.37","5e8950c8b739115ed69e9fc3","6662009ae78f21dd82fcd179","66620a363f6f0e1083bec4df","null","","null","","","","","","","","./tasks/HMM-beads/Images/BlackBeadChoiceWrong.png","","","","","","","","","",""
"image-keyboard-response","128","356031","0.0-3.0-4.0-1.0-0.38","5e8950c8b739115ed69e9fc3","6662009ae78f21dd82fcd179","66620a363f6f0e1083bec4df","983","","j","","","","","","","","./tasks/HMM-beads/Images/NewTrialWC.png","practice","0","38","1","1","1","1","true","",""
"image-keyboard-response","129","356334","0.0-3.0-4.0-1.0-1.38","5e8950c8b739115ed69e9fc3","6662009ae78f21dd82fcd179","66620a363f6f0e1083bec4df","null","","null","","","","","","","","./tasks/HMM-beads/Images/WhiteBeadChoice.png","","","","","","","","","",""
"image-keyboard-response","130","356846","0.0-3.0-4.0-1.0-2.38","5e8950c8b739115ed69e9fc3","6662009ae78f21dd82fcd179","66620a363f6f0e1083bec4df","null","","null","","","","","","","","./tasks/HMM-beads/Images/WhiteBeadChoiceCorrect.png","","","","","","","","","",""
"image-keyboard-response","131","363188","0.0-3.0-4.0-1.0-0.39","5e8950c8b739115ed69e9fc3","6662009ae78f21dd82fcd179","66620a363f6f0e1083bec4df","6340","","j","","","","","","","","./tasks/HMM-beads/Images/NewTrialWC.png","practice","0","39","1","1","1","1","true","",""
"image-keyboard-response","132","363496","0.0-3.0-4.0-1.0-1.39","5e8950c8b739115ed69e9fc3","6662009ae78f21dd82fcd179","66620a363f6f0e1083bec4df","null","","null","","","","","","","","./tasks/HMM-beads/Images/WhiteBeadChoice.png","","","","","","","","","",""
"image-keyboard-response","133","364002","0.0-3.0-4.0-1.0-2.39","5e8950c8b739115ed69e9fc3","6662009ae78f21dd82fcd179","66620a363f6f0e1083bec4df","null","","null","","","","","","","","./tasks/HMM-beads/Images/WhiteBeadChoiceCorrect.png","","","","","","","","","",""
"html-keyboard-response","134","372200","0.0-3.0-4.0-2.0","5e8950c8b739115ed69e9fc3","6662009ae78f21dd82fcd179","66620a363f6f0e1083bec4df","8194",""," ","","","","","","","","","","","","","","","","","",""
"instructions","135","440471","0.0-3.0-5.0","5e8950c8b739115ed69e9fc3","6662009ae78f21dd82fcd179","66620a363f6f0e1083bec4df","68272","","","","[{""page_index"":0,""viewing_time"":48109},{""page_index"":1,""viewing_time"":1586},{""page_index"":0,""viewing_time"":13718},{""page_index"":1,""viewing_time"":4858}]","","","","","","","","","","","","","","","",""
"html-keyboard-response","136","444407","0.0-3.0-6.0-0.0","5e8950c8b739115ed69e9fc3","6662009ae78f21dd82fcd179","66620a363f6f0e1083bec4df","3933",""," ","","","","","","","","<div align=center>In this block, there will be a <b>1% chance</b> that the jar on the next trial will be different from the jar on the current trial.<br><br></div>","","","","","","","","","",""
"image-keyboard-response","137","447287","0.0-3.0-6.0-1.0-0.0","5e8950c8b739115ed69e9fc3","6662009ae78f21dd82fcd179","66620a363f6f0e1083bec4df","2878","","f","","","","","","","","./tasks/HMM-beads/Images/NoChoice.png","lowH","1","0","1","0","9","0","true","",""
"image-keyboard-response","138","447602","0.0-3.0-6.0-1.0-1.0","5e8950c8b739115ed69e9fc3","6662009ae78f21dd82fcd179","66620a363f6f0e1083bec4df","null","","null","","","","","","","","./tasks/HMM-beads/Images/BlackBeadChoice.png","","","","","","","","","",""
"image-keyboard-response","139","448109","0.0-3.0-6.0-1.0-2.0","5e8950c8b739115ed69e9fc3","6662009ae78f21dd82fcd179","66620a363f6f0e1083bec4df","null","","null","","","","","","","","./tasks/HMM-beads/Images/BlackBeadChoiceCorrect.png","","","","","","","","","",""
"image-keyboard-response","140","448964","0.0-3.0-6.0-1.0-0.1","5e8950c8b739115ed69e9fc3","6662009ae78f21dd82fcd179","66620a363f6f0e1083bec4df","853","","f","","","","","","","","./tasks/HMM-beads/Images/NewTrialBC.png","lowH","1","1","1","1","0","0","false","",""
"image-keyboard-response","141","449279","0.0-3.0-6.0-1.0-1.1","5e8950c8b739115ed69e9fc3","6662009ae78f21dd82fcd179","66620a363f6f0e1083bec4df","null","","null","","","","","","","","./tasks/HMM-beads/Images/BlackBeadChoice.png","","","","","","","","","",""
"image-keyboard-response","142","449785","0.0-3.0-6.0-1.0-2.1","5e8950c8b739115ed69e9fc3","6662009ae78f21dd82fcd179","66620a363f6f0e1083bec4df","null","","null","","","","","","","","./tasks/HMM-beads/Images/BlackBeadChoiceWrong.png","","","","","","","","","",""
"image-keyboard-response","143","451709","0.0-3.0-6.0-1.0-0.2","5e8950c8b739115ed69e9fc3","6662009ae78f21dd82fcd179","66620a363f6f0e1083bec4df","1922","","j","","","","","","","","./tasks/HMM-beads/Images/NewTrialWC.png","lowH","1","2","1","1","1","1","true","",""
"image-keyboard-response","144","452020","0.0-3.0-6.0-1.0-1.2","5e8950c8b739115ed69e9fc3","6662009ae78f21dd82fcd179","66620a363f6f0e1083bec4df","null","","null","","","","","","","","./tasks/HMM-beads/Images/WhiteBeadChoice.png","","","","","","","","","",""
"image-keyboard-response","145","452529","0.0-3.0-6.0-1.0-2.2","5e8950c8b739115ed69e9fc3","6662009ae78f21dd82fcd179","66620a363f6f0e1083bec4df","null","","null","","","","","","","","./tasks/HMM-beads/Images/WhiteBeadChoiceCorrect.png","","","","","","","","","",""
"image-keyboard-response","146","453156","0.0-3.0-6.0-1.0-0.3","5e8950c8b739115ed69e9fc3","6662009ae78f21dd82fcd179","66620a363f6f0e1083bec4df","625","","j","","","","","","","","./tasks/HMM-beads/Images/NewTrialWC.png","lowH","1","3","1","1","1","1","true","",""
"image-keyboard-response","147","453465","0.0-3.0-6.0-1.0-1.3","5e8950c8b739115ed69e9fc3","6662009ae78f21dd82fcd179","66620a363f6f0e1083bec4df","null","","null","","","","","","","","./tasks/HMM-beads/Images/WhiteBeadChoice.png","","","","","","","","","",""
"image-keyboard-response","148","453974","0.0-3.0-6.0-1.0-2.3","5e8950c8b739115ed69e9fc3","6662009ae78f21dd82fcd179","66620a363f6f0e1083bec4df","null","","null","","","","","","","","./tasks/HMM-beads/Images/WhiteBeadChoiceCorrect.png","","","","","","","","","",""
"image-keyboard-response","149","455575","0.0-3.0-6.0-1.0-0.4","5e8950c8b739115ed69e9fc3","6662009ae78f21dd82fcd179","66620a363f6f0e1083bec4df","1600","","f","","","","","","","","./tasks/HMM-beads/Images/NewTrialWC.png","lowH","1","4","1","1","1","0","false","",""
"image-keyboard-response","150","455880","0.0-3.0-6.0-1.0-1.4","5e8950c8b739115ed69e9fc3","6662009ae78f21dd82fcd179","66620a363f6f0e1083bec4df","null","","null","","","","","","","","./tasks/HMM-beads/Images/BlackBeadChoice.png","","","","","","","","","",""
"image-keyboard-response","151","456392","0.0-3.0-6.0-1.0-2.4","5e8950c8b739115ed69e9fc3","6662009ae78f21dd82fcd179","66620a363f6f0e1083bec4df","null","","null","","","","","","","","./tasks/HMM-beads/Images/BlackBeadChoiceWrong.png","","","","","","","","","",""
"image-keyboard-response","152","456838","0.0-3.0-6.0-1.0-0.5","5e8950c8b739115ed69e9fc3","6662009ae78f21dd82fcd179","66620a363f6f0e1083bec4df","444","","j","","","","","","","","./tasks/HMM-beads/Images/NewTrialWC.png","lowH","1","5","1","1","1","1","true","",""
"image-keyboard-response","153","457148","0.0-3.0-6.0-1.0-1.5","5e8950c8b739115ed69e9fc3","6662009ae78f21dd82fcd179","66620a363f6f0e1083bec4df","null","","null","","","","","","","","./tasks/HMM-beads/Images/WhiteBeadChoice.png","","","","","","","","","",""
"image-keyboard-response","154","457652","0.0-3.0-6.0-1.0-2.5","5e8950c8b739115ed69e9fc3","6662009ae78f21dd82fcd179","66620a363f6f0e1083bec4df","null","","null","","","","","","","","./tasks/HMM-beads/Images/WhiteBeadChoiceCorrect.png","","","","","","","","","",""
"image-keyboard-response","155","458397","0.0-3.0-6.0-1.0-0.6","5e8950c8b739115ed69e9fc3","6662009ae78f21dd82fcd179","66620a363f6f0e1083bec4df","742","","j","","","","","","","","./tasks/HMM-beads/Images/NewTrialWC.png","lowH","1","6","1","0","1","1","false","",""
"image-keyboard-response","156","458705","0.0-3.0-6.0-1.0-1.6","5e8950c8b739115ed69e9fc3","6662009ae78f21dd82fcd179","66620a363f6f0e1083bec4df","null","","null","","","","","","","","./tasks/HMM-beads/Images/WhiteBeadChoice.png","","","","","","","","","",""
"image-keyboard-response","157","459216","0.0-3.0-6.0-1.0-2.6","5e8950c8b739115ed69e9fc3","6662009ae78f21dd82fcd179","66620a363f6f0e1083bec4df","null","","null","","","","","","","","./tasks/HMM-beads/Images/WhiteBeadChoiceWrong.png","","","","","","","","","",""
"image-keyboard-response","158","461216","0.0-3.0-6.0-1.0-0.7","5e8950c8b739115ed69e9fc3","6662009ae78f21dd82fcd179","66620a363f6f0e1083bec4df","1998","","f","","","","","","","","./tasks/HMM-beads/Images/NewTrialBC.png","lowH","1","7","1","1","0","0","false","",""
"image-keyboard-response","159","461518","0.0-3.0-6.0-1.0-1.7","5e8950c8b739115ed69e9fc3","6662009ae78f21dd82fcd179","66620a363f6f0e1083bec4df","null","","null","","","","","","","","./tasks/HMM-beads/Images/BlackBeadChoice.png","","","","","","","","","",""
"image-keyboard-response","160","462022","0.0-3.0-6.0-1.0-2.7","5e8950c8b739115ed69e9fc3","6662009ae78f21dd82fcd179","66620a363f6f0e1083bec4df","null","","null","","","","","","","","./tasks/HMM-beads/Images/BlackBeadChoiceWrong.png","","","","","","","","","",""
"image-keyboard-response","161","463000","0.0-3.0-6.0-1.0-0.8","5e8950c8b739115ed69e9fc3","6662009ae78f21dd82fcd179","66620a363f6f0e1083bec4df","977","","j","","","","","","","","./tasks/HMM-beads/Images/NewTrialWC.png","lowH","1","8","1","1","1","1","true","",""
"image-keyboard-response","162","463305","0.0-3.0-6.0-1.0-1.8","5e8950c8b739115ed69e9fc3","6662009ae78f21dd82fcd179","66620a363f6f0e1083bec4df","null","","null","","","","","","","","./tasks/HMM-beads/Images/WhiteBeadChoice.png","","","","","","","","","",""
"image-keyboard-response","163","463809","0.0-3.0-6.0-1.0-2.8","5e8950c8b739115ed69e9fc3","6662009ae78f21dd82fcd179","66620a363f6f0e1083bec4df","null","","null","","","","","","","","./tasks/HMM-beads/Images/WhiteBeadChoiceCorrect.png","","","","","","","","","",""
"image-keyboard-response","164","464566","0.0-3.0-6.0-1.0-0.9","5e8950c8b739115ed69e9fc3","6662009ae78f21dd82fcd179","66620a363f6f0e1083bec4df","756","","j","","","","","","","","./tasks/HMM-beads/Images/NewTrialWC.png","lowH","1","9","1","1","1","1","true","",""
"image-keyboard-response","165","464871","0.0-3.0-6.0-1.0-1.9","5e8950c8b739115ed69e9fc3","6662009ae78f21dd82fcd179","66620a363f6f0e1083bec4df","null","","null","","","","","","","","./tasks/HMM-beads/Images/WhiteBeadChoice.png","","","","","","","","","",""
"image-keyboard-response","166","465382","0.0-3.0-6.0-1.0-2.9","5e8950c8b739115ed69e9fc3","6662009ae78f21dd82fcd179","66620a363f6f0e1083bec4df","null","","null","","","","","","","","./tasks/HMM-beads/Images/WhiteBeadChoiceCorrect.png","","","","","","","","","",""
"image-keyboard-response","167","465878","0.0-3.0-6.0-1.0-0.10","5e8950c8b739115ed69e9fc3","6662009ae78f21dd82fcd179","66620a363f6f0e1083bec4df","494","","j","","","","","","","","./tasks/HMM-beads/Images/NewTrialWC.png","lowH","1","10","1","1","1","1","true","",""
"image-keyboard-response","168","466182","0.0-3.0-6.0-1.0-1.10","5e8950c8b739115ed69e9fc3","6662009ae78f21dd82fcd179","66620a363f6f0e1083bec4df","null","","null","","","","","","","","./tasks/HMM-beads/Images/WhiteBeadChoice.png","","","","","","","","","",""
"image-keyboard-response","169","466689","0.0-3.0-6.0-1.0-2.10","5e8950c8b739115ed69e9fc3","6662009ae78f21dd82fcd179","66620a363f6f0e1083bec4df","null","","null","","","","","","","","./tasks/HMM-beads/Images/WhiteBeadChoiceCorrect.png","","","","","","","","","",""
"image-keyboard-response","170","467615","0.0-3.0-6.0-1.0-0.11","5e8950c8b739115ed69e9fc3","6662009ae78f21dd82fcd179","66620a363f6f0e1083bec4df","925","","j","","","","","","","","./tasks/HMM-beads/Images/NewTrialWC.png","lowH","1","11","1","1","1","1","true","",""
"image-keyboard-response","171","467924","0.0-3.0-6.0-1.0-1.11","5e8950c8b739115ed69e9fc3","6662009ae78f21dd82fcd179","66620a363f6f0e1083bec4df","null","","null","","","","","","","","./tasks/HMM-beads/Images/WhiteBeadChoice.png","","","","","","","","","",""
"image-keyboard-response","172","468426","0.0-3.0-6.0-1.0-2.11","5e8950c8b739115ed69e9fc3","6662009ae78f21dd82fcd179","66620a363f6f0e1083bec4df","null","","null","","","","","","","","./tasks/HMM-beads/Images/WhiteBeadChoiceCorrect.png","","","","","","","","","",""
"image-keyboard-response","173","468840","0.0-3.0-6.0-1.0-0.12","5e8950c8b739115ed69e9fc3","6662009ae78f21dd82fcd179","66620a363f6f0e1083bec4df","413","","f","","","","","","","","./tasks/HMM-beads/Images/NewTrialWC.png","lowH","1","12","1","1","1","0","false","",""
"image-keyboard-response","174","469142","0.0-3.0-6.0-1.0-1.12","5e8950c8b739115ed69e9fc3","6662009ae78f21dd82fcd179","66620a363f6f0e1083bec4df","null","","null","","","","","","","","./tasks/HMM-beads/Images/BlackBeadChoice.png","","","","","","","","","",""
"image-keyboard-response","175","469652","0.0-3.0-6.0-1.0-2.12","5e8950c8b739115ed69e9fc3","6662009ae78f21dd82fcd179","66620a363f6f0e1083bec4df","null","","null","","","","","","","","./tasks/HMM-beads/Images/BlackBeadChoiceWrong.png","","","","","","","","","",""
"image-keyboard-response","176","470052","0.0-3.0-6.0-1.0-0.13","5e8950c8b739115ed69e9fc3","6662009ae78f21dd82fcd179","66620a363f6f0e1083bec4df","398","","j","","","","","","","","./tasks/HMM-beads/Images/NewTrialWC.png","lowH","1","13","1","0","1","1","false","",""
"image-keyboard-response","177","470354","0.0-3.0-6.0-1.0-1.13","5e8950c8b739115ed69e9fc3","6662009ae78f21dd82fcd179","66620a363f6f0e1083bec4df","null","","null","","","","","","","","./tasks/HMM-beads/Images/WhiteBeadChoice.png","","","","","","","","","",""
"image-keyboard-response","178","470870","0.0-3.0-6.0-1.0-2.13","5e8950c8b739115ed69e9fc3","6662009ae78f21dd82fcd179","66620a363f6f0e1083bec4df","null","","null","","","","","","","","./tasks/HMM-beads/Images/WhiteBeadChoiceWrong.png","","","","","","","","","",""
"image-keyboard-response","179","471586","0.0-3.0-6.0-1.0-0.14","5e8950c8b739115ed69e9fc3","6662009ae78f21dd82fcd179","66620a363f6f0e1083bec4df","715","","f","","","","","","","","./tasks/HMM-beads/Images/NewTrialBC.png","lowH","1","14","1","0","0","0","true","",""
"image-keyboard-response","180","471895","0.0-3.0-6.0-1.0-1.14","5e8950c8b739115ed69e9fc3","6662009ae78f21dd82fcd179","66620a363f6f0e1083bec4df","null","","null","","","","","","","","./tasks/HMM-beads/Images/BlackBeadChoice.png","","","","","","","","","",""
"image-keyboard-response","181","472404","0.0-3.0-6.0-1.0-2.14","5e8950c8b739115ed69e9fc3","6662009ae78f21dd82fcd179","66620a363f6f0e1083bec4df","null","","null","","","","","","","","./tasks/HMM-beads/Images/BlackBeadChoiceCorrect.png","","","","","","","","","",""
"image-keyboard-response","182","472917","0.0-3.0-6.0-1.0-0.15","5e8950c8b739115ed69e9fc3","6662009ae78f21dd82fcd179","66620a363f6f0e1083bec4df","512","","f","","","","","","","","./tasks/HMM-beads/Images/NewTrialBC.png","lowH","1","15","1","1","0","0","false","",""
"image-keyboard-response","183","473234","0.0-3.0-6.0-1.0-1.15","5e8950c8b739115ed69e9fc3","6662009ae78f21dd82fcd179","66620a363f6f0e1083bec4df","null","","null","","","","","","","","./tasks/HMM-beads/Images/BlackBeadChoice.png","","","","","","","","","",""
"image-keyboard-response","184","473742","0.0-3.0-6.0-1.0-2.15","5e8950c8b739115ed69e9fc3","6662009ae78f21dd82fcd179","66620a363f6f0e1083bec4df","null","","null","","","","","","","","./tasks/HMM-beads/Images/BlackBeadChoiceWrong.png","","","","","","","","","",""
"image-keyboard-response","185","474522","0.0-3.0-6.0-1.0-0.16","5e8950c8b739115ed69e9fc3","6662009ae78f21dd82fcd179","66620a363f6f0e1083bec4df","778","","j","","","","","","","","./tasks/HMM-beads/Images/NewTrialWC.png","lowH","1","16","1","1","1","1","true","",""
"image-keyboard-response","186","474830","0.0-3.0-6.0-1.0-1.16","5e8950c8b739115ed69e9fc3","6662009ae78f21dd82fcd179","66620a363f6f0e1083bec4df","null","","null","","","","","","","","./tasks/HMM-beads/Images/WhiteBeadChoice.png","","","","","","","","","",""
"image-keyboard-response","187","475342","0.0-3.0-6.0-1.0-2.16","5e8950c8b739115ed69e9fc3","6662009ae78f21dd82fcd179","66620a363f6f0e1083bec4df","null","","null","","","","","","","","./tasks/HMM-beads/Images/WhiteBeadChoiceCorrect.png","","","","","","","","","",""
"image-keyboard-response","188","476344","0.0-3.0-6.0-1.0-0.17","5e8950c8b739115ed69e9fc3","6662009ae78f21dd82fcd179","66620a363f6f0e1083bec4df","1000","","j","","","","","","","","./tasks/HMM-beads/Images/NewTrialWC.png","lowH","1","17","1","1","1","1","true","",""
"image-keyboard-response","189","476654","0.0-3.0-6.0-1.0-1.17","5e8950c8b739115ed69e9fc3","6662009ae78f21dd82fcd179","66620a363f6f0e1083bec4df","null","","null","","","","","","","","./tasks/HMM-beads/Images/WhiteBeadChoice.png","","","","","","","","","",""
"image-keyboard-response","190","477162","0.0-3.0-6.0-1.0-2.17","5e8950c8b739115ed69e9fc3","6662009ae78f21dd82fcd179","66620a363f6f0e1083bec4df","null","","null","","","","","","","","./tasks/HMM-beads/Images/WhiteBeadChoiceCorrect.png","","","","","","","","","",""
"image-keyboard-response","191","477532","0.0-3.0-6.0-1.0-0.18","5e8950c8b739115ed69e9fc3","6662009ae78f21dd82fcd179","66620a363f6f0e1083bec4df","369","","j","","","","","","","","./tasks/HMM-beads/Images/NewTrialWC.png","lowH","1","18","1","1","1","1","true","",""
"image-keyboard-response","192","477836","0.0-3.0-6.0-1.0-1.18","5e8950c8b739115ed69e9fc3","6662009ae78f21dd82fcd179","66620a363f6f0e1083bec4df","null","","null","","","","","","","","./tasks/HMM-beads/Images/WhiteBeadChoice.png","","","","","","","","","",""
"image-keyboard-response","193","478340","0.0-3.0-6.0-1.0-2.18","5e8950c8b739115ed69e9fc3","6662009ae78f21dd82fcd179","66620a363f6f0e1083bec4df","null","","null","","","","","","","","./tasks/HMM-beads/Images/WhiteBeadChoiceCorrect.png","","","","","","","","","",""
"image-keyboard-response","194","478711","0.0-3.0-6.0-1.0-0.19","5e8950c8b739115ed69e9fc3","6662009ae78f21dd82fcd179","66620a363f6f0e1083bec4df","368","","j","","","","","","","","./tasks/HMM-beads/Images/NewTrialWC.png","lowH","1","19","1","1","1","1","true","",""
"image-keyboard-response","195","479025","0.0-3.0-6.0-1.0-1.19","5e8950c8b739115ed69e9fc3","6662009ae78f21dd82fcd179","66620a363f6f0e1083bec4df","null","","null","","","","","","","","./tasks/HMM-beads/Images/WhiteBeadChoice.png","","","","","","","","","",""
"image-keyboard-response","196","479533","0.0-3.0-6.0-1.0-2.19","5e8950c8b739115ed69e9fc3","6662009ae78f21dd82fcd179","66620a363f6f0e1083bec4df","null","","null","","","","","","","","./tasks/HMM-beads/Images/WhiteBeadChoiceCorrect.png","","","","","","","","","",""
"image-keyboard-response","197","480428","0.0-3.0-6.0-1.0-0.20","5e8950c8b739115ed69e9fc3","6662009ae78f21dd82fcd179","66620a363f6f0e1083bec4df","894","","f","","","","","","","","./tasks/HMM-beads/Images/NewTrialWC.png","lowH","1","20","1","1","1","0","false","",""
"image-keyboard-response","198","480737","0.0-3.0-6.0-1.0-1.20","5e8950c8b739115ed69e9fc3","6662009ae78f21dd82fcd179","66620a363f6f0e1083bec4df","null","","null","","","","","","","","./tasks/HMM-beads/Images/BlackBeadChoice.png","","","","","","","","","",""
"image-keyboard-response","199","481247","0.0-3.0-6.0-1.0-2.20","5e8950c8b739115ed69e9fc3","6662009ae78f21dd82fcd179","66620a363f6f0e1083bec4df","null","","null","","","","","","","","./tasks/HMM-beads/Images/BlackBeadChoiceWrong.png","","","","","","","","","",""
"image-keyboard-response","200","481662","0.0-3.0-6.0-1.0-0.21","5e8950c8b739115ed69e9fc3","6662009ae78f21dd82fcd179","66620a363f6f0e1083bec4df","413","","f","","","","","","","","./tasks/HMM-beads/Images/NewTrialWC.png","lowH","1","21","1","1","1","0","false","",""
"image-keyboard-response","201","481968","0.0-3.0-6.0-1.0-1.21","5e8950c8b739115ed69e9fc3","6662009ae78f21dd82fcd179","66620a363f6f0e1083bec4df","null","","null","","","","","","","","./tasks/HMM-beads/Images/BlackBeadChoice.png","","","","","","","","","",""
"image-keyboard-response","202","482479","0.0-3.0-6.0-1.0-2.21","5e8950c8b739115ed69e9fc3","6662009ae78f21dd82fcd179","66620a363f6f0e1083bec4df","null","","null","","","","","","","","./tasks/HMM-beads/Images/BlackBeadChoiceWrong.png","","","","","","","","","",""
"image-keyboard-response","203","483076","0.0-3.0-6.0-1.0-0.22","5e8950c8b739115ed69e9fc3","6662009ae78f21dd82fcd179","66620a363f6f0e1083bec4df","596","","f","","","","","","","","./tasks/HMM-beads/Images/NewTrialWC.png","lowH","1","22","1","1","1","0","false","",""
"image-keyboard-response","204","483387","0.0-3.0-6.0-1.0-1.22","5e8950c8b739115ed69e9fc3","6662009ae78f21dd82fcd179","66620a363f6f0e1083bec4df","null","","null","","","","","","","","./tasks/HMM-beads/Images/BlackBeadChoice.png","","","","","","","","","",""
"image-keyboard-response","205","483901","0.0-3.0-6.0-1.0-2.22","5e8950c8b739115ed69e9fc3","6662009ae78f21dd82fcd179","66620a363f6f0e1083bec4df","null","","null","","","","","","","","./tasks/HMM-beads/Images/BlackBeadChoiceWrong.png","","","","","","","","","",""
"image-keyboard-response","206","483955","0.0-3.0-6.0-1.0-0.23","5e8950c8b739115ed69e9fc3","6662009ae78f21dd82fcd179","66620a363f6f0e1083bec4df","53","","j","","","","","","","","./tasks/HMM-beads/Images/NewTrialWC.png","lowH","1","23","1","1","1","1","true","",""
"image-keyboard-response","207","484258","0.0-3.0-6.0-1.0-1.23","5e8950c8b739115ed69e9fc3","6662009ae78f21dd82fcd179","66620a363f6f0e1083bec4df","null","","null","","","","","","","","./tasks/HMM-beads/Images/WhiteBeadChoice.png","","","","","","","","","",""
"image-keyboard-response","208","484765","0.0-3.0-6.0-1.0-2.23","5e8950c8b739115ed69e9fc3","6662009ae78f21dd82fcd179","66620a363f6f0e1083bec4df","null","","null","","","","","","","","./tasks/HMM-beads/Images/WhiteBeadChoiceCorrect.png","","","","","","","","","",""
"image-keyboard-response","209","485128","0.0-3.0-6.0-1.0-0.24","5e8950c8b739115ed69e9fc3","6662009ae78f21dd82fcd179","66620a363f6f0e1083bec4df","360","","j","","","","","","","","./tasks/HMM-beads/Images/NewTrialWC.png","lowH","1","24","1","0","1","1","false","",""
"image-keyboard-response","210","485434","0.0-3.0-6.0-1.0-1.24","5e8950c8b739115ed69e9fc3","6662009ae78f21dd82fcd179","66620a363f6f0e1083bec4df","null","","null","","","","","","","","./tasks/HMM-beads/Images/WhiteBeadChoice.png","","","","","","","","","",""
"image-keyboard-response","211","485951","0.0-3.0-6.0-1.0-2.24","5e8950c8b739115ed69e9fc3","6662009ae78f21dd82fcd179","66620a363f6f0e1083bec4df","null","","null","","","","","","","","./tasks/HMM-beads/Images/WhiteBeadChoiceWrong.png","","","","","","","","","",""
"image-keyboard-response","212","487483","0.0-3.0-6.0-1.0-0.25","5e8950c8b739115ed69e9fc3","6662009ae78f21dd82fcd179","66620a363f6f0e1083bec4df","1530","","j","","","","","","","","./tasks/HMM-beads/Images/NewTrialBC.png","lowH","1","25","1","1","0","1","true","",""
"image-keyboard-response","213","487796","0.0-3.0-6.0-1.0-1.25","5e8950c8b739115ed69e9fc3","6662009ae78f21dd82fcd179","66620a363f6f0e1083bec4df","null","","null","","","","","","","","./tasks/HMM-beads/Images/WhiteBeadChoice.png","","","","","","","","","",""
"image-keyboard-response","214","488307","0.0-3.0-6.0-1.0-2.25","5e8950c8b739115ed69e9fc3","6662009ae78f21dd82fcd179","66620a363f6f0e1083bec4df","null","","null","","","","","","","","./tasks/HMM-beads/Images/WhiteBeadChoiceCorrect.png","","","","","","","","","",""
"image-keyboard-response","215","488730","0.0-3.0-6.0-1.0-0.26","5e8950c8b739115ed69e9fc3","6662009ae78f21dd82fcd179","66620a363f6f0e1083bec4df","420","","j","","","","","","","","./tasks/HMM-beads/Images/NewTrialWC.png","lowH","1","26","1","0","1","1","false","",""
"image-keyboard-response","216","489040","0.0-3.0-6.0-1.0-1.26","5e8950c8b739115ed69e9fc3","6662009ae78f21dd82fcd179","66620a363f6f0e1083bec4df","null","","null","","","","","","","","./tasks/HMM-beads/Images/WhiteBeadChoice.png","","","","","","","","","",""
"image-keyboard-response","217","489553","0.0-3.0-6.0-1.0-2.26","5e8950c8b739115ed69e9fc3","6662009ae78f21dd82fcd179","66620a363f6f0e1083bec4df","null","","null","","","","","","","","./tasks/HMM-beads/Images/WhiteBeadChoiceWrong.png","","","","","","","","","",""
"image-keyboard-response","218","490194","0.0-3.0-6.0-1.0-0.27","5e8950c8b739115ed69e9fc3","6662009ae78f21dd82fcd179","66620a363f6f0e1083bec4df","640","","j","","","","","","","","./tasks/HMM-beads/Images/NewTrialBC.png","lowH","1","27","1","1","0","1","true","",""
"image-keyboard-response","219","490506","0.0-3.0-6.0-1.0-1.27","5e8950c8b739115ed69e9fc3","6662009ae78f21dd82fcd179","66620a363f6f0e1083bec4df","null","","null","","","","","","","","./tasks/HMM-beads/Images/WhiteBeadChoice.png","","","","","","","","","",""
"image-keyboard-response","220","491017","0.0-3.0-6.0-1.0-2.27","5e8950c8b739115ed69e9fc3","6662009ae78f21dd82fcd179","66620a363f6f0e1083bec4df","null","","null","","","","","","","","./tasks/HMM-beads/Images/WhiteBeadChoiceCorrect.png","","","","","","","","","",""
"image-keyboard-response","221","491622","0.0-3.0-6.0-1.0-0.28","5e8950c8b739115ed69e9fc3","6662009ae78f21dd82fcd179","66620a363f6f0e1083bec4df","603","","j","","","","","","","","./tasks/HMM-beads/Images/NewTrialWC.png","lowH","1","28","1","1","1","1","true","",""
"image-keyboard-response","222","491932","0.0-3.0-6.0-1.0-1.28","5e8950c8b739115ed69e9fc3","6662009ae78f21dd82fcd179","66620a363f6f0e1083bec4df","null","","null","","","","","","","","./tasks/HMM-beads/Images/WhiteBeadChoice.png","","","","","","","","","",""
"image-keyboard-response","223","492450","0.0-3.0-6.0-1.0-2.28","5e8950c8b739115ed69e9fc3","6662009ae78f21dd82fcd179","66620a363f6f0e1083bec4df","null","","null","","","","","","","","./tasks/HMM-beads/Images/WhiteBeadChoiceCorrect.png","","","","","","","","","",""
"image-keyboard-response","224","492869","0.0-3.0-6.0-1.0-0.29","5e8950c8b739115ed69e9fc3","6662009ae78f21dd82fcd179","66620a363f6f0e1083bec4df","416","","j","","","","","","","","./tasks/HMM-beads/Images/NewTrialWC.png","lowH","1","29","1","1","1","1","true","",""
"image-keyboard-response","225","493173","0.0-3.0-6.0-1.0-1.29","5e8950c8b739115ed69e9fc3","6662009ae78f21dd82fcd179","66620a363f6f0e1083bec4df","null","","null","","","","","","","","./tasks/HMM-beads/Images/WhiteBeadChoice.png","","","","","","","","","",""
"image-keyboard-response","226","493679","0.0-3.0-6.0-1.0-2.29","5e8950c8b739115ed69e9fc3","6662009ae78f21dd82fcd179","66620a363f6f0e1083bec4df","null","","null","","","","","","","","./tasks/HMM-beads/Images/WhiteBeadChoiceCorrect.png","","","","","","","","","",""
"image-keyboard-response","227","494077","0.0-3.0-6.0-1.0-0.30","5e8950c8b739115ed69e9fc3","6662009ae78f21dd82fcd179","66620a363f6f0e1083bec4df","397","","f","","","","","","","","./tasks/HMM-beads/Images/NewTrialWC.png","lowH","1","30","1","1","1","0","false","",""
"image-keyboard-response","228","494379","0.0-3.0-6.0-1.0-1.30","5e8950c8b739115ed69e9fc3","6662009ae78f21dd82fcd179","66620a363f6f0e1083bec4df","null","","null","","","","","","","","./tasks/HMM-beads/Images/BlackBeadChoice.png","","","","","","","","","",""
"image-keyboard-response","229","494885","0.0-3.0-6.0-1.0-2.30","5e8950c8b739115ed69e9fc3","6662009ae78f21dd82fcd179","66620a363f6f0e1083bec4df","null","","null","","","","","","","","./tasks/HMM-beads/Images/BlackBeadChoiceWrong.png","","","","","","","","","",""
"image-keyboard-response","230","495020","0.0-3.0-6.0-1.0-0.31","5e8950c8b739115ed69e9fc3","6662009ae78f21dd82fcd179","66620a363f6f0e1083bec4df","134","","j","","","","","","","","./tasks/HMM-beads/Images/NewTrialWC.png","lowH","1","31","1","1","1","1","true","",""
"image-keyboard-response","231","495329","0.0-3.0-6.0-1.0-1.31","5e8950c8b739115ed69e9fc3","6662009ae78f21dd82fcd179","66620a363f6f0e1083bec4df","null","","null","","","","","","","","./tasks/HMM-beads/Images/WhiteBeadChoice.png","","","","","","","","","",""
"image-keyboard-response","232","495835","0.0-3.0-6.0-1.0-2.31","5e8950c8b739115ed69e9fc3","6662009ae78f21dd82fcd179","66620a363f6f0e1083bec4df","null","","null","","","","","","","","./tasks/HMM-beads/Images/WhiteBeadChoiceCorrect.png","","","","","","","","","",""
"image-keyboard-response","233","496051","0.0-3.0-6.0-1.0-0.32","5e8950c8b739115ed69e9fc3","6662009ae78f21dd82fcd179","66620a363f6f0e1083bec4df","216","","j","","","","","","","","./tasks/HMM-beads/Images/NewTrialWC.png","lowH","1","32","1","1","1","1","true","",""
"image-keyboard-response","234","496366","0.0-3.0-6.0-1.0-1.32","5e8950c8b739115ed69e9fc3","6662009ae78f21dd82fcd179","66620a363f6f0e1083bec4df","null","","null","","","","","","","","./tasks/HMM-beads/Images/WhiteBeadChoice.png","","","","","","","","","",""
"image-keyboard-response","235","496872","0.0-3.0-6.0-1.0-2.32","5e8950c8b739115ed69e9fc3","6662009ae78f21dd82fcd179","66620a363f6f0e1083bec4df","null","","null","","","","","","","","./tasks/HMM-beads/Images/WhiteBeadChoiceCorrect.png","","","","","","","","","",""
"image-keyboard-response","236","497435","0.0-3.0-6.0-1.0-0.33","5e8950c8b739115ed69e9fc3","6662009ae78f21dd82fcd179","66620a363f6f0e1083bec4df","562","","j","","","","","","","","./tasks/HMM-beads/Images/NewTrialWC.png","lowH","1","33","1","1","1","1","true","",""
"image-keyboard-response","237","497746","0.0-3.0-6.0-1.0-1.33","5e8950c8b739115ed69e9fc3","6662009ae78f21dd82fcd179","66620a363f6f0e1083bec4df","null","","null","","","","","","","","./tasks/HMM-beads/Images/WhiteBeadChoice.png","","","","","","","","","",""
"image-keyboard-response","238","498253","0.0-3.0-6.0-1.0-2.33","5e8950c8b739115ed69e9fc3","6662009ae78f21dd82fcd179","66620a363f6f0e1083bec4df","null","","null","","","","","","","","./tasks/HMM-beads/Images/WhiteBeadChoiceCorrect.png","","","","","","","","","",""
"image-keyboard-response","239","498610","0.0-3.0-6.0-1.0-0.34","5e8950c8b739115ed69e9fc3","6662009ae78f21dd82fcd179","66620a363f6f0e1083bec4df","356","","f","","","","","","","","./tasks/HMM-beads/Images/NewTrialWC.png","lowH","1","34","1","1","1","0","false","",""
"image-keyboard-response","240","498919","0.0-3.0-6.0-1.0-1.34","5e8950c8b739115ed69e9fc3","6662009ae78f21dd82fcd179","66620a363f6f0e1083bec4df","null","","null","","","","","","","","./tasks/HMM-beads/Images/BlackBeadChoice.png","","","","","","","","","",""
"image-keyboard-response","241","499428","0.0-3.0-6.0-1.0-2.34","5e8950c8b739115ed69e9fc3","6662009ae78f21dd82fcd179","66620a363f6f0e1083bec4df","null","","null","","","","","","","","./tasks/HMM-beads/Images/BlackBeadChoiceWrong.png","","","","","","","","","",""
"image-keyboard-response","242","500072","0.0-3.0-6.0-1.0-0.35","5e8950c8b739115ed69e9fc3","6662009ae78f21dd82fcd179","66620a363f6f0e1083bec4df","643","","j","","","","","","","","./tasks/HMM-beads/Images/NewTrialWC.png","lowH","1","35","1","1","1","1","true","",""
"image-keyboard-response","243","500378","0.0-3.0-6.0-1.0-1.35","5e8950c8b739115ed69e9fc3","6662009ae78f21dd82fcd179","66620a363f6f0e1083bec4df","null","","null","","","","","","","","./tasks/HMM-beads/Images/WhiteBeadChoice.png","","","","","","","","","",""
"image-keyboard-response","244","500886","0.0-3.0-6.0-1.0-2.35","5e8950c8b739115ed69e9fc3","6662009ae78f21dd82fcd179","66620a363f6f0e1083bec4df","null","","null","","","","","","","","./tasks/HMM-beads/Images/WhiteBeadChoiceCorrect.png","","","","","","","","","",""
"image-keyboard-response","245","501297","0.0-3.0-6.0-1.0-0.36","5e8950c8b739115ed69e9fc3","6662009ae78f21dd82fcd179","66620a363f6f0e1083bec4df","409","","j","","","","","","","","./tasks/HMM-beads/Images/NewTrialWC.png","lowH","1","36","1","1","1","1","true","",""
"image-keyboard-response","246","501602","0.0-3.0-6.0-1.0-1.36","5e8950c8b739115ed69e9fc3","6662009ae78f21dd82fcd179","66620a363f6f0e1083bec4df","null","","null","","","","","","","","./tasks/HMM-beads/Images/WhiteBeadChoice.png","","","","","","","","","",""
"image-keyboard-response","247","502109","0.0-3.0-6.0-1.0-2.36","5e8950c8b739115ed69e9fc3","6662009ae78f21dd82fcd179","66620a363f6f0e1083bec4df","null","","null","","","","","","","","./tasks/HMM-beads/Images/WhiteBeadChoiceCorrect.png","","","","","","","","","",""
"image-keyboard-response","248","502310","0.0-3.0-6.0-1.0-0.37","5e8950c8b739115ed69e9fc3","6662009ae78f21dd82fcd179","66620a363f6f0e1083bec4df","199","","j","","","","","","","","./tasks/HMM-beads/Images/NewTrialWC.png","lowH","1","37","1","1","1","1","true","",""
"image-keyboard-response","249","502616","0.0-3.0-6.0-1.0-1.37","5e8950c8b739115ed69e9fc3","6662009ae78f21dd82fcd179","66620a363f6f0e1083bec4df","null","","null","","","","","","","","./tasks/HMM-beads/Images/WhiteBeadChoice.png","","","","","","","","","",""
"image-keyboard-response","250","503123","0.0-3.0-6.0-1.0-2.37","5e8950c8b739115ed69e9fc3","6662009ae78f21dd82fcd179","66620a363f6f0e1083bec4df","null","","null","","","","","","","","./tasks/HMM-beads/Images/WhiteBeadChoiceCorrect.png","","","","","","","","","",""
"image-keyboard-response","251","503284","0.0-3.0-6.0-1.0-0.38","5e8950c8b739115ed69e9fc3","6662009ae78f21dd82fcd179","66620a363f6f0e1083bec4df","159","","j","","","","","","","","./tasks/HMM-beads/Images/NewTrialWC.png","lowH","1","38","1","1","1","1","true","",""
"image-keyboard-response","252","503592","0.0-3.0-6.0-1.0-1.38","5e8950c8b739115ed69e9fc3","6662009ae78f21dd82fcd179","66620a363f6f0e1083bec4df","null","","null","","","","","","","","./tasks/HMM-beads/Images/WhiteBeadChoice.png","","","","","","","","","",""
"image-keyboard-response","253","504099","0.0-3.0-6.0-1.0-2.38","5e8950c8b739115ed69e9fc3","6662009ae78f21dd82fcd179","66620a363f6f0e1083bec4df","null","","null","","","","","","","","./tasks/HMM-beads/Images/WhiteBeadChoiceCorrect.png","","","","","","","","","",""
"image-keyboard-response","254","504335","0.0-3.0-6.0-1.0-0.39","5e8950c8b739115ed69e9fc3","6662009ae78f21dd82fcd179","66620a363f6f0e1083bec4df","234","","j","","","","","","","","./tasks/HMM-beads/Images/NewTrialWC.png","lowH","1","39","1","1","1","1","true","",""
"image-keyboard-response","255","504649","0.0-3.0-6.0-1.0-1.39","5e8950c8b739115ed69e9fc3","6662009ae78f21dd82fcd179","66620a363f6f0e1083bec4df","null","","null","","","","","","","","./tasks/HMM-beads/Images/WhiteBeadChoice.png","","","","","","","","","",""
"image-keyboard-response","256","505154","0.0-3.0-6.0-1.0-2.39","5e8950c8b739115ed69e9fc3","6662009ae78f21dd82fcd179","66620a363f6f0e1083bec4df","null","","null","","","","","","","","./tasks/HMM-beads/Images/WhiteBeadChoiceCorrect.png","","","","","","","","","",""
"image-keyboard-response","257","505187","0.0-3.0-6.0-1.0-0.40","5e8950c8b739115ed69e9fc3","6662009ae78f21dd82fcd179","66620a363f6f0e1083bec4df","32","","j","","","","","","","","./tasks/HMM-beads/Images/NewTrialWC.png","lowH","1","40","1","1","1","1","true","",""
"image-keyboard-response","258","505493","0.0-3.0-6.0-1.0-1.40","5e8950c8b739115ed69e9fc3","6662009ae78f21dd82fcd179","66620a363f6f0e1083bec4df","null","","null","","","","","","","","./tasks/HMM-beads/Images/WhiteBeadChoice.png","","","","","","","","","",""
"image-keyboard-response","259","506002","0.0-3.0-6.0-1.0-2.40","5e8950c8b739115ed69e9fc3","6662009ae78f21dd82fcd179","66620a363f6f0e1083bec4df","null","","null","","","","","","","","./tasks/HMM-beads/Images/WhiteBeadChoiceCorrect.png","","","","","","","","","",""
"image-keyboard-response","260","506683","0.0-3.0-6.0-1.0-0.41","5e8950c8b739115ed69e9fc3","6662009ae78f21dd82fcd179","66620a363f6f0e1083bec4df","679","","j","","","","","","","","./tasks/HMM-beads/Images/NewTrialWC.png","lowH","1","41","1","1","1","1","true","",""
"image-keyboard-response","261","506990","0.0-3.0-6.0-1.0-1.41","5e8950c8b739115ed69e9fc3","6662009ae78f21dd82fcd179","66620a363f6f0e1083bec4df","null","","null","","","","","","","","./tasks/HMM-beads/Images/WhiteBeadChoice.png","","","","","","","","","",""
"image-keyboard-response","262","507498","0.0-3.0-6.0-1.0-2.41","5e8950c8b739115ed69e9fc3","6662009ae78f21dd82fcd179","66620a363f6f0e1083bec4df","null","","null","","","","","","","","./tasks/HMM-beads/Images/WhiteBeadChoiceCorrect.png","","","","","","","","","",""
"image-keyboard-response","263","507527","0.0-3.0-6.0-1.0-0.42","5e8950c8b739115ed69e9fc3","6662009ae78f21dd82fcd179","66620a363f6f0e1083bec4df","29","","j","","","","","","","","./tasks/HMM-beads/Images/NewTrialWC.png","lowH","1","42","1","1","1","1","true","",""
"image-keyboard-response","264","507836","0.0-3.0-6.0-1.0-1.42","5e8950c8b739115ed69e9fc3","6662009ae78f21dd82fcd179","66620a363f6f0e1083bec4df","null","","null","","","","","","","","./tasks/HMM-beads/Images/WhiteBeadChoice.png","","","","","","","","","",""
"image-keyboard-response","265","508344","0.0-3.0-6.0-1.0-2.42","5e8950c8b739115ed69e9fc3","6662009ae78f21dd82fcd179","66620a363f6f0e1083bec4df","null","","null","","","","","","","","./tasks/HMM-beads/Images/WhiteBeadChoiceCorrect.png","","","","","","","","","",""
"image-keyboard-response","266","508904","0.0-3.0-6.0-1.0-0.43","5e8950c8b739115ed69e9fc3","6662009ae78f21dd82fcd179","66620a363f6f0e1083bec4df","558","","f","","","","","","","","./tasks/HMM-beads/Images/NewTrialWC.png","lowH","1","43","1","1","1","0","false","",""
"image-keyboard-response","267","509216","0.0-3.0-6.0-1.0-1.43","5e8950c8b739115ed69e9fc3","6662009ae78f21dd82fcd179","66620a363f6f0e1083bec4df","null","","null","","","","","","","","./tasks/HMM-beads/Images/BlackBeadChoice.png","","","","","","","","","",""
"image-keyboard-response","268","509729","0.0-3.0-6.0-1.0-2.43","5e8950c8b739115ed69e9fc3","6662009ae78f21dd82fcd179","66620a363f6f0e1083bec4df","null","","null","","","","","","","","./tasks/HMM-beads/Images/BlackBeadChoiceWrong.png","","","","","","","","","",""
"image-keyboard-response","269","510242","0.0-3.0-6.0-1.0-0.44","5e8950c8b739115ed69e9fc3","6662009ae78f21dd82fcd179","66620a363f6f0e1083bec4df","510","","j","","","","","","","","./tasks/HMM-beads/Images/NewTrialWC.png","lowH","1","44","1","1","1","1","true","",""
"image-keyboard-response","270","510545","0.0-3.0-6.0-1.0-1.44","5e8950c8b739115ed69e9fc3","6662009ae78f21dd82fcd179","66620a363f6f0e1083bec4df","null","","null","","","","","","","","./tasks/HMM-beads/Images/WhiteBeadChoice.png","","","","","","","","","",""
"image-keyboard-response","271","511049","0.0-3.0-6.0-1.0-2.44","5e8950c8b739115ed69e9fc3","6662009ae78f21dd82fcd179","66620a363f6f0e1083bec4df","null","","null","","","","","","","","./tasks/HMM-beads/Images/WhiteBeadChoiceCorrect.png","","","","","","","","","",""
"image-keyboard-response","272","512020","0.0-3.0-6.0-1.0-0.45","5e8950c8b739115ed69e9fc3","6662009ae78f21dd82fcd179","66620a363f6f0e1083bec4df","969","","j","","","","","","","","./tasks/HMM-beads/Images/NewTrialWC.png","lowH","1","45","1","1","1","1","true","",""
"image-keyboard-response","273","512322","0.0-3.0-6.0-1.0-1.45","5e8950c8b739115ed69e9fc3","6662009ae78f21dd82fcd179","66620a363f6f0e1083bec4df","null","","null","","","","","","","","./tasks/HMM-beads/Images/WhiteBeadChoice.png","","","","","","","","","",""
"image-keyboard-response","274","512833","0.0-3.0-6.0-1.0-2.45","5e8950c8b739115ed69e9fc3","6662009ae78f21dd82fcd179","66620a363f6f0e1083bec4df","null","","null","","","","","","","","./tasks/HMM-beads/Images/WhiteBeadChoiceCorrect.png","","","","","","","","","",""
"image-keyboard-response","275","517888","0.0-3.0-6.0-1.0-0.46","5e8950c8b739115ed69e9fc3","6662009ae78f21dd82fcd179","66620a363f6f0e1083bec4df","5053","","j","","","","","","","","./tasks/HMM-beads/Images/NewTrialWC.png","lowH","1","46","1","1","1","1","true","",""
"image-keyboard-response","276","518197","0.0-3.0-6.0-1.0-1.46","5e8950c8b739115ed69e9fc3","6662009ae78f21dd82fcd179","66620a363f6f0e1083bec4df","null","","null","","","","","","","","./tasks/HMM-beads/Images/WhiteBeadChoice.png","","","","","","","","","",""
"image-keyboard-response","277","518707","0.0-3.0-6.0-1.0-2.46","5e8950c8b739115ed69e9fc3","6662009ae78f21dd82fcd179","66620a363f6f0e1083bec4df","null","","null","","","","","","","","./tasks/HMM-beads/Images/WhiteBeadChoiceCorrect.png","","","","","","","","","",""
"image-keyboard-response","278","519210","0.0-3.0-6.0-1.0-0.47","5e8950c8b739115ed69e9fc3","6662009ae78f21dd82fcd179","66620a363f6f0e1083bec4df","501","","j","","","","","","","","./tasks/HMM-beads/Images/NewTrialWC.png","lowH","1","47","1","0","1","1","false","",""
"image-keyboard-response","279","519514","0.0-3.0-6.0-1.0-1.47","5e8950c8b739115ed69e9fc3","6662009ae78f21dd82fcd179","66620a363f6f0e1083bec4df","null","","null","","","","","","","","./tasks/HMM-beads/Images/WhiteBeadChoice.png","","","","","","","","","",""
"image-keyboard-response","280","520022","0.0-3.0-6.0-1.0-2.47","5e8950c8b739115ed69e9fc3","6662009ae78f21dd82fcd179","66620a363f6f0e1083bec4df","null","","null","","","","","","","","./tasks/HMM-beads/Images/WhiteBeadChoiceWrong.png","","","","","","","","","",""
"image-keyboard-response","281","520670","0.0-3.0-6.0-1.0-0.48","5e8950c8b739115ed69e9fc3","6662009ae78f21dd82fcd179","66620a363f6f0e1083bec4df","646","","j","","","","","","","","./tasks/HMM-beads/Images/NewTrialBC.png","lowH","1","48","1","0","0","1","false","",""
"image-keyboard-response","282","520974","0.0-3.0-6.0-1.0-1.48","5e8950c8b739115ed69e9fc3","6662009ae78f21dd82fcd179","66620a363f6f0e1083bec4df","null","","null","","","","","","","","./tasks/HMM-beads/Images/WhiteBeadChoice.png","","","","","","","","","",""
"image-keyboard-response","283","521485","0.0-3.0-6.0-1.0-2.48","5e8950c8b739115ed69e9fc3","6662009ae78f21dd82fcd179","66620a363f6f0e1083bec4df","null","","null","","","","","","","","./tasks/HMM-beads/Images/WhiteBeadChoiceWrong.png","","","","","","","","","",""
"image-keyboard-response","284","521886","0.0-3.0-6.0-1.0-0.49","5e8950c8b739115ed69e9fc3","6662009ae78f21dd82fcd179","66620a363f6f0e1083bec4df","400","","f","","","","","","","","./tasks/HMM-beads/Images/NewTrialBC.png","lowH","1","49","1","0","0","0","true","",""
"image-keyboard-response","285","522190","0.0-3.0-6.0-1.0-1.49","5e8950c8b739115ed69e9fc3","6662009ae78f21dd82fcd179","66620a363f6f0e1083bec4df","null","","null","","","","","","","","./tasks/HMM-beads/Images/BlackBeadChoice.png","","","","","","","","","",""
"image-keyboard-response","286","522695","0.0-3.0-6.0-1.0-2.49","5e8950c8b739115ed69e9fc3","6662009ae78f21dd82fcd179","66620a363f6f0e1083bec4df","null","","null","","","","","","","","./tasks/HMM-beads/Images/BlackBeadChoiceCorrect.png","","","","","","","","","",""
"image-keyboard-response","287","523211","0.0-3.0-6.0-1.0-0.50","5e8950c8b739115ed69e9fc3","6662009ae78f21dd82fcd179","66620a363f6f0e1083bec4df","513","","f","","","","","","","","./tasks/HMM-beads/Images/NewTrialBC.png","lowH","1","50","1","1","0","0","false","",""
"image-keyboard-response","288","523521","0.0-3.0-6.0-1.0-1.50","5e8950c8b739115ed69e9fc3","6662009ae78f21dd82fcd179","66620a363f6f0e1083bec4df","null","","null","","","","","","","","./tasks/HMM-beads/Images/BlackBeadChoice.png","","","","","","","","","",""
"image-keyboard-response","289","524028","0.0-3.0-6.0-1.0-2.50","5e8950c8b739115ed69e9fc3","6662009ae78f21dd82fcd179","66620a363f6f0e1083bec4df","null","","null","","","","","","","","./tasks/HMM-beads/Images/BlackBeadChoiceWrong.png","","","","","","","","","",""
"image-keyboard-response","290","525316","0.0-3.0-6.0-1.0-0.51","5e8950c8b739115ed69e9fc3","6662009ae78f21dd82fcd179","66620a363f6f0e1083bec4df","1286","","f","","","","","","","","./tasks/HMM-beads/Images/NewTrialWC.png","lowH","1","51","1","1","1","0","false","",""
"image-keyboard-response","291","525632","0.0-3.0-6.0-1.0-1.51","5e8950c8b739115ed69e9fc3","6662009ae78f21dd82fcd179","66620a363f6f0e1083bec4df","null","","null","","","","","","","","./tasks/HMM-beads/Images/BlackBeadChoice.png","","","","","","","","","",""
"image-keyboard-response","292","526143","0.0-3.0-6.0-1.0-2.51","5e8950c8b739115ed69e9fc3","6662009ae78f21dd82fcd179","66620a363f6f0e1083bec4df","null","","null","","","","","","","","./tasks/HMM-beads/Images/BlackBeadChoiceWrong.png","","","","","","","","","",""
"image-keyboard-response","293","526488","0.0-3.0-6.0-1.0-0.52","5e8950c8b739115ed69e9fc3","6662009ae78f21dd82fcd179","66620a363f6f0e1083bec4df","342","","j","","","","","","","","./tasks/HMM-beads/Images/NewTrialWC.png","lowH","1","52","1","1","1","1","true","",""
"image-keyboard-response","294","526799","0.0-3.0-6.0-1.0-1.52","5e8950c8b739115ed69e9fc3","6662009ae78f21dd82fcd179","66620a363f6f0e1083bec4df","null","","null","","","","","","","","./tasks/HMM-beads/Images/WhiteBeadChoice.png","","","","","","","","","",""
"image-keyboard-response","295","527309","0.0-3.0-6.0-1.0-2.52","5e8950c8b739115ed69e9fc3","6662009ae78f21dd82fcd179","66620a363f6f0e1083bec4df","null","","null","","","","","","","","./tasks/HMM-beads/Images/WhiteBeadChoiceCorrect.png","","","","","","","","","",""
"image-keyboard-response","296","527707","0.0-3.0-6.0-1.0-0.53","5e8950c8b739115ed69e9fc3","6662009ae78f21dd82fcd179","66620a363f6f0e1083bec4df","395","","j","","","","","","","","./tasks/HMM-beads/Images/NewTrialWC.png","lowH","1","53","1","1","1","1","true","",""
"image-keyboard-response","297","528017","0.0-3.0-6.0-1.0-1.53","5e8950c8b739115ed69e9fc3","6662009ae78f21dd82fcd179","66620a363f6f0e1083bec4df","null","","null","","","","","","","","./tasks/HMM-beads/Images/WhiteBeadChoice.png","","","","","","","","","",""
"image-keyboard-response","298","528526","0.0-3.0-6.0-1.0-2.53","5e8950c8b739115ed69e9fc3","6662009ae78f21dd82fcd179","66620a363f6f0e1083bec4df","null","","null","","","","","","","","./tasks/HMM-beads/Images/WhiteBeadChoiceCorrect.png","","","","","","","","","",""
"image-keyboard-response","299","528995","0.0-3.0-6.0-1.0-0.54","5e8950c8b739115ed69e9fc3","6662009ae78f21dd82fcd179","66620a363f6f0e1083bec4df","467","","j","","","","","","","","./tasks/HMM-beads/Images/NewTrialWC.png","lowH","1","54","1","1","1","1","true","",""
"image-keyboard-response","300","529302","0.0-3.0-6.0-1.0-1.54","5e8950c8b739115ed69e9fc3","6662009ae78f21dd82fcd179","66620a363f6f0e1083bec4df","null","","null","","","","","","","","./tasks/HMM-beads/Images/WhiteBeadChoice.png","","","","","","","","","",""
"image-keyboard-response","301","529815","0.0-3.0-6.0-1.0-2.54","5e8950c8b739115ed69e9fc3","6662009ae78f21dd82fcd179","66620a363f6f0e1083bec4df","null","","null","","","","","","","","./tasks/HMM-beads/Images/WhiteBeadChoiceCorrect.png","","","","","","","","","",""
"image-keyboard-response","302","530204","0.0-3.0-6.0-1.0-0.55","5e8950c8b739115ed69e9fc3","6662009ae78f21dd82fcd179","66620a363f6f0e1083bec4df","387","","j","","","","","","","","./tasks/HMM-beads/Images/NewTrialWC.png","lowH","1","55","1","1","1","1","true","",""
"image-keyboard-response","303","530512","0.0-3.0-6.0-1.0-1.55","5e8950c8b739115ed69e9fc3","6662009ae78f21dd82fcd179","66620a363f6f0e1083bec4df","null","","null","","","","","","","","./tasks/HMM-beads/Images/WhiteBeadChoice.png","","","","","","","","","",""
"image-keyboard-response","304","531031","0.0-3.0-6.0-1.0-2.55","5e8950c8b739115ed69e9fc3","6662009ae78f21dd82fcd179","66620a363f6f0e1083bec4df","null","","null","","","","","","","","./tasks/HMM-beads/Images/WhiteBeadChoiceCorrect.png","","","","","","","","","",""
"image-keyboard-response","305","531369","0.0-3.0-6.0-1.0-0.56","5e8950c8b739115ed69e9fc3","6662009ae78f21dd82fcd179","66620a363f6f0e1083bec4df","337","","j","","","","","","","","./tasks/HMM-beads/Images/NewTrialWC.png","lowH","1","56","1","1","1","1","true","",""
"image-keyboard-response","306","531678","0.0-3.0-6.0-1.0-1.56","5e8950c8b739115ed69e9fc3","6662009ae78f21dd82fcd179","66620a363f6f0e1083bec4df","null","","null","","","","","","","","./tasks/HMM-beads/Images/WhiteBeadChoice.png","","","","","","","","","",""
"image-keyboard-response","307","532188","0.0-3.0-6.0-1.0-2.56","5e8950c8b739115ed69e9fc3","6662009ae78f21dd82fcd179","66620a363f6f0e1083bec4df","null","","null","","","","","","","","./tasks/HMM-beads/Images/WhiteBeadChoiceCorrect.png","","","","","","","","","",""
"image-keyboard-response","308","532573","0.0-3.0-6.0-1.0-0.57","5e8950c8b739115ed69e9fc3","6662009ae78f21dd82fcd179","66620a363f6f0e1083bec4df","383","","j","","","","","","","","./tasks/HMM-beads/Images/NewTrialWC.png","lowH","1","57","1","1","1","1","true","",""
"image-keyboard-response","309","532890","0.0-3.0-6.0-1.0-1.57","5e8950c8b739115ed69e9fc3","6662009ae78f21dd82fcd179","66620a363f6f0e1083bec4df","null","","null","","","","","","","","./tasks/HMM-beads/Images/WhiteBeadChoice.png","","","","","","","","","",""
"image-keyboard-response","310","533398","0.0-3.0-6.0-1.0-2.57","5e8950c8b739115ed69e9fc3","6662009ae78f21dd82fcd179","66620a363f6f0e1083bec4df","null","","null","","","","","","","","./tasks/HMM-beads/Images/WhiteBeadChoiceCorrect.png","","","","","","","","","",""
"image-keyboard-response","311","533805","0.0-3.0-6.0-1.0-0.58","5e8950c8b739115ed69e9fc3","6662009ae78f21dd82fcd179","66620a363f6f0e1083bec4df","405","","j","","","","","","","","./tasks/HMM-beads/Images/NewTrialWC.png","lowH","1","58","1","1","1","1","true","",""
"image-keyboard-response","312","534109","0.0-3.0-6.0-1.0-1.58","5e8950c8b739115ed69e9fc3","6662009ae78f21dd82fcd179","66620a363f6f0e1083bec4df","null","","null","","","","","","","","./tasks/HMM-beads/Images/WhiteBeadChoice.png","","","","","","","","","",""
"image-keyboard-response","313","534617","0.0-3.0-6.0-1.0-2.58","5e8950c8b739115ed69e9fc3","6662009ae78f21dd82fcd179","66620a363f6f0e1083bec4df","null","","null","","","","","","","","./tasks/HMM-beads/Images/WhiteBeadChoiceCorrect.png","","","","","","","","","",""
"image-keyboard-response","314","535009","0.0-3.0-6.0-1.0-0.59","5e8950c8b739115ed69e9fc3","6662009ae78f21dd82fcd179","66620a363f6f0e1083bec4df","392","","j","","","","","","","","./tasks/HMM-beads/Images/NewTrialWC.png","lowH","1","59","1","0","1","1","false","",""
"image-keyboard-response","315","535318","0.0-3.0-6.0-1.0-1.59","5e8950c8b739115ed69e9fc3","6662009ae78f21dd82fcd179","66620a363f6f0e1083bec4df","null","","null","","","","","","","","./tasks/HMM-beads/Images/WhiteBeadChoice.png","","","","","","","","","",""
"image-keyboard-response","316","535830","0.0-3.0-6.0-1.0-2.59","5e8950c8b739115ed69e9fc3","6662009ae78f21dd82fcd179","66620a363f6f0e1083bec4df","null","","null","","","","","","","","./tasks/HMM-beads/Images/WhiteBeadChoiceWrong.png","","","","","","","","","",""
"image-keyboard-response","317","537571","0.0-3.0-6.0-1.0-0.60","5e8950c8b739115ed69e9fc3","6662009ae78f21dd82fcd179","66620a363f6f0e1083bec4df","1740","","j","","","","","","","","./tasks/HMM-beads/Images/NewTrialBC.png","lowH","1","60","1","1","0","1","true","",""
"image-keyboard-response","318","537879","0.0-3.0-6.0-1.0-1.60","5e8950c8b739115ed69e9fc3","6662009ae78f21dd82fcd179","66620a363f6f0e1083bec4df","null","","null","","","","","","","","./tasks/HMM-beads/Images/WhiteBeadChoice.png","","","","","","","","","",""
"image-keyboard-response","319","538394","0.0-3.0-6.0-1.0-2.60","5e8950c8b739115ed69e9fc3","6662009ae78f21dd82fcd179","66620a363f6f0e1083bec4df","null","","null","","","","","","","","./tasks/HMM-beads/Images/WhiteBeadChoiceCorrect.png","","","","","","","","","",""
"image-keyboard-response","320","539052","0.0-3.0-6.0-1.0-0.61","5e8950c8b739115ed69e9fc3","6662009ae78f21dd82fcd179","66620a363f6f0e1083bec4df","657","","j","","","","","","","","./tasks/HMM-beads/Images/NewTrialWC.png","lowH","1","61","1","1","1","1","true","",""
"image-keyboard-response","321","539367","0.0-3.0-6.0-1.0-1.61","5e8950c8b739115ed69e9fc3","6662009ae78f21dd82fcd179","66620a363f6f0e1083bec4df","null","","null","","","","","","","","./tasks/HMM-beads/Images/WhiteBeadChoice.png","","","","","","","","","",""
"image-keyboard-response","322","539875","0.0-3.0-6.0-1.0-2.61","5e8950c8b739115ed69e9fc3","6662009ae78f21dd82fcd179","66620a363f6f0e1083bec4df","null","","null","","","","","","","","./tasks/HMM-beads/Images/WhiteBeadChoiceCorrect.png","","","","","","","","","",""
"image-keyboard-response","323","540304","0.0-3.0-6.0-1.0-0.62","5e8950c8b739115ed69e9fc3","6662009ae78f21dd82fcd179","66620a363f6f0e1083bec4df","428","","j","","","","","","","","./tasks/HMM-beads/Images/NewTrialWC.png","lowH","1","62","1","0","1","1","false","",""
"image-keyboard-response","324","540608","0.0-3.0-6.0-1.0-1.62","5e8950c8b739115ed69e9fc3","6662009ae78f21dd82fcd179","66620a363f6f0e1083bec4df","null","","null","","","","","","","","./tasks/HMM-beads/Images/WhiteBeadChoice.png","","","","","","","","","",""
"image-keyboard-response","325","541117","0.0-3.0-6.0-1.0-2.62","5e8950c8b739115ed69e9fc3","6662009ae78f21dd82fcd179","66620a363f6f0e1083bec4df","null","","null","","","","","","","","./tasks/HMM-beads/Images/WhiteBeadChoiceWrong.png","","","","","","","","","",""
"image-keyboard-response","326","541668","0.0-3.0-6.0-1.0-0.63","5e8950c8b739115ed69e9fc3","6662009ae78f21dd82fcd179","66620a363f6f0e1083bec4df","550","","f","","","","","","","","./tasks/HMM-beads/Images/NewTrialBC.png","lowH","1","63","1","1","0","0","false","",""
"image-keyboard-response","327","541972","0.0-3.0-6.0-1.0-1.63","5e8950c8b739115ed69e9fc3","6662009ae78f21dd82fcd179","66620a363f6f0e1083bec4df","null","","null","","","","","","","","./tasks/HMM-beads/Images/BlackBeadChoice.png","","","","","","","","","",""
"image-keyboard-response","328","542488","0.0-3.0-6.0-1.0-2.63","5e8950c8b739115ed69e9fc3","6662009ae78f21dd82fcd179","66620a363f6f0e1083bec4df","null","","null","","","","","","","","./tasks/HMM-beads/Images/BlackBeadChoiceWrong.png","","","","","","","","","",""
"image-keyboard-response","329","542879","0.0-3.0-6.0-1.0-0.64","5e8950c8b739115ed69e9fc3","6662009ae78f21dd82fcd179","66620a363f6f0e1083bec4df","390","","j","","","","","","","","./tasks/HMM-beads/Images/NewTrialWC.png","lowH","1","64","1","1","1","1","true","",""
"image-keyboard-response","330","543181","0.0-3.0-6.0-1.0-1.64","5e8950c8b739115ed69e9fc3","6662009ae78f21dd82fcd179","66620a363f6f0e1083bec4df","null","","null","","","","","","","","./tasks/HMM-beads/Images/WhiteBeadChoice.png","","","","","","","","","",""
"image-keyboard-response","331","543682","0.0-3.0-6.0-1.0-2.64","5e8950c8b739115ed69e9fc3","6662009ae78f21dd82fcd179","66620a363f6f0e1083bec4df","null","","null","","","","","","","","./tasks/HMM-beads/Images/WhiteBeadChoiceCorrect.png","","","","","","","","","",""
"image-keyboard-response","332","544176","0.0-3.0-6.0-1.0-0.65","5e8950c8b739115ed69e9fc3","6662009ae78f21dd82fcd179","66620a363f6f0e1083bec4df","492","","j","","","","","","","","./tasks/HMM-beads/Images/NewTrialWC.png","lowH","1","65","1","1","1","1","true","",""
"image-keyboard-response","333","544482","0.0-3.0-6.0-1.0-1.65","5e8950c8b739115ed69e9fc3","6662009ae78f21dd82fcd179","66620a363f6f0e1083bec4df","null","","null","","","","","","","","./tasks/HMM-beads/Images/WhiteBeadChoice.png","","","","","","","","","",""
"image-keyboard-response","334","544990","0.0-3.0-6.0-1.0-2.65","5e8950c8b739115ed69e9fc3","6662009ae78f21dd82fcd179","66620a363f6f0e1083bec4df","null","","null","","","","","","","","./tasks/HMM-beads/Images/WhiteBeadChoiceCorrect.png","","","","","","","","","",""
"image-keyboard-response","335","545342","0.0-3.0-6.0-1.0-0.66","5e8950c8b739115ed69e9fc3","6662009ae78f21dd82fcd179","66620a363f6f0e1083bec4df","351","","j","","","","","","","","./tasks/HMM-beads/Images/NewTrialWC.png","lowH","1","66","1","1","1","1","true","",""
"image-keyboard-response","336","545648","0.0-3.0-6.0-1.0-1.66","5e8950c8b739115ed69e9fc3","6662009ae78f21dd82fcd179","66620a363f6f0e1083bec4df","null","","null","","","","","","","","./tasks/HMM-beads/Images/WhiteBeadChoice.png","","","","","","","","","",""
"image-keyboard-response","337","546155","0.0-3.0-6.0-1.0-2.66","5e8950c8b739115ed69e9fc3","6662009ae78f21dd82fcd179","66620a363f6f0e1083bec4df","null","","null","","","","","","","","./tasks/HMM-beads/Images/WhiteBeadChoiceCorrect.png","","","","","","","","","",""
"image-keyboard-response","338","546312","0.0-3.0-6.0-1.0-0.67","5e8950c8b739115ed69e9fc3","6662009ae78f21dd82fcd179","66620a363f6f0e1083bec4df","156","","j","","","","","","","","./tasks/HMM-beads/Images/NewTrialWC.png","lowH","1","67","1","0","1","1","false","",""
"image-keyboard-response","339","546613","0.0-3.0-6.0-1.0-1.67","5e8950c8b739115ed69e9fc3","6662009ae78f21dd82fcd179","66620a363f6f0e1083bec4df","null","","null","","","","","","","","./tasks/HMM-beads/Images/WhiteBeadChoice.png","","","","","","","","","",""
"image-keyboard-response","340","547130","0.0-3.0-6.0-1.0-2.67","5e8950c8b739115ed69e9fc3","6662009ae78f21dd82fcd179","66620a363f6f0e1083bec4df","null","","null","","","","","","","","./tasks/HMM-beads/Images/WhiteBeadChoiceWrong.png","","","","","","","","","",""
"image-keyboard-response","341","547225","0.0-3.0-6.0-1.0-0.68","5e8950c8b739115ed69e9fc3","6662009ae78f21dd82fcd179","66620a363f6f0e1083bec4df","95","","f","","","","","","","","./tasks/HMM-beads/Images/NewTrialBC.png","lowH","1","68","1","1","0","0","false","",""
"image-keyboard-response","342","547533","0.0-3.0-6.0-1.0-1.68","5e8950c8b739115ed69e9fc3","6662009ae78f21dd82fcd179","66620a363f6f0e1083bec4df","null","","null","","","","","","","","./tasks/HMM-beads/Images/BlackBeadChoice.png","","","","","","","","","",""
"image-keyboard-response","343","548038","0.0-3.0-6.0-1.0-2.68","5e8950c8b739115ed69e9fc3","6662009ae78f21dd82fcd179","66620a363f6f0e1083bec4df","null","","null","","","","","","","","./tasks/HMM-beads/Images/BlackBeadChoiceWrong.png","","","","","","","","","",""
"image-keyboard-response","344","548862","0.0-3.0-6.0-1.0-0.69","5e8950c8b739115ed69e9fc3","6662009ae78f21dd82fcd179","66620a363f6f0e1083bec4df","823","","j","","","","","","","","./tasks/HMM-beads/Images/NewTrialWC.png","lowH","1","69","0","1","1","1","true","",""
"image-keyboard-response","345","549166","0.0-3.0-6.0-1.0-1.69","5e8950c8b739115ed69e9fc3","6662009ae78f21dd82fcd179","66620a363f6f0e1083bec4df","null","","null","","","","","","","","./tasks/HMM-beads/Images/WhiteBeadChoice.png","","","","","","","","","",""
"image-keyboard-response","346","549671","0.0-3.0-6.0-1.0-2.69","5e8950c8b739115ed69e9fc3","6662009ae78f21dd82fcd179","66620a363f6f0e1083bec4df","null","","null","","","","","","","","./tasks/HMM-beads/Images/WhiteBeadChoiceCorrect.png","","","","","","","","","",""
"image-keyboard-response","347","550329","0.0-3.0-6.0-1.0-0.70","5e8950c8b739115ed69e9fc3","6662009ae78f21dd82fcd179","66620a363f6f0e1083bec4df","657","","j","","","","","","","","./tasks/HMM-beads/Images/NewTrialWC.png","lowH","1","70","0","1","1","1","true","",""
"image-keyboard-response","348","550637","0.0-3.0-6.0-1.0-1.70","5e8950c8b739115ed69e9fc3","6662009ae78f21dd82fcd179","66620a363f6f0e1083bec4df","null","","null","","","","","","","","./tasks/HMM-beads/Images/WhiteBeadChoice.png","","","","","","","","","",""
"image-keyboard-response","349","551146","0.0-3.0-6.0-1.0-2.70","5e8950c8b739115ed69e9fc3","6662009ae78f21dd82fcd179","66620a363f6f0e1083bec4df","null","","null","","","","","","","","./tasks/HMM-beads/Images/WhiteBeadChoiceCorrect.png","","","","","","","","","",""
"image-keyboard-response","350","551584","0.0-3.0-6.0-1.0-0.71","5e8950c8b739115ed69e9fc3","6662009ae78f21dd82fcd179","66620a363f6f0e1083bec4df","437","","j","","","","","","","","./tasks/HMM-beads/Images/NewTrialWC.png","lowH","1","71","0","0","1","1","false","",""
"image-keyboard-response","351","551901","0.0-3.0-6.0-1.0-1.71","5e8950c8b739115ed69e9fc3","6662009ae78f21dd82fcd179","66620a363f6f0e1083bec4df","null","","null","","","","","","","","./tasks/HMM-beads/Images/WhiteBeadChoice.png","","","","","","","","","",""
"image-keyboard-response","352","552408","0.0-3.0-6.0-1.0-2.71","5e8950c8b739115ed69e9fc3","6662009ae78f21dd82fcd179","66620a363f6f0e1083bec4df","null","","null","","","","","","","","./tasks/HMM-beads/Images/WhiteBeadChoiceWrong.png","","","","","","","","","",""
"image-keyboard-response","353","553355","0.0-3.0-6.0-1.0-0.72","5e8950c8b739115ed69e9fc3","6662009ae78f21dd82fcd179","66620a363f6f0e1083bec4df","945","","f","","","","","","","","./tasks/HMM-beads/Images/NewTrialBC.png","lowH","1","72","0","0","0","0","true","",""
"image-keyboard-response","354","553656","0.0-3.0-6.0-1.0-1.72","5e8950c8b739115ed69e9fc3","6662009ae78f21dd82fcd179","66620a363f6f0e1083bec4df","null","","null","","","","","","","","./tasks/HMM-beads/Images/BlackBeadChoice.png","","","","","","","","","",""
"image-keyboard-response","355","554195","0.0-3.0-6.0-1.0-2.72","5e8950c8b739115ed69e9fc3","6662009ae78f21dd82fcd179","66620a363f6f0e1083bec4df","null","","null","","","","","","","","./tasks/HMM-beads/Images/BlackBeadChoiceCorrect.png","","","","","","","","","",""
"image-keyboard-response","356","554636","0.0-3.0-6.0-1.0-0.73","5e8950c8b739115ed69e9fc3","6662009ae78f21dd82fcd179","66620a363f6f0e1083bec4df","438","","f","","","","","","","","./tasks/HMM-beads/Images/NewTrialBC.png","lowH","1","73","0","1","0","0","false","",""
"image-keyboard-response","357","554941","0.0-3.0-6.0-1.0-1.73","5e8950c8b739115ed69e9fc3","6662009ae78f21dd82fcd179","66620a363f6f0e1083bec4df","null","","null","","","","","","","","./tasks/HMM-beads/Images/BlackBeadChoice.png","","","","","","","","","",""
"image-keyboard-response","358","555447","0.0-3.0-6.0-1.0-2.73","5e8950c8b739115ed69e9fc3","6662009ae78f21dd82fcd179","66620a363f6f0e1083bec4df","null","","null","","","","","","","","./tasks/HMM-beads/Images/BlackBeadChoiceWrong.png","","","","","","","","","",""
"image-keyboard-response","359","556194","0.0-3.0-6.0-1.0-0.74","5e8950c8b739115ed69e9fc3","6662009ae78f21dd82fcd179","66620a363f6f0e1083bec4df","746","","j","","","","","","","","./tasks/HMM-beads/Images/NewTrialWC.png","lowH","1","74","0","0","1","1","false","",""
"image-keyboard-response","360","556501","0.0-3.0-6.0-1.0-1.74","5e8950c8b739115ed69e9fc3","6662009ae78f21dd82fcd179","66620a363f6f0e1083bec4df","null","","null","","","","","","","","./tasks/HMM-beads/Images/WhiteBeadChoice.png","","","","","","","","","",""
"image-keyboard-response","361","557008","0.0-3.0-6.0-1.0-2.74","5e8950c8b739115ed69e9fc3","6662009ae78f21dd82fcd179","66620a363f6f0e1083bec4df","null","","null","","","","","","","","./tasks/HMM-beads/Images/WhiteBeadChoiceWrong.png","","","","","","","","","",""
"image-keyboard-response","362","558224","0.0-3.0-6.0-1.0-0.75","5e8950c8b739115ed69e9fc3","6662009ae78f21dd82fcd179","66620a363f6f0e1083bec4df","1214","","f","","","","","","","","./tasks/HMM-beads/Images/NewTrialBC.png","lowH","1","75","0","1","0","0","false","",""
"image-keyboard-response","363","558530","0.0-3.0-6.0-1.0-1.75","5e8950c8b739115ed69e9fc3","6662009ae78f21dd82fcd179","66620a363f6f0e1083bec4df","null","","null","","","","","","","","./tasks/HMM-beads/Images/BlackBeadChoice.png","","","","","","","","","",""
"image-keyboard-response","364","559033","0.0-3.0-6.0-1.0-2.75","5e8950c8b739115ed69e9fc3","6662009ae78f21dd82fcd179","66620a363f6f0e1083bec4df","null","","null","","","","","","","","./tasks/HMM-beads/Images/BlackBeadChoiceWrong.png","","","","","","","","","",""
"image-keyboard-response","365","559455","0.0-3.0-6.0-1.0-0.76","5e8950c8b739115ed69e9fc3","6662009ae78f21dd82fcd179","66620a363f6f0e1083bec4df","420","","j","","","","","","","","./tasks/HMM-beads/Images/NewTrialWC.png","lowH","1","76","0","1","1","1","true","",""
"image-keyboard-response","366","559761","0.0-3.0-6.0-1.0-1.76","5e8950c8b739115ed69e9fc3","6662009ae78f21dd82fcd179","66620a363f6f0e1083bec4df","null","","null","","","","","","","","./tasks/HMM-beads/Images/WhiteBeadChoice.png","","","","","","","","","",""
"image-keyboard-response","367","560279","0.0-3.0-6.0-1.0-2.76","5e8950c8b739115ed69e9fc3","6662009ae78f21dd82fcd179","66620a363f6f0e1083bec4df","null","","null","","","","","","","","./tasks/HMM-beads/Images/WhiteBeadChoiceCorrect.png","","","","","","","","","",""
"image-keyboard-response","368","560503","0.0-3.0-6.0-1.0-0.77","5e8950c8b739115ed69e9fc3","6662009ae78f21dd82fcd179","66620a363f6f0e1083bec4df","222","","j","","","","","","","","./tasks/HMM-beads/Images/NewTrialWC.png","lowH","1","77","0","0","1","1","false","",""
"image-keyboard-response","369","560809","0.0-3.0-6.0-1.0-1.77","5e8950c8b739115ed69e9fc3","6662009ae78f21dd82fcd179","66620a363f6f0e1083bec4df","null","","null","","","","","","","","./tasks/HMM-beads/Images/WhiteBeadChoice.png","","","","","","","","","",""
"image-keyboard-response","370","561312","0.0-3.0-6.0-1.0-2.77","5e8950c8b739115ed69e9fc3","6662009ae78f21dd82fcd179","66620a363f6f0e1083bec4df","null","","null","","","","","","","","./tasks/HMM-beads/Images/WhiteBeadChoiceWrong.png","","","","","","","","","",""
"image-keyboard-response","371","562177","0.0-3.0-6.0-1.0-0.78","5e8950c8b739115ed69e9fc3","6662009ae78f21dd82fcd179","66620a363f6f0e1083bec4df","862","","f","","","","","","","","./tasks/HMM-beads/Images/NewTrialBC.png","lowH","1","78","0","0","0","0","true","",""
"image-keyboard-response","372","562489","0.0-3.0-6.0-1.0-1.78","5e8950c8b739115ed69e9fc3","6662009ae78f21dd82fcd179","66620a363f6f0e1083bec4df","null","","null","","","","","","","","./tasks/HMM-beads/Images/BlackBeadChoice.png","","","","","","","","","",""
"image-keyboard-response","373","562996","0.0-3.0-6.0-1.0-2.78","5e8950c8b739115ed69e9fc3","6662009ae78f21dd82fcd179","66620a363f6f0e1083bec4df","null","","null","","","","","","","","./tasks/HMM-beads/Images/BlackBeadChoiceCorrect.png","","","","","","","","","",""
