"trial_type","trial_index","time_elapsed","internal_node_id","subject_id","study_id","session_id","rt","url","response","question_order","view_history","success","timeout","failed_images","failed_audio","failed_video","stimulus","block","block_rep","trial_number","jar","bead","previous_bead","choice","correct","lowH_score","total_bonus"
"pavlovia","0","1468","0.0-0.0","5b6a87d2cda8590001db8e07","6662009ae78f21dd82fcd179","66620d7c24de6e03c471393d","","","","","","","","","","","","","","","","","","","","",""
"external-html","1","41669","0.0-1.0-0.0","5b6a87d2cda8590001db8e07","6662009ae78f21dd82fcd179","66620d7c24de6e03c471393d","39908","new_consent.html","","","","","","","","","","","","","","","","","","",""
"survey-multi-choice","2","60578","0.0-1.0-1.0","5b6a87d2cda8590001db8e07","6662009ae78f21dd82fcd179","66620d7c24de6e03c471393d","18907","","{""Q0"":""Transgender Female"",""Q1"":""Asian""}","[0,1]","","","","","","","","","","","","","","","","",""
"survey-text","3","65906","0.0-1.0-2.0","5b6a87d2cda8590001db8e07","6662009ae78f21dd82fcd179","66620d7c24de6e03c471393d","5323","","{""Q0"":""43""}","","","","","","","","","","","","","","","","","",""
"instructions","4","69225","0.0-2.0","5b6a87d2cda8590001db8e07","6662009ae78f21dd82fcd179","66620d7c24de6e03c471393d","3216","","","","[{""page_index"":0,""viewing_time"":3216}]","","","","","","","","","","","","","","","",""
"preload","5","74694","0.0-3.0-0.0","5b6a87d2cda8590001db8e07","6662009ae78f21dd82fcd179","66620d7c24de6e03c471393d","","","","","","true","false","[]","[]","[]","","","","","","","","","","",""
"instructions","6","209115","0.0-3.0-1.0","5b6a87d2cda8590001db8e07","6662009ae78f21dd82fcd179","66620d7c24de6e03c471393d","134418","","","","[{""page_index"":0,""viewing_time"":13773},{""page_index"":1,""viewing_time"":7248},{""page_index"":2,""viewing_time"":6082},{""page_index"":3,""viewing_time"":3183},{""page_index"":4,""viewing_time"":6195},{""page_index"":5,""viewing_time"":14539},{""page_index"":6,""viewing_time"":31560},{""page_index"":7,""viewing_time"":12316},{""page_index"":8,""viewing_time"":11214},{""page_index"":9,""viewing_time"":8914},{""page_index"":10,""viewing_time"":11850},{""page_index"":11,""viewing_time"":7544}]","","","","","","","","","","","","","","","",""
"html-button-response","7","213723","0.0-3.0-2.0-0.0-0.0","5b6a87d2cda8590001db8e07","6662009ae78f21dd82fcd179","66620d7c24de6e03c471393d","4606","","1","","","","","","","","<div align=center>Your goal is to predict…?<br><br></div>","","","","","","","","","",""
"html-button-response","8","219468","0.0-3.0-2.0-1.0-0.0","5b6a87d2cda8590001db8e07","6662009ae78f21dd82fcd179","66620d7c24de6e03c471393d","2279","","2","","","","","","","","<div align=center>In the jar with mostly white beads, there are ___% white beads and ___% black beads?<br><br></div>","","","","","","","","","",""
"html-button-response","9","228203","0.0-3.0-2.0-2.0-0.0","5b6a87d2cda8590001db8e07","6662009ae78f21dd82fcd179","66620d7c24de6e03c471393d","4784","","0","","","","","","","","<div align=center>When there is a 1% probability that the jars will switch, the next bead will most likely be drawn from the…<br><br></div>","","","","","","","","","",""
"html-button-response","10","233160","0.0-3.0-2.0-3.0-0.0","5b6a87d2cda8590001db8e07","6662009ae78f21dd82fcd179","66620d7c24de6e03c471393d","1869","","1","","","","","","","","<div align=center>When there is a 99% probability that the jars will switch, the next bead will most likely be drawn from the…<br><br></div>","","","","","","","","","",""
"instructions","11","282797","0.0-3.0-3.0","5b6a87d2cda8590001db8e07","6662009ae78f21dd82fcd179","66620d7c24de6e03c471393d","45982","","","","[{""page_index"":0,""viewing_time"":45981}]","","","","","","","","","","","","","","","",""
"html-keyboard-response","12","291642","0.0-3.0-4.0-0.0","5b6a87d2cda8590001db8e07","6662009ae78f21dd82fcd179","66620d7c24de6e03c471393d","8844",""," ","","","","","","","","<div align=center>In this practice block, there will be a <b>1% chance</b> that the jar on the next trial will be different from the jar on the current trial.<br><br></div>","","","","","","","","","",""
"image-keyboard-response","13","306095","0.0-3.0-4.0-1.0-0.0","5b6a87d2cda8590001db8e07","6662009ae78f21dd82fcd179","66620d7c24de6e03c471393d","14435","","f","","","","","","","","./tasks/HMM-beads/Images/NoChoice.png","practice","0","0","0","0","9","0","true","",""
"image-keyboard-response","14","306399","0.0-3.0-4.0-1.0-1.0","5b6a87d2cda8590001db8e07","6662009ae78f21dd82fcd179","66620d7c24de6e03c471393d","null","","null","","","","","","","","./tasks/HMM-beads/Images/BlackBeadChoice.png","","","","","","","","","",""
"image-keyboard-response","15","306902","0.0-3.0-4.0-1.0-2.0","5b6a87d2cda8590001db8e07","6662009ae78f21dd82fcd179","66620d7c24de6e03c471393d","null","","null","","","","","","","","./tasks/HMM-beads/Images/BlackBeadChoiceCorrect.png","","","","","","","","","",""
"image-keyboard-response","16","310218","0.0-3.0-4.0-1.0-0.1","5b6a87d2cda8590001db8e07","6662009ae78f21dd82fcd179","66620d7c24de6e03c471393d","3314","","f","","","","","","","","./tasks/HMM-beads/Images/NewTrialBC.png","practice","0","1","0","0","0","0","true","",""
"image-keyboard-response","17","310521","0.0-3.0-4.0-1.0-1.1","5b6a87d2cda8590001db8e07","6662009ae78f21dd82fcd179","66620d7c24de6e03c471393d","null","","null","","","","","","","","./tasks/HMM-beads/Images/BlackBeadChoice.png","","","","","","","","","",""
"image-keyboard-response","18","311026","0.0-3.0-4.0-1.0-2.1","5b6a87d2cda8590001db8e07","6662009ae78f21dd82fcd179","66620d7c24de6e03c471393d","null","","null","","","","","","","","./tasks/HMM-beads/Images/BlackBeadChoiceCorrect.png","","","","","","","","","",""
"image-keyboard-response","19","311552","0.0-3.0-4.0-1.0-0.2","5b6a87d2cda8590001db8e07","6662009ae78f21dd82fcd179","66620d7c24de6e03c471393d","524","","f","","","","","","","","./tasks/HMM-beads/Images/NewTrialBC.png","practice","0","2","0","1","0","0","false","",""
"image-keyboard-response","20","311855","0.0-3.0-4.0-1.0-1.2","5b6a87d2cda8590001db8e07","6662009ae78f21dd82fcd179","66620d7c24de6e03c471393d","null","","null","","","","","","","","./tasks/HMM-beads/Images/BlackBeadChoice.png","","","","","","","","","",""
"image-keyboard-response","21","312358","0.0-3.0-4.0-1.0-2.2","5b6a87d2cda8590001db8e07","6662009ae78f21dd82fcd179","66620d7c24de6e03c471393d","null","","null","","","","","","","","./tasks/HMM-beads/Images/BlackBeadChoiceWrong.png","","","","","","","","","",""
"image-keyboard-response","22","315642","0.0-3.0-4.0-1.0-0.3","5b6a87d2cda8590001db8e07","6662009ae78f21dd82fcd179","66620d7c24de6e03c471393d","3283","","f","","","","","","","","./tasks/HMM-beads/Images/NewTrialWC.png","practice","0","3","0","0","1","0","true","",""
"image-keyboard-response","23","315945","0.0-3.0-4.0-1.0-1.3","5b6a87d2cda8590001db8e07","6662009ae78f21dd82fcd179","66620d7c24de6e03c471393d","null","","null","","","","","","","","./tasks/HMM-beads/Images/BlackBeadChoice.png","","","","","","","","","",""
"image-keyboard-response","24","316448","0.0-3.0-4.0-1.0-2.3","5b6a87d2cda8590001db8e07","6662009ae78f21dd82fcd179","66620d7c24de6e03c471393d","null","","null","","","","","","","","./tasks/HMM-beads/Images/BlackBeadChoiceCorrect.png","","","","","","","","","",""
"image-keyboard-response","25","316738","0.0-3.0-4.0-1.0-0.4","5b6a87d2cda8590001db8e07","6662009ae78f21dd82fcd179","66620d7c24de6e03c471393d","289","","f","","","","","","","","./tasks/HMM-beads/Images/NewTrialBC.png","practice","0","4","0","0","0","0","true","",""
"image-keyboard-response","26","317040","0.0-3.0-4.0-1.0-1.4","5b6a87d2cda8590001db8e07","6662009ae78f21dd82fcd179","66620d7c24de6e03c471393d","null","","null","","","","","","","","./tasks/HMM-beads/Images/BlackBeadChoice.png","","","","","","","","","",""
"image-keyboard-response","27","317543","0.0-3.0-4.0-1.0-2.4","5b6a87d2cda8590001db8e07","6662009ae78f21dd82fcd179","66620d7c24de6e03c471393d","null","","null","","","","","","","","./tasks/HMM-beads/Images/BlackBeadChoiceCorrect.png","","","","","","","","","",""
"image-keyboard-response","28","317858","0.0-3.0-4.0-1.0-0.5","5b6a87d2cda8590001db8e07","6662009ae78f21dd82fcd179","66620d7c24de6e03c471393d","312","","f","","","","","","","","./tasks/HMM-beads/Images/NewTrialBC.png","practice","0","5","0","1","0","0","false","",""
"image-keyboard-response","29","318161","0.0-3.0-4.0-1.0-1.5","5b6a87d2cda8590001db8e07","6662009ae78f21dd82fcd179","66620d7c24de6e03c471393d","null","","null","","","","","","","","./tasks/HMM-beads/Images/BlackBeadChoice.png","","","","","","","","","",""
"image-keyboard-response","30","318663","0.0-3.0-4.0-1.0-2.5","5b6a87d2cda8590001db8e07","6662009ae78f21dd82fcd179","66620d7c24de6e03c471393d","null","","null","","","","","","","","./tasks/HMM-beads/Images/BlackBeadChoiceWrong.png","","","","","","","","","",""
"image-keyboard-response","31","319673","0.0-3.0-4.0-1.0-0.6","5b6a87d2cda8590001db8e07","6662009ae78f21dd82fcd179","66620d7c24de6e03c471393d","1009","","f","","","","","","","","./tasks/HMM-beads/Images/NewTrialWC.png","practice","0","6","0","0","1","0","true","",""
"image-keyboard-response","32","319976","0.0-3.0-4.0-1.0-1.6","5b6a87d2cda8590001db8e07","6662009ae78f21dd82fcd179","66620d7c24de6e03c471393d","null","","null","","","","","","","","./tasks/HMM-beads/Images/BlackBeadChoice.png","","","","","","","","","",""
"image-keyboard-response","33","320480","0.0-3.0-4.0-1.0-2.6","5b6a87d2cda8590001db8e07","6662009ae78f21dd82fcd179","66620d7c24de6e03c471393d","null","","null","","","","","","","","./tasks/HMM-beads/Images/BlackBeadChoiceCorrect.png","","","","","","","","","",""
"image-keyboard-response","34","320899","0.0-3.0-4.0-1.0-0.7","5b6a87d2cda8590001db8e07","6662009ae78f21dd82fcd179","66620d7c24de6e03c471393d","417","","f","","","","","","","","./tasks/HMM-beads/Images/NewTrialBC.png","practice","0","7","0","0","0","0","true","",""
"image-keyboard-response","35","321201","0.0-3.0-4.0-1.0-1.7","5b6a87d2cda8590001db8e07","6662009ae78f21dd82fcd179","66620d7c24de6e03c471393d","null","","null","","","","","","","","./tasks/HMM-beads/Images/BlackBeadChoice.png","","","","","","","","","",""
"image-keyboard-response","36","321704","0.0-3.0-4.0-1.0-2.7","5b6a87d2cda8590001db8e07","6662009ae78f21dd82fcd179","66620d7c24de6e03c471393d","null","","null","","","","","","","","./tasks/HMM-beads/Images/BlackBeadChoiceCorrect.png","","","","","","","","","",""
"image-keyboard-response","37","322007","0.0-3.0-4.0-1.0-0.8","5b6a87d2cda8590001db8e07","6662009ae78f21dd82fcd179","66620d7c24de6e03c471393d","301","","f","","","","","","","","./tasks/HMM-beads/Images/NewTrialBC.png","practice","0","8","0","0","0","0","true","",""
"image-keyboard-response","38","322318","0.0-3.0-4.0-1.0-1.8","5b6a87d2cda8590001db8e07","6662009ae78f21dd82fcd179","66620d7c24de6e03c471393d","null","","null","","","","","","","","./tasks/HMM-beads/Images/BlackBeadChoice.png","","","","","","","","","",""
"image-keyboard-response","39","322822","0.0-3.0-4.0-1.0-2.8","5b6a87d2cda8590001db8e07","6662009ae78f21dd82fcd179","66620d7c24de6e03c471393d","null","","null","","","","","","","","./tasks/HMM-beads/Images/BlackBeadChoiceCorrect.png","","","","","","","","","",""
"image-keyboard-response","40","323272","0.0-3.0-4.0-1.0-0.9","5b6a87d2cda8590001db8e07","6662009ae78f21dd82fcd179","66620d7c24de6e03c471393d","449","","f","","","","","","","","./tasks/HMM-beads/Images/NewTrialBC.png","practice","0","9","0","1","0","0","false","",""
"image-keyboard-response","41","323575","0.0-3.0-4.0-1.0-1.9","5b6a87d2cda8590001db8e07","6662009ae78f21dd82fcd179","66620d7c24de6e03c471393d","null","","null","","","","","","","","./tasks/HMM-beads/Images/BlackBeadChoice.png","","","","","","","","","",""
"image-keyboard-response","42","324078","0.0-3.0-4.0-1.0-2.9","5b6a87d2cda8590001db8e07","6662009ae78f21dd82fcd179","66620d7c24de6e03c471393d","null","","null","","","","","","","","./tasks/HMM-beads/Images/BlackBeadChoiceWrong.png","","","","","","","","","",""
"image-keyboard-response","43","324400","0.0-3.0-4.0-1.0-0.10","5b6a87d2cda8590001db8e07","6662009ae78f21dd82fcd179","66620d7c24de6e03c471393d","321","","f","","","","","","","","./tasks/HMM-beads/Images/NewTrialWC.png","practice","0","10","0","0","1","0","true","",""
"image-keyboard-response","44","324703","0.0-3.0-4.0-1.0-1.10","5b6a87d2cda8590001db8e07","6662009ae78f21dd82fcd179","66620d7c24de6e03c471393d","null","","null","","","","","","","","./tasks/HMM-beads/Images/BlackBeadChoice.png","","","","","","","","","",""
"image-keyboard-response","45","325206","0.0-3.0-4.0-1.0-2.10","5b6a87d2cda8590001db8e07","6662009ae78f21dd82fcd179","66620d7c24de6e03c471393d","null","","null","","","","","","","","./tasks/HMM-beads/Images/BlackBeadChoiceCorrect.png","","","","","","","","","",""
"image-keyboard-response","46","325562","0.0-3.0-4.0-1.0-0.11","5b6a87d2cda8590001db8e07","6662009ae78f21dd82fcd179","66620d7c24de6e03c471393d","355","","f","","","","","","","","./tasks/HMM-beads/Images/NewTrialBC.png","practice","0","11","0","1","0","0","false","",""
"image-keyboard-response","47","325865","0.0-3.0-4.0-1.0-1.11","5b6a87d2cda8590001db8e07","6662009ae78f21dd82fcd179","66620d7c24de6e03c471393d","null","","null","","","","","","","","./tasks/HMM-beads/Images/BlackBeadChoice.png","","","","","","","","","",""
"image-keyboard-response","48","326367","0.0-3.0-4.0-1.0-2.11","5b6a87d2cda8590001db8e07","6662009ae78f21dd82fcd179","66620d7c24de6e03c471393d","null","","null","","","","","","","","./tasks/HMM-beads/Images/BlackBeadChoiceWrong.png","","","","","","","","","",""
"image-keyboard-response","49","326892","0.0-3.0-4.0-1.0-0.12","5b6a87d2cda8590001db8e07","6662009ae78f21dd82fcd179","66620d7c24de6e03c471393d","523","","f","","","","","","","","./tasks/HMM-beads/Images/NewTrialWC.png","practice","0","12","0","0","1","0","true","",""
"image-keyboard-response","50","327195","0.0-3.0-4.0-1.0-1.12","5b6a87d2cda8590001db8e07","6662009ae78f21dd82fcd179","66620d7c24de6e03c471393d","null","","null","","","","","","","","./tasks/HMM-beads/Images/BlackBeadChoice.png","","","","","","","","","",""
"image-keyboard-response","51","327708","0.0-3.0-4.0-1.0-2.12","5b6a87d2cda8590001db8e07","6662009ae78f21dd82fcd179","66620d7c24de6e03c471393d","null","","null","","","","","","","","./tasks/HMM-beads/Images/BlackBeadChoiceCorrect.png","","","","","","","","","",""
"image-keyboard-response","52","328434","0.0-3.0-4.0-1.0-0.13","5b6a87d2cda8590001db8e07","6662009ae78f21dd82fcd179","66620d7c24de6e03c471393d","725","","f","","","","","","","","./tasks/HMM-beads/Images/NewTrialBC.png","practice","0","13","0","0","0","0","true","",""
"image-keyboard-response","53","328737","0.0-3.0-4.0-1.0-1.13","5b6a87d2cda8590001db8e07","6662009ae78f21dd82fcd179","66620d7c24de6e03c471393d","null","","null","","","","","","","","./tasks/HMM-beads/Images/BlackBeadChoice.png","","","","","","","","","",""
"image-keyboard-response","54","329240","0.0-3.0-4.0-1.0-2.13","5b6a87d2cda8590001db8e07","6662009ae78f21dd82fcd179","66620d7c24de6e03c471393d","null","","null","","","","","","","","./tasks/HMM-beads/Images/BlackBeadChoiceCorrect.png","","","","","","","","","",""
"image-keyboard-response","55","329621","0.0-3.0-4.0-1.0-0.14","5b6a87d2cda8590001db8e07","6662009ae78f21dd82fcd179","66620d7c24de6e03c471393d","380","","f","","","","","","","","./tasks/HMM-beads/Images/NewTrialBC.png","practice","0","14","0","0","0","0","true","",""
"image-keyboard-response","56","329923","0.0-3.0-4.0-1.0-1.14","5b6a87d2cda8590001db8e07","6662009ae78f21dd82fcd179","66620d7c24de6e03c471393d","null","","null","","","","","","","","./tasks/HMM-beads/Images/BlackBeadChoice.png","","","","","","","","","",""
"image-keyboard-response","57","330427","0.0-3.0-4.0-1.0-2.14","5b6a87d2cda8590001db8e07","6662009ae78f21dd82fcd179","66620d7c24de6e03c471393d","null","","null","","","","","","","","./tasks/HMM-beads/Images/BlackBeadChoiceCorrect.png","","","","","","","","","",""
"image-keyboard-response","58","330758","0.0-3.0-4.0-1.0-0.15","5b6a87d2cda8590001db8e07","6662009ae78f21dd82fcd179","66620d7c24de6e03c471393d","330","","f","","","","","","","","./tasks/HMM-beads/Images/NewTrialBC.png","practice","0","15","0","0","0","0","true","",""
"image-keyboard-response","59","331060","0.0-3.0-4.0-1.0-1.15","5b6a87d2cda8590001db8e07","6662009ae78f21dd82fcd179","66620d7c24de6e03c471393d","null","","null","","","","","","","","./tasks/HMM-beads/Images/BlackBeadChoice.png","","","","","","","","","",""
"image-keyboard-response","60","331563","0.0-3.0-4.0-1.0-2.15","5b6a87d2cda8590001db8e07","6662009ae78f21dd82fcd179","66620d7c24de6e03c471393d","null","","null","","","","","","","","./tasks/HMM-beads/Images/BlackBeadChoiceCorrect.png","","","","","","","","","",""
"image-keyboard-response","61","331861","0.0-3.0-4.0-1.0-0.16","5b6a87d2cda8590001db8e07","6662009ae78f21dd82fcd179","66620d7c24de6e03c471393d","296","","f","","","","","","","","./tasks/HMM-beads/Images/NewTrialBC.png","practice","0","16","0","0","0","0","true","",""
"image-keyboard-response","62","332163","0.0-3.0-4.0-1.0-1.16","5b6a87d2cda8590001db8e07","6662009ae78f21dd82fcd179","66620d7c24de6e03c471393d","null","","null","","","","","","","","./tasks/HMM-beads/Images/BlackBeadChoice.png","","","","","","","","","",""
"image-keyboard-response","63","332665","0.0-3.0-4.0-1.0-2.16","5b6a87d2cda8590001db8e07","6662009ae78f21dd82fcd179","66620d7c24de6e03c471393d","null","","null","","","","","","","","./tasks/HMM-beads/Images/BlackBeadChoiceCorrect.png","","","","","","","","","",""
"image-keyboard-response","64","332998","0.0-3.0-4.0-1.0-0.17","5b6a87d2cda8590001db8e07","6662009ae78f21dd82fcd179","66620d7c24de6e03c471393d","327","","f","","","","","","","","./tasks/HMM-beads/Images/NewTrialBC.png","practice","0","17","0","0","0","0","true","",""
"image-keyboard-response","65","333301","0.0-3.0-4.0-1.0-1.17","5b6a87d2cda8590001db8e07","6662009ae78f21dd82fcd179","66620d7c24de6e03c471393d","null","","null","","","","","","","","./tasks/HMM-beads/Images/BlackBeadChoice.png","","","","","","","","","",""
"image-keyboard-response","66","333804","0.0-3.0-4.0-1.0-2.17","5b6a87d2cda8590001db8e07","6662009ae78f21dd82fcd179","66620d7c24de6e03c471393d","null","","null","","","","","","","","./tasks/HMM-beads/Images/BlackBeadChoiceCorrect.png","","","","","","","","","",""
"image-keyboard-response","67","334092","0.0-3.0-4.0-1.0-0.18","5b6a87d2cda8590001db8e07","6662009ae78f21dd82fcd179","66620d7c24de6e03c471393d","286","","f","","","","","","","","./tasks/HMM-beads/Images/NewTrialBC.png","practice","0","18","0","1","0","0","false","",""
"image-keyboard-response","68","334395","0.0-3.0-4.0-1.0-1.18","5b6a87d2cda8590001db8e07","6662009ae78f21dd82fcd179","66620d7c24de6e03c471393d","null","","null","","","","","","","","./tasks/HMM-beads/Images/BlackBeadChoice.png","","","","","","","","","",""
"image-keyboard-response","69","334898","0.0-3.0-4.0-1.0-2.18","5b6a87d2cda8590001db8e07","6662009ae78f21dd82fcd179","66620d7c24de6e03c471393d","null","","null","","","","","","","","./tasks/HMM-beads/Images/BlackBeadChoiceWrong.png","","","","","","","","","",""
"image-keyboard-response","70","335230","0.0-3.0-4.0-1.0-0.19","5b6a87d2cda8590001db8e07","6662009ae78f21dd82fcd179","66620d7c24de6e03c471393d","330","","f","","","","","","","","./tasks/HMM-beads/Images/NewTrialWC.png","practice","0","19","0","0","1","0","true","",""
"image-keyboard-response","71","335532","0.0-3.0-4.0-1.0-1.19","5b6a87d2cda8590001db8e07","6662009ae78f21dd82fcd179","66620d7c24de6e03c471393d","null","","null","","","","","","","","./tasks/HMM-beads/Images/BlackBeadChoice.png","","","","","","","","","",""
"image-keyboard-response","72","336035","0.0-3.0-4.0-1.0-2.19","5b6a87d2cda8590001db8e07","6662009ae78f21dd82fcd179","66620d7c24de6e03c471393d","null","","null","","","","","","","","./tasks/HMM-beads/Images/BlackBeadChoiceCorrect.png","","","","","","","","","",""
"image-keyboard-response","73","336566","0.0-3.0-4.0-1.0-0.20","5b6a87d2cda8590001db8e07","6662009ae78f21dd82fcd179","66620d7c24de6e03c471393d","529","","f","","","","","","","","./tasks/HMM-beads/Images/NewTrialBC.png","practice","0","20","0","0","0","0","true","",""
"image-keyboard-response","74","336869","0.0-3.0-4.0-1.0-1.20","5b6a87d2cda8590001db8e07","6662009ae78f21dd82fcd179","66620d7c24de6e03c471393d","null","","null","","","","","","","","./tasks/HMM-beads/Images/BlackBeadChoice.png","","","","","","","","","",""
"image-keyboard-response","75","337371","0.0-3.0-4.0-1.0-2.20","5b6a87d2cda8590001db8e07","6662009ae78f21dd82fcd179","66620d7c24de6e03c471393d","null","","null","","","","","","","","./tasks/HMM-beads/Images/BlackBeadChoiceCorrect.png","","","","","","","","","",""
"image-keyboard-response","76","338291","0.0-3.0-4.0-1.0-0.21","5b6a87d2cda8590001db8e07","6662009ae78f21dd82fcd179","66620d7c24de6e03c471393d","918","","f","","","","","","","","./tasks/HMM-beads/Images/NewTrialBC.png","practice","0","21","0","1","0","0","false","",""
"image-keyboard-response","77","338602","0.0-3.0-4.0-1.0-1.21","5b6a87d2cda8590001db8e07","6662009ae78f21dd82fcd179","66620d7c24de6e03c471393d","null","","null","","","","","","","","./tasks/HMM-beads/Images/BlackBeadChoice.png","","","","","","","","","",""
"image-keyboard-response","78","339106","0.0-3.0-4.0-1.0-2.21","5b6a87d2cda8590001db8e07","6662009ae78f21dd82fcd179","66620d7c24de6e03c471393d","null","","null","","","","","","","","./tasks/HMM-beads/Images/BlackBeadChoiceWrong.png","","","","","","","","","",""
"image-keyboard-response","79","339536","0.0-3.0-4.0-1.0-0.22","5b6a87d2cda8590001db8e07","6662009ae78f21dd82fcd179","66620d7c24de6e03c471393d","429","","f","","","","","","","","./tasks/HMM-beads/Images/NewTrialWC.png","practice","0","22","1","1","1","0","false","",""
"image-keyboard-response","80","339840","0.0-3.0-4.0-1.0-1.22","5b6a87d2cda8590001db8e07","6662009ae78f21dd82fcd179","66620d7c24de6e03c471393d","null","","null","","","","","","","","./tasks/HMM-beads/Images/BlackBeadChoice.png","","","","","","","","","",""
"image-keyboard-response","81","340343","0.0-3.0-4.0-1.0-2.22","5b6a87d2cda8590001db8e07","6662009ae78f21dd82fcd179","66620d7c24de6e03c471393d","null","","null","","","","","","","","./tasks/HMM-beads/Images/BlackBeadChoiceWrong.png","","","","","","","","","",""
"image-keyboard-response","82","342524","0.0-3.0-4.0-1.0-0.23","5b6a87d2cda8590001db8e07","6662009ae78f21dd82fcd179","66620d7c24de6e03c471393d","2180","","j","","","","","","","","./tasks/HMM-beads/Images/NewTrialWC.png","practice","0","23","1","0","1","1","false","",""
"image-keyboard-response","83","342826","0.0-3.0-4.0-1.0-1.23","5b6a87d2cda8590001db8e07","6662009ae78f21dd82fcd179","66620d7c24de6e03c471393d","null","","null","","","","","","","","./tasks/HMM-beads/Images/WhiteBeadChoice.png","","","","","","","","","",""
"image-keyboard-response","84","343329","0.0-3.0-4.0-1.0-2.23","5b6a87d2cda8590001db8e07","6662009ae78f21dd82fcd179","66620d7c24de6e03c471393d","null","","null","","","","","","","","./tasks/HMM-beads/Images/WhiteBeadChoiceWrong.png","","","","","","","","","",""
"image-keyboard-response","85","343512","0.0-3.0-4.0-1.0-0.24","5b6a87d2cda8590001db8e07","6662009ae78f21dd82fcd179","66620d7c24de6e03c471393d","182","","f","","","","","","","","./tasks/HMM-beads/Images/NewTrialBC.png","practice","0","24","1","1","0","0","false","",""
"image-keyboard-response","86","343815","0.0-3.0-4.0-1.0-1.24","5b6a87d2cda8590001db8e07","6662009ae78f21dd82fcd179","66620d7c24de6e03c471393d","null","","null","","","","","","","","./tasks/HMM-beads/Images/BlackBeadChoice.png","","","","","","","","","",""
"image-keyboard-response","87","344317","0.0-3.0-4.0-1.0-2.24","5b6a87d2cda8590001db8e07","6662009ae78f21dd82fcd179","66620d7c24de6e03c471393d","null","","null","","","","","","","","./tasks/HMM-beads/Images/BlackBeadChoiceWrong.png","","","","","","","","","",""
"image-keyboard-response","88","346685","0.0-3.0-4.0-1.0-0.25","5b6a87d2cda8590001db8e07","6662009ae78f21dd82fcd179","66620d7c24de6e03c471393d","2367","","j","","","","","","","","./tasks/HMM-beads/Images/NewTrialWC.png","practice","0","25","1","1","1","1","true","",""
"image-keyboard-response","89","346987","0.0-3.0-4.0-1.0-1.25","5b6a87d2cda8590001db8e07","6662009ae78f21dd82fcd179","66620d7c24de6e03c471393d","null","","null","","","","","","","","./tasks/HMM-beads/Images/WhiteBeadChoice.png","","","","","","","","","",""
"image-keyboard-response","90","347498","0.0-3.0-4.0-1.0-2.25","5b6a87d2cda8590001db8e07","6662009ae78f21dd82fcd179","66620d7c24de6e03c471393d","null","","null","","","","","","","","./tasks/HMM-beads/Images/WhiteBeadChoiceCorrect.png","","","","","","","","","",""
"image-keyboard-response","91","347856","0.0-3.0-4.0-1.0-0.26","5b6a87d2cda8590001db8e07","6662009ae78f21dd82fcd179","66620d7c24de6e03c471393d","356","","j","","","","","","","","./tasks/HMM-beads/Images/NewTrialWC.png","practice","0","26","1","1","1","1","true","",""
"image-keyboard-response","92","348160","0.0-3.0-4.0-1.0-1.26","5b6a87d2cda8590001db8e07","6662009ae78f21dd82fcd179","66620d7c24de6e03c471393d","null","","null","","","","","","","","./tasks/HMM-beads/Images/WhiteBeadChoice.png","","","","","","","","","",""
"image-keyboard-response","93","348663","0.0-3.0-4.0-1.0-2.26","5b6a87d2cda8590001db8e07","6662009ae78f21dd82fcd179","66620d7c24de6e03c471393d","null","","null","","","","","","","","./tasks/HMM-beads/Images/WhiteBeadChoiceCorrect.png","","","","","","","","","",""
"image-keyboard-response","94","349034","0.0-3.0-4.0-1.0-0.27","5b6a87d2cda8590001db8e07","6662009ae78f21dd82fcd179","66620d7c24de6e03c471393d","370","","j","","","","","","","","./tasks/HMM-beads/Images/NewTrialWC.png","practice","0","27","1","1","1","1","true","",""
"image-keyboard-response","95","349337","0.0-3.0-4.0-1.0-1.27","5b6a87d2cda8590001db8e07","6662009ae78f21dd82fcd179","66620d7c24de6e03c471393d","null","","null","","","","","","","","./tasks/HMM-beads/Images/WhiteBeadChoice.png","","","","","","","","","",""
"image-keyboard-response","96","349840","0.0-3.0-4.0-1.0-2.27","5b6a87d2cda8590001db8e07","6662009ae78f21dd82fcd179","66620d7c24de6e03c471393d","null","","null","","","","","","","","./tasks/HMM-beads/Images/WhiteBeadChoiceCorrect.png","","","","","","","","","",""
"image-keyboard-response","97","350243","0.0-3.0-4.0-1.0-0.28","5b6a87d2cda8590001db8e07","6662009ae78f21dd82fcd179","66620d7c24de6e03c471393d","401","","j","","","","","","","","./tasks/HMM-beads/Images/NewTrialWC.png","practice","0","28","1","0","1","1","false","",""
"image-keyboard-response","98","350545","0.0-3.0-4.0-1.0-1.28","5b6a87d2cda8590001db8e07","6662009ae78f21dd82fcd179","66620d7c24de6e03c471393d","null","","null","","","","","","","","./tasks/HMM-beads/Images/WhiteBeadChoice.png","","","","","","","","","",""
"image-keyboard-response","99","351048","0.0-3.0-4.0-1.0-2.28","5b6a87d2cda8590001db8e07","6662009ae78f21dd82fcd179","66620d7c24de6e03c471393d","null","","null","","","","","","","","./tasks/HMM-beads/Images/WhiteBeadChoiceWrong.png","","","","","","","","","",""
"image-keyboard-response","100","351749","0.0-3.0-4.0-1.0-0.29","5b6a87d2cda8590001db8e07","6662009ae78f21dd82fcd179","66620d7c24de6e03c471393d","699","","j","","","","","","","","./tasks/HMM-beads/Images/NewTrialBC.png","practice","0","29","1","1","0","1","true","",""
"image-keyboard-response","101","352052","0.0-3.0-4.0-1.0-1.29","5b6a87d2cda8590001db8e07","6662009ae78f21dd82fcd179","66620d7c24de6e03c471393d","null","","null","","","","","","","","./tasks/HMM-beads/Images/WhiteBeadChoice.png","","","","","","","","","",""
"image-keyboard-response","102","352555","0.0-3.0-4.0-1.0-2.29","5b6a87d2cda8590001db8e07","6662009ae78f21dd82fcd179","66620d7c24de6e03c471393d","null","","null","","","","","","","","./tasks/HMM-beads/Images/WhiteBeadChoiceCorrect.png","","","","","","","","","",""
"image-keyboard-response","103","352758","0.0-3.0-4.0-1.0-0.30","5b6a87d2cda8590001db8e07","6662009ae78f21dd82fcd179","66620d7c24de6e03c471393d","193","","j","","","","","","","","./tasks/HMM-beads/Images/NewTrialWC.png","practice","0","30","1","0","1","1","false","",""
"image-keyboard-response","104","353061","0.0-3.0-4.0-1.0-1.30","5b6a87d2cda8590001db8e07","6662009ae78f21dd82fcd179","66620d7c24de6e03c471393d","null","","null","","","","","","","","./tasks/HMM-beads/Images/WhiteBeadChoice.png","","","","","","","","","",""
"image-keyboard-response","105","353564","0.0-3.0-4.0-1.0-2.30","5b6a87d2cda8590001db8e07","6662009ae78f21dd82fcd179","66620d7c24de6e03c471393d","null","","null","","","","","","","","./tasks/HMM-beads/Images/WhiteBeadChoiceWrong.png","","","","","","","","","",""
"image-keyboard-response","106","354670","0.0-3.0-4.0-1.0-0.31","5b6a87d2cda8590001db8e07","6662009ae78f21dd82fcd179","66620d7c24de6e03c471393d","1105","","j","","","","","","","","./tasks/HMM-beads/Images/NewTrialBC.png","practice","0","31","1","1","0","1","true","",""
"image-keyboard-response","107","354973","0.0-3.0-4.0-1.0-1.31","5b6a87d2cda8590001db8e07","6662009ae78f21dd82fcd179","66620d7c24de6e03c471393d","null","","null","","","","","","","","./tasks/HMM-beads/Images/WhiteBeadChoice.png","","","","","","","","","",""
"image-keyboard-response","108","355476","0.0-3.0-4.0-1.0-2.31","5b6a87d2cda8590001db8e07","6662009ae78f21dd82fcd179","66620d7c24de6e03c471393d","null","","null","","","","","","","","./tasks/HMM-beads/Images/WhiteBeadChoiceCorrect.png","","","","","","","","","",""
"image-keyboard-response","109","355650","0.0-3.0-4.0-1.0-0.32","5b6a87d2cda8590001db8e07","6662009ae78f21dd82fcd179","66620d7c24de6e03c471393d","172","","j","","","","","","","","./tasks/HMM-beads/Images/NewTrialWC.png","practice","0","32","1","1","1","1","true","",""
"image-keyboard-response","110","355953","0.0-3.0-4.0-1.0-1.32","5b6a87d2cda8590001db8e07","6662009ae78f21dd82fcd179","66620d7c24de6e03c471393d","null","","null","","","","","","","","./tasks/HMM-beads/Images/WhiteBeadChoice.png","","","","","","","","","",""
"image-keyboard-response","111","356456","0.0-3.0-4.0-1.0-2.32","5b6a87d2cda8590001db8e07","6662009ae78f21dd82fcd179","66620d7c24de6e03c471393d","null","","null","","","","","","","","./tasks/HMM-beads/Images/WhiteBeadChoiceCorrect.png","","","","","","","","","",""
"image-keyboard-response","112","356635","0.0-3.0-4.0-1.0-0.33","5b6a87d2cda8590001db8e07","6662009ae78f21dd82fcd179","66620d7c24de6e03c471393d","178","","j","","","","","","","","./tasks/HMM-beads/Images/NewTrialWC.png","practice","0","33","1","1","1","1","true","",""
"image-keyboard-response","113","356937","0.0-3.0-4.0-1.0-1.33","5b6a87d2cda8590001db8e07","6662009ae78f21dd82fcd179","66620d7c24de6e03c471393d","null","","null","","","","","","","","./tasks/HMM-beads/Images/WhiteBeadChoice.png","","","","","","","","","",""
"image-keyboard-response","114","357440","0.0-3.0-4.0-1.0-2.33","5b6a87d2cda8590001db8e07","6662009ae78f21dd82fcd179","66620d7c24de6e03c471393d","null","","null","","","","","","","","./tasks/HMM-beads/Images/WhiteBeadChoiceCorrect.png","","","","","","","","","",""
"image-keyboard-response","115","357719","0.0-3.0-4.0-1.0-0.34","5b6a87d2cda8590001db8e07","6662009ae78f21dd82fcd179","66620d7c24de6e03c471393d","277","","j","","","","","","","","./tasks/HMM-beads/Images/NewTrialWC.png","practice","0","34","1","1","1","1","true","",""
"image-keyboard-response","116","358031","0.0-3.0-4.0-1.0-1.34","5b6a87d2cda8590001db8e07","6662009ae78f21dd82fcd179","66620d7c24de6e03c471393d","null","","null","","","","","","","","./tasks/HMM-beads/Images/WhiteBeadChoice.png","","","","","","","","","",""
"image-keyboard-response","117","358533","0.0-3.0-4.0-1.0-2.34","5b6a87d2cda8590001db8e07","6662009ae78f21dd82fcd179","66620d7c24de6e03c471393d","null","","null","","","","","","","","./tasks/HMM-beads/Images/WhiteBeadChoiceCorrect.png","","","","","","","","","",""
"image-keyboard-response","118","358721","0.0-3.0-4.0-1.0-0.35","5b6a87d2cda8590001db8e07","6662009ae78f21dd82fcd179","66620d7c24de6e03c471393d","186","","j","","","","","","","","./tasks/HMM-beads/Images/NewTrialWC.png","practice","0","35","1","1","1","1","true","",""
"image-keyboard-response","119","359024","0.0-3.0-4.0-1.0-1.35","5b6a87d2cda8590001db8e07","6662009ae78f21dd82fcd179","66620d7c24de6e03c471393d","null","","null","","","","","","","","./tasks/HMM-beads/Images/WhiteBeadChoice.png","","","","","","","","","",""
"image-keyboard-response","120","359526","0.0-3.0-4.0-1.0-2.35","5b6a87d2cda8590001db8e07","6662009ae78f21dd82fcd179","66620d7c24de6e03c471393d","null","","null","","","","","","","","./tasks/HMM-beads/Images/WhiteBeadChoiceCorrect.png","","","","","","","","","",""
"image-keyboard-response","121","359760","0.0-3.0-4.0-1.0-0.36","5b6a87d2cda8590001db8e07","6662009ae78f21dd82fcd179","66620d7c24de6e03c471393d","232","","j","","","","","","","","./tasks/HMM-beads/Images/NewTrialWC.png","practice","0","36","1","0","1","1","false","",""
"image-keyboard-response","122","360063","0.0-3.0-4.0-1.0-1.36","5b6a87d2cda8590001db8e07","6662009ae78f21dd82fcd179","66620d7c24de6e03c471393d","null","","null","","","","","","","","./tasks/HMM-beads/Images/WhiteBeadChoice.png","","","","","","","","","",""
"image-keyboard-response","123","360565","0.0-3.0-4.0-1.0-2.36","5b6a87d2cda8590001db8e07","6662009ae78f21dd82fcd179","66620d7c24de6e03c471393d","null","","null","","","","","","","","./tasks/HMM-beads/Images/WhiteBeadChoiceWrong.png","","","","","","","","","",""
"image-keyboard-response","124","360955","0.0-3.0-4.0-1.0-0.37","5b6a87d2cda8590001db8e07","6662009ae78f21dd82fcd179","66620d7c24de6e03c471393d","388","","j","","","","","","","","./tasks/HMM-beads/Images/NewTrialBC.png","practice","0","37","1","1","0","1","true","",""
"image-keyboard-response","125","361257","0.0-3.0-4.0-1.0-1.37","5b6a87d2cda8590001db8e07","6662009ae78f21dd82fcd179","66620d7c24de6e03c471393d","null","","null","","","","","","","","./tasks/HMM-beads/Images/WhiteBeadChoice.png","","","","","","","","","",""
"image-keyboard-response","126","361760","0.0-3.0-4.0-1.0-2.37","5b6a87d2cda8590001db8e07","6662009ae78f21dd82fcd179","66620d7c24de6e03c471393d","null","","null","","","","","","","","./tasks/HMM-beads/Images/WhiteBeadChoiceCorrect.png","","","","","","","","","",""
"image-keyboard-response","127","361829","0.0-3.0-4.0-1.0-0.38","5b6a87d2cda8590001db8e07","6662009ae78f21dd82fcd179","66620d7c24de6e03c471393d","67","","j","","","","","","","","./tasks/HMM-beads/Images/NewTrialWC.png","practice","0","38","1","1","1","1","true","",""
"image-keyboard-response","128","362132","0.0-3.0-4.0-1.0-1.38","5b6a87d2cda8590001db8e07","6662009ae78f21dd82fcd179","66620d7c24de6e03c471393d","null","","null","","","","","","","","./tasks/HMM-beads/Images/WhiteBeadChoice.png","","","","","","","","","",""
"image-keyboard-response","129","362643","0.0-3.0-4.0-1.0-2.38","5b6a87d2cda8590001db8e07","6662009ae78f21dd82fcd179","66620d7c24de6e03c471393d","null","","null","","","","","","","","./tasks/HMM-beads/Images/WhiteBeadChoiceCorrect.png","","","","","","","","","",""
"image-keyboard-response","130","362783","0.0-3.0-4.0-1.0-0.39","5b6a87d2cda8590001db8e07","6662009ae78f21dd82fcd179","66620d7c24de6e03c471393d","138","","j","","","","","","","","./tasks/HMM-beads/Images/NewTrialWC.png","practice","0","39","1","1","1","1","true","",""
"image-keyboard-response","131","363085","0.0-3.0-4.0-1.0-1.39","5b6a87d2cda8590001db8e07","6662009ae78f21dd82fcd179","66620d7c24de6e03c471393d","null","","null","","","","","","","","./tasks/HMM-beads/Images/WhiteBeadChoice.png","","","","","","","","","",""
"image-keyboard-response","132","363588","0.0-3.0-4.0-1.0-2.39","5b6a87d2cda8590001db8e07","6662009ae78f21dd82fcd179","66620d7c24de6e03c471393d","null","","null","","","","","","","","./tasks/HMM-beads/Images/WhiteBeadChoiceCorrect.png","","","","","","","","","",""
"html-keyboard-response","133","368335","0.0-3.0-4.0-2.0","5b6a87d2cda8590001db8e07","6662009ae78f21dd82fcd179","66620d7c24de6e03c471393d","4744",""," ","","","","","","","","","","","","","","","","","",""
"instructions","134","384158","0.0-3.0-5.0","5b6a87d2cda8590001db8e07","6662009ae78f21dd82fcd179","66620d7c24de6e03c471393d","15822","","","","[{""page_index"":0,""viewing_time"":12154},{""page_index"":1,""viewing_time"":3668}]","","","","","","","","","","","","","","","",""
"html-keyboard-response","135","392429","0.0-3.0-6.0-0.0","5b6a87d2cda8590001db8e07","6662009ae78f21dd82fcd179","66620d7c24de6e03c471393d","8269",""," ","","","","","","","","<div align=center>In this block, there will be a <b>1% chance</b> that the jar on the next trial will be different from the jar on the current trial.<br><br></div>","","","","","","","","","",""
"image-keyboard-response","136","393906","0.0-3.0-6.0-1.0-0.0","5b6a87d2cda8590001db8e07","6662009ae78f21dd82fcd179","66620d7c24de6e03c471393d","1476","","f","","","","","","","","./tasks/HMM-beads/Images/NoChoice.png","lowH","1","0","1","0","9","0","true","",""
"image-keyboard-response","137","394208","0.0-3.0-6.0-1.0-1.0","5b6a87d2cda8590001db8e07","6662009ae78f21dd82fcd179","66620d7c24de6e03c471393d","null","","null","","","","","","","","./tasks/HMM-beads/Images/BlackBeadChoice.png","","","","","","","","","",""
"image-keyboard-response","138","394710","0.0-3.0-6.0-1.0-2.0","5b6a87d2cda8590001db8e07","6662009ae78f21dd82fcd179","66620d7c24de6e03c471393d","null","","null","","","","","","","","./tasks/HMM-beads/Images/BlackBeadChoiceCorrect.png","","","","","","","","","",""
"image-keyboard-response","139","395366","0.0-3.0-6.0-1.0-0.1","5b6a87d2cda8590001db8e07","6662009ae78f21dd82fcd179","66620d7c24de6e03c471393d","655","","f","","","","","","","","./tasks/HMM-beads/Images/NewTrialBC.png","lowH","1","1","1","1","0","0","false","",""
"image-keyboard-response","140","395668","0.0-3.0-6.0-1.0-1.1","5b6a87d2cda8590001db8e07","6662009ae78f21dd82fcd179","66620d7c24de6e03c471393d","null","","null","","","","","","","","./tasks/HMM-beads/Images/BlackBeadChoice.png","","","","","","","","","",""
"image-keyboard-response","141","396171","0.0-3.0-6.0-1.0-2.1","5b6a87d2cda8590001db8e07","6662009ae78f21dd82fcd179","66620d7c24de6e03c471393d","null","","null","","","","","","","","./tasks/HMM-beads/Images/BlackBeadChoiceWrong.png","","","","","","","","","",""
"image-keyboard-response","142","397314","0.0-3.0-6.0-1.0-0.2","5b6a87d2cda8590001db8e07","6662009ae78f21dd82fcd179","66620d7c24de6e03c471393d","1142","","f","","","","","","","","./tasks/HMM-beads/Images/NewTrialWC.png","lowH","1","2","1","1","1","0","false","",""
"image-keyboard-response","143","397617","0.0-3.0-6.0-1.0-1.2","5b6a87d2cda8590001db8e07","6662009ae78f21dd82fcd179","66620d7c24de6e03c471393d","null","","null","","","","","","","","./tasks/HMM-beads/Images/BlackBeadChoice.png","","","","","","","","","",""
"image-keyboard-response","144","398119","0.0-3.0-6.0-1.0-2.2","5b6a87d2cda8590001db8e07","6662009ae78f21dd82fcd179","66620d7c24de6e03c471393d","null","","null","","","","","","","","./tasks/HMM-beads/Images/BlackBeadChoiceWrong.png","","","","","","","","","",""
"image-keyboard-response","145","398190","0.0-3.0-6.0-1.0-0.3","5b6a87d2cda8590001db8e07","6662009ae78f21dd82fcd179","66620d7c24de6e03c471393d","68","","j","","","","","","","","./tasks/HMM-beads/Images/NewTrialWC.png","lowH","1","3","1","1","1","1","true","",""
"image-keyboard-response","146","398491","0.0-3.0-6.0-1.0-1.3","5b6a87d2cda8590001db8e07","6662009ae78f21dd82fcd179","66620d7c24de6e03c471393d","null","","null","","","","","","","","./tasks/HMM-beads/Images/WhiteBeadChoice.png","","","","","","","","","",""
"image-keyboard-response","147","398994","0.0-3.0-6.0-1.0-2.3","5b6a87d2cda8590001db8e07","6662009ae78f21dd82fcd179","66620d7c24de6e03c471393d","null","","null","","","","","","","","./tasks/HMM-beads/Images/WhiteBeadChoiceCorrect.png","","","","","","","","","",""
"image-keyboard-response","148","399252","0.0-3.0-6.0-1.0-0.4","5b6a87d2cda8590001db8e07","6662009ae78f21dd82fcd179","66620d7c24de6e03c471393d","256","","j","","","","","","","","./tasks/HMM-beads/Images/NewTrialWC.png","lowH","1","4","1","1","1","1","true","",""
"image-keyboard-response","149","399554","0.0-3.0-6.0-1.0-1.4","5b6a87d2cda8590001db8e07","6662009ae78f21dd82fcd179","66620d7c24de6e03c471393d","null","","null","","","","","","","","./tasks/HMM-beads/Images/WhiteBeadChoice.png","","","","","","","","","",""
"image-keyboard-response","150","400057","0.0-3.0-6.0-1.0-2.4","5b6a87d2cda8590001db8e07","6662009ae78f21dd82fcd179","66620d7c24de6e03c471393d","null","","null","","","","","","","","./tasks/HMM-beads/Images/WhiteBeadChoiceCorrect.png","","","","","","","","","",""
"image-keyboard-response","151","400312","0.0-3.0-6.0-1.0-0.5","5b6a87d2cda8590001db8e07","6662009ae78f21dd82fcd179","66620d7c24de6e03c471393d","254","","j","","","","","","","","./tasks/HMM-beads/Images/NewTrialWC.png","lowH","1","5","1","1","1","1","true","",""
"image-keyboard-response","152","400614","0.0-3.0-6.0-1.0-1.5","5b6a87d2cda8590001db8e07","6662009ae78f21dd82fcd179","66620d7c24de6e03c471393d","null","","null","","","","","","","","./tasks/HMM-beads/Images/WhiteBeadChoice.png","","","","","","","","","",""
"image-keyboard-response","153","401116","0.0-3.0-6.0-1.0-2.5","5b6a87d2cda8590001db8e07","6662009ae78f21dd82fcd179","66620d7c24de6e03c471393d","null","","null","","","","","","","","./tasks/HMM-beads/Images/WhiteBeadChoiceCorrect.png","","","","","","","","","",""
"image-keyboard-response","154","401379","0.0-3.0-6.0-1.0-0.6","5b6a87d2cda8590001db8e07","6662009ae78f21dd82fcd179","66620d7c24de6e03c471393d","261","","j","","","","","","","","./tasks/HMM-beads/Images/NewTrialWC.png","lowH","1","6","1","0","1","1","false","",""
"image-keyboard-response","155","401682","0.0-3.0-6.0-1.0-1.6","5b6a87d2cda8590001db8e07","6662009ae78f21dd82fcd179","66620d7c24de6e03c471393d","null","","null","","","","","","","","./tasks/HMM-beads/Images/WhiteBeadChoice.png","","","","","","","","","",""
"image-keyboard-response","156","402185","0.0-3.0-6.0-1.0-2.6","5b6a87d2cda8590001db8e07","6662009ae78f21dd82fcd179","66620d7c24de6e03c471393d","null","","null","","","","","","","","./tasks/HMM-beads/Images/WhiteBeadChoiceWrong.png","","","","","","","","","",""
"image-keyboard-response","157","402763","0.0-3.0-6.0-1.0-0.7","5b6a87d2cda8590001db8e07","6662009ae78f21dd82fcd179","66620d7c24de6e03c471393d","577","","j","","","","","","","","./tasks/HMM-beads/Images/NewTrialBC.png","lowH","1","7","1","1","0","1","true","",""
"image-keyboard-response","158","403073","0.0-3.0-6.0-1.0-1.7","5b6a87d2cda8590001db8e07","6662009ae78f21dd82fcd179","66620d7c24de6e03c471393d","null","","null","","","","","","","","./tasks/HMM-beads/Images/WhiteBeadChoice.png","","","","","","","","","",""
"image-keyboard-response","159","403576","0.0-3.0-6.0-1.0-2.7","5b6a87d2cda8590001db8e07","6662009ae78f21dd82fcd179","66620d7c24de6e03c471393d","null","","null","","","","","","","","./tasks/HMM-beads/Images/WhiteBeadChoiceCorrect.png","","","","","","","","","",""
"image-keyboard-response","160","403855","0.0-3.0-6.0-1.0-0.8","5b6a87d2cda8590001db8e07","6662009ae78f21dd82fcd179","66620d7c24de6e03c471393d","278","","j","","","","","","","","./tasks/HMM-beads/Images/NewTrialWC.png","lowH","1","8","1","1","1","1","true","",""
"image-keyboard-response","161","404157","0.0-3.0-6.0-1.0-1.8","5b6a87d2cda8590001db8e07","6662009ae78f21dd82fcd179","66620d7c24de6e03c471393d","null","","null","","","","","","","","./tasks/HMM-beads/Images/WhiteBeadChoice.png","","","","","","","","","",""
"image-keyboard-response","162","404660","0.0-3.0-6.0-1.0-2.8","5b6a87d2cda8590001db8e07","6662009ae78f21dd82fcd179","66620d7c24de6e03c471393d","null","","null","","","","","","","","./tasks/HMM-beads/Images/WhiteBeadChoiceCorrect.png","","","","","","","","","",""
"image-keyboard-response","163","404886","0.0-3.0-6.0-1.0-0.9","5b6a87d2cda8590001db8e07","6662009ae78f21dd82fcd179","66620d7c24de6e03c471393d","225","","j","","","","","","","","./tasks/HMM-beads/Images/NewTrialWC.png","lowH","1","9","1","1","1","1","true","",""
"image-keyboard-response","164","405189","0.0-3.0-6.0-1.0-1.9","5b6a87d2cda8590001db8e07","6662009ae78f21dd82fcd179","66620d7c24de6e03c471393d","null","","null","","","","","","","","./tasks/HMM-beads/Images/WhiteBeadChoice.png","","","","","","","","","",""
"image-keyboard-response","165","405691","0.0-3.0-6.0-1.0-2.9","5b6a87d2cda8590001db8e07","6662009ae78f21dd82fcd179","66620d7c24de6e03c471393d","null","","null","","","","","","","","./tasks/HMM-beads/Images/WhiteBeadChoiceCorrect.png","","","","","","","","","",""
"image-keyboard-response","166","407322","0.0-3.0-6.0-1.0-0.10","5b6a87d2cda8590001db8e07","6662009ae78f21dd82fcd179","66620d7c24de6e03c471393d","1629","","j","","","","","","","","./tasks/HMM-beads/Images/NewTrialWC.png","lowH","1","10","1","1","1","1","true","",""
"image-keyboard-response","167","407624","0.0-3.0-6.0-1.0-1.10","5b6a87d2cda8590001db8e07","6662009ae78f21dd82fcd179","66620d7c24de6e03c471393d","null","","null","","","","","","","","./tasks/HMM-beads/Images/WhiteBeadChoice.png","","","","","","","","","",""
"image-keyboard-response","168","408127","0.0-3.0-6.0-1.0-2.10","5b6a87d2cda8590001db8e07","6662009ae78f21dd82fcd179","66620d7c24de6e03c471393d","null","","null","","","","","","","","./tasks/HMM-beads/Images/WhiteBeadChoiceCorrect.png","","","","","","","","","",""
"image-keyboard-response","169","408404","0.0-3.0-6.0-1.0-0.11","5b6a87d2cda8590001db8e07","6662009ae78f21dd82fcd179","66620d7c24de6e03c471393d","276","","j","","","","","","","","./tasks/HMM-beads/Images/NewTrialWC.png","lowH","1","11","1","1","1","1","true","",""
"image-keyboard-response","170","408707","0.0-3.0-6.0-1.0-1.11","5b6a87d2cda8590001db8e07","6662009ae78f21dd82fcd179","66620d7c24de6e03c471393d","null","","null","","","","","","","","./tasks/HMM-beads/Images/WhiteBeadChoice.png","","","","","","","","","",""
"image-keyboard-response","171","409217","0.0-3.0-6.0-1.0-2.11","5b6a87d2cda8590001db8e07","6662009ae78f21dd82fcd179","66620d7c24de6e03c471393d","null","","null","","","","","","","","./tasks/HMM-beads/Images/WhiteBeadChoiceCorrect.png","","","","","","","","","",""
"image-keyboard-response","172","409287","0.0-3.0-6.0-1.0-0.12","5b6a87d2cda8590001db8e07","6662009ae78f21dd82fcd179","66620d7c24de6e03c471393d","68","","j","","","","","","","","./tasks/HMM-beads/Images/NewTrialWC.png","lowH","1","12","1","1","1","1","true","",""
"image-keyboard-response","173","409589","0.0-3.0-6.0-1.0-1.12","5b6a87d2cda8590001db8e07","6662009ae78f21dd82fcd179","66620d7c24de6e03c471393d","null","","null","","","","","","","","./tasks/HMM-beads/Images/WhiteBeadChoice.png","","","","","","","","","",""
"image-keyboard-response","174","410092","0.0-3.0-6.0-1.0-2.12","5b6a87d2cda8590001db8e07","6662009ae78f21dd82fcd179","66620d7c24de6e03c471393d","null","","null","","","","","","","","./tasks/HMM-beads/Images/WhiteBeadChoiceCorrect.png","","","","","","","","","",""
"image-keyboard-response","175","410171","0.0-3.0-6.0-1.0-0.13","5b6a87d2cda8590001db8e07","6662009ae78f21dd82fcd179","66620d7c24de6e03c471393d","78","","j","","","","","","","","./tasks/HMM-beads/Images/NewTrialWC.png","lowH","1","13","1","0","1","1","false","",""
"image-keyboard-response","176","410474","0.0-3.0-6.0-1.0-1.13","5b6a87d2cda8590001db8e07","6662009ae78f21dd82fcd179","66620d7c24de6e03c471393d","null","","null","","","","","","","","./tasks/HMM-beads/Images/WhiteBeadChoice.png","","","","","","","","","",""
"image-keyboard-response","177","410977","0.0-3.0-6.0-1.0-2.13","5b6a87d2cda8590001db8e07","6662009ae78f21dd82fcd179","66620d7c24de6e03c471393d","null","","null","","","","","","","","./tasks/HMM-beads/Images/WhiteBeadChoiceWrong.png","","","","","","","","","",""
"image-keyboard-response","178","411221","0.0-3.0-6.0-1.0-0.14","5b6a87d2cda8590001db8e07","6662009ae78f21dd82fcd179","66620d7c24de6e03c471393d","242","","j","","","","","","","","./tasks/HMM-beads/Images/NewTrialBC.png","lowH","1","14","1","0","0","1","false","",""
"image-keyboard-response","179","411525","0.0-3.0-6.0-1.0-1.14","5b6a87d2cda8590001db8e07","6662009ae78f21dd82fcd179","66620d7c24de6e03c471393d","null","","null","","","","","","","","./tasks/HMM-beads/Images/WhiteBeadChoice.png","","","","","","","","","",""
"image-keyboard-response","180","412028","0.0-3.0-6.0-1.0-2.14","5b6a87d2cda8590001db8e07","6662009ae78f21dd82fcd179","66620d7c24de6e03c471393d","null","","null","","","","","","","","./tasks/HMM-beads/Images/WhiteBeadChoiceWrong.png","","","","","","","","","",""
"image-keyboard-response","181","412361","0.0-3.0-6.0-1.0-0.15","5b6a87d2cda8590001db8e07","6662009ae78f21dd82fcd179","66620d7c24de6e03c471393d","331","","j","","","","","","","","./tasks/HMM-beads/Images/NewTrialBC.png","lowH","1","15","1","1","0","1","true","",""
"image-keyboard-response","182","412664","0.0-3.0-6.0-1.0-1.15","5b6a87d2cda8590001db8e07","6662009ae78f21dd82fcd179","66620d7c24de6e03c471393d","null","","null","","","","","","","","./tasks/HMM-beads/Images/WhiteBeadChoice.png","","","","","","","","","",""
"image-keyboard-response","183","413167","0.0-3.0-6.0-1.0-2.15","5b6a87d2cda8590001db8e07","6662009ae78f21dd82fcd179","66620d7c24de6e03c471393d","null","","null","","","","","","","","./tasks/HMM-beads/Images/WhiteBeadChoiceCorrect.png","","","","","","","","","",""
"image-keyboard-response","184","413334","0.0-3.0-6.0-1.0-0.16","5b6a87d2cda8590001db8e07","6662009ae78f21dd82fcd179","66620d7c24de6e03c471393d","157","","j","","","","","","","","./tasks/HMM-beads/Images/NewTrialWC.png","lowH","1","16","1","1","1","1","true","",""
"image-keyboard-response","185","413637","0.0-3.0-6.0-1.0-1.16","5b6a87d2cda8590001db8e07","6662009ae78f21dd82fcd179","66620d7c24de6e03c471393d","null","","null","","","","","","","","./tasks/HMM-beads/Images/WhiteBeadChoice.png","","","","","","","","","",""
"image-keyboard-response","186","414140","0.0-3.0-6.0-1.0-2.16","5b6a87d2cda8590001db8e07","6662009ae78f21dd82fcd179","66620d7c24de6e03c471393d","null","","null","","","","","","","","./tasks/HMM-beads/Images/WhiteBeadChoiceCorrect.png","","","","","","","","","",""
"image-keyboard-response","187","414653","0.0-3.0-6.0-1.0-0.17","5b6a87d2cda8590001db8e07","6662009ae78f21dd82fcd179","66620d7c24de6e03c471393d","512","","j","","","","","","","","./tasks/HMM-beads/Images/NewTrialWC.png","lowH","1","17","1","1","1","1","true","",""
"image-keyboard-response","188","414956","0.0-3.0-6.0-1.0-1.17","5b6a87d2cda8590001db8e07","6662009ae78f21dd82fcd179","66620d7c24de6e03c471393d","null","","null","","","","","","","","./tasks/HMM-beads/Images/WhiteBeadChoice.png","","","","","","","","","",""
"image-keyboard-response","189","415459","0.0-3.0-6.0-1.0-2.17","5b6a87d2cda8590001db8e07","6662009ae78f21dd82fcd179","66620d7c24de6e03c471393d","null","","null","","","","","","","","./tasks/HMM-beads/Images/WhiteBeadChoiceCorrect.png","","","","","","","","","",""
"image-keyboard-response","190","415719","0.0-3.0-6.0-1.0-0.18","5b6a87d2cda8590001db8e07","6662009ae78f21dd82fcd179","66620d7c24de6e03c471393d","259","","j","","","","","","","","./tasks/HMM-beads/Images/NewTrialWC.png","lowH","1","18","1","1","1","1","true","",""
"image-keyboard-response","191","416022","0.0-3.0-6.0-1.0-1.18","5b6a87d2cda8590001db8e07","6662009ae78f21dd82fcd179","66620d7c24de6e03c471393d","null","","null","","","","","","","","./tasks/HMM-beads/Images/WhiteBeadChoice.png","","","","","","","","","",""
"image-keyboard-response","192","416525","0.0-3.0-6.0-1.0-2.18","5b6a87d2cda8590001db8e07","6662009ae78f21dd82fcd179","66620d7c24de6e03c471393d","null","","null","","","","","","","","./tasks/HMM-beads/Images/WhiteBeadChoiceCorrect.png","","","","","","","","","",""
"image-keyboard-response","193","416740","0.0-3.0-6.0-1.0-0.19","5b6a87d2cda8590001db8e07","6662009ae78f21dd82fcd179","66620d7c24de6e03c471393d","214","","j","","","","","","","","./tasks/HMM-beads/Images/NewTrialWC.png","lowH","1","19","1","1","1","1","true","",""
"image-keyboard-response","194","417042","0.0-3.0-6.0-1.0-1.19","5b6a87d2cda8590001db8e07","6662009ae78f21dd82fcd179","66620d7c24de6e03c471393d","null","","null","","","","","","","","./tasks/HMM-beads/Images/WhiteBeadChoice.png","","","","","","","","","",""
"image-keyboard-response","195","417545","0.0-3.0-6.0-1.0-2.19","5b6a87d2cda8590001db8e07","6662009ae78f21dd82fcd179","66620d7c24de6e03c471393d","null","","null","","","","","","","","./tasks/HMM-beads/Images/WhiteBeadChoiceCorrect.png","","","","","","","","","",""
"image-keyboard-response","196","417821","0.0-3.0-6.0-1.0-0.20","5b6a87d2cda8590001db8e07","6662009ae78f21dd82fcd179","66620d7c24de6e03c471393d","274","","j","","","","","","","","./tasks/HMM-beads/Images/NewTrialWC.png","lowH","1","20","1","1","1","1","true","",""
"image-keyboard-response","197","418131","0.0-3.0-6.0-1.0-1.20","5b6a87d2cda8590001db8e07","6662009ae78f21dd82fcd179","66620d7c24de6e03c471393d","null","","null","","","","","","","","./tasks/HMM-beads/Images/WhiteBeadChoice.png","","","","","","","","","",""
"image-keyboard-response","198","418632","0.0-3.0-6.0-1.0-2.20","5b6a87d2cda8590001db8e07","6662009ae78f21dd82fcd179","66620d7c24de6e03c471393d","null","","null","","","","","","","","./tasks/HMM-beads/Images/WhiteBeadChoiceCorrect.png","","","","","","","","","",""
"image-keyboard-response","199","418856","0.0-3.0-6.0-1.0-0.21","5b6a87d2cda8590001db8e07","6662009ae78f21dd82fcd179","66620d7c24de6e03c471393d","223","","j","","","","","","","","./tasks/HMM-beads/Images/NewTrialWC.png","lowH","1","21","1","1","1","1","true","",""
"image-keyboard-response","200","419158","0.0-3.0-6.0-1.0-1.21","5b6a87d2cda8590001db8e07","6662009ae78f21dd82fcd179","66620d7c24de6e03c471393d","null","","null","","","","","","","","./tasks/HMM-beads/Images/WhiteBeadChoice.png","","","","","","","","","",""
"image-keyboard-response","201","419661","0.0-3.0-6.0-1.0-2.21","5b6a87d2cda8590001db8e07","6662009ae78f21dd82fcd179","66620d7c24de6e03c471393d","null","","null","","","","","","","","./tasks/HMM-beads/Images/WhiteBeadChoiceCorrect.png","","","","","","","","","",""
"image-keyboard-response","202","419836","0.0-3.0-6.0-1.0-0.22","5b6a87d2cda8590001db8e07","6662009ae78f21dd82fcd179","66620d7c24de6e03c471393d","174","","j","","","","","","","","./tasks/HMM-beads/Images/NewTrialWC.png","lowH","1","22","1","1","1","1","true","",""
"image-keyboard-response","203","420139","0.0-3.0-6.0-1.0-1.22","5b6a87d2cda8590001db8e07","6662009ae78f21dd82fcd179","66620d7c24de6e03c471393d","null","","null","","","","","","","","./tasks/HMM-beads/Images/WhiteBeadChoice.png","","","","","","","","","",""
"image-keyboard-response","204","420642","0.0-3.0-6.0-1.0-2.22","5b6a87d2cda8590001db8e07","6662009ae78f21dd82fcd179","66620d7c24de6e03c471393d","null","","null","","","","","","","","./tasks/HMM-beads/Images/WhiteBeadChoiceCorrect.png","","","","","","","","","",""
"image-keyboard-response","205","420891","0.0-3.0-6.0-1.0-0.23","5b6a87d2cda8590001db8e07","6662009ae78f21dd82fcd179","66620d7c24de6e03c471393d","248","","j","","","","","","","","./tasks/HMM-beads/Images/NewTrialWC.png","lowH","1","23","1","1","1","1","true","",""
"image-keyboard-response","206","421194","0.0-3.0-6.0-1.0-1.23","5b6a87d2cda8590001db8e07","6662009ae78f21dd82fcd179","66620d7c24de6e03c471393d","null","","null","","","","","","","","./tasks/HMM-beads/Images/WhiteBeadChoice.png","","","","","","","","","",""
"image-keyboard-response","207","421697","0.0-3.0-6.0-1.0-2.23","5b6a87d2cda8590001db8e07","6662009ae78f21dd82fcd179","66620d7c24de6e03c471393d","null","","null","","","","","","","","./tasks/HMM-beads/Images/WhiteBeadChoiceCorrect.png","","","","","","","","","",""
"image-keyboard-response","208","421916","0.0-3.0-6.0-1.0-0.24","5b6a87d2cda8590001db8e07","6662009ae78f21dd82fcd179","66620d7c24de6e03c471393d","219","","j","","","","","","","","./tasks/HMM-beads/Images/NewTrialWC.png","lowH","1","24","1","0","1","1","false","",""
"image-keyboard-response","209","422220","0.0-3.0-6.0-1.0-1.24","5b6a87d2cda8590001db8e07","6662009ae78f21dd82fcd179","66620d7c24de6e03c471393d","null","","null","","","","","","","","./tasks/HMM-beads/Images/WhiteBeadChoice.png","","","","","","","","","",""
"image-keyboard-response","210","422731","0.0-3.0-6.0-1.0-2.24","5b6a87d2cda8590001db8e07","6662009ae78f21dd82fcd179","66620d7c24de6e03c471393d","null","","null","","","","","","","","./tasks/HMM-beads/Images/WhiteBeadChoiceWrong.png","","","","","","","","","",""
"image-keyboard-response","211","422926","0.0-3.0-6.0-1.0-0.25","5b6a87d2cda8590001db8e07","6662009ae78f21dd82fcd179","66620d7c24de6e03c471393d","194","","j","","","","","","","","./tasks/HMM-beads/Images/NewTrialBC.png","lowH","1","25","1","1","0","1","true","",""
"image-keyboard-response","212","423229","0.0-3.0-6.0-1.0-1.25","5b6a87d2cda8590001db8e07","6662009ae78f21dd82fcd179","66620d7c24de6e03c471393d","null","","null","","","","","","","","./tasks/HMM-beads/Images/WhiteBeadChoice.png","","","","","","","","","",""
"image-keyboard-response","213","423732","0.0-3.0-6.0-1.0-2.25","5b6a87d2cda8590001db8e07","6662009ae78f21dd82fcd179","66620d7c24de6e03c471393d","null","","null","","","","","","","","./tasks/HMM-beads/Images/WhiteBeadChoiceCorrect.png","","","","","","","","","",""
"image-keyboard-response","214","423814","0.0-3.0-6.0-1.0-0.26","5b6a87d2cda8590001db8e07","6662009ae78f21dd82fcd179","66620d7c24de6e03c471393d","80","","j","","","","","","","","./tasks/HMM-beads/Images/NewTrialWC.png","lowH","1","26","1","0","1","1","false","",""
"image-keyboard-response","215","424116","0.0-3.0-6.0-1.0-1.26","5b6a87d2cda8590001db8e07","6662009ae78f21dd82fcd179","66620d7c24de6e03c471393d","null","","null","","","","","","","","./tasks/HMM-beads/Images/WhiteBeadChoice.png","","","","","","","","","",""
"image-keyboard-response","216","424620","0.0-3.0-6.0-1.0-2.26","5b6a87d2cda8590001db8e07","6662009ae78f21dd82fcd179","66620d7c24de6e03c471393d","null","","null","","","","","","","","./tasks/HMM-beads/Images/WhiteBeadChoiceWrong.png","","","","","","","","","",""
"image-keyboard-response","217","424863","0.0-3.0-6.0-1.0-0.27","5b6a87d2cda8590001db8e07","6662009ae78f21dd82fcd179","66620d7c24de6e03c471393d","241","","j","","","","","","","","./tasks/HMM-beads/Images/NewTrialBC.png","lowH","1","27","1","1","0","1","true","",""
"image-keyboard-response","218","425165","0.0-3.0-6.0-1.0-1.27","5b6a87d2cda8590001db8e07","6662009ae78f21dd82fcd179","66620d7c24de6e03c471393d","null","","null","","","","","","","","./tasks/HMM-beads/Images/WhiteBeadChoice.png","","","","","","","","","",""
"image-keyboard-response","219","425667","0.0-3.0-6.0-1.0-2.27","5b6a87d2cda8590001db8e07","6662009ae78f21dd82fcd179","66620d7c24de6e03c471393d","null","","null","","","","","","","","./tasks/HMM-beads/Images/WhiteBeadChoiceCorrect.png","","","","","","","","","",""
"image-keyboard-response","220","425999","0.0-3.0-6.0-1.0-0.28","5b6a87d2cda8590001db8e07","6662009ae78f21dd82fcd179","66620d7c24de6e03c471393d","331","","j","","","","","","","","./tasks/HMM-beads/Images/NewTrialWC.png","lowH","1","28","1","1","1","1","true","",""
"image-keyboard-response","221","426302","0.0-3.0-6.0-1.0-1.28","5b6a87d2cda8590001db8e07","6662009ae78f21dd82fcd179","66620d7c24de6e03c471393d","null","","null","","","","","","","","./tasks/HMM-beads/Images/WhiteBeadChoice.png","","","","","","","","","",""
"image-keyboard-response","222","426804","0.0-3.0-6.0-1.0-2.28","5b6a87d2cda8590001db8e07","6662009ae78f21dd82fcd179","66620d7c24de6e03c471393d","null","","null","","","","","","","","./tasks/HMM-beads/Images/WhiteBeadChoiceCorrect.png","","","","","","","","","",""
"image-keyboard-response","223","427066","0.0-3.0-6.0-1.0-0.29","5b6a87d2cda8590001db8e07","6662009ae78f21dd82fcd179","66620d7c24de6e03c471393d","259","","j","","","","","","","","./tasks/HMM-beads/Images/NewTrialWC.png","lowH","1","29","1","1","1","1","true","",""
"image-keyboard-response","224","427367","0.0-3.0-6.0-1.0-1.29","5b6a87d2cda8590001db8e07","6662009ae78f21dd82fcd179","66620d7c24de6e03c471393d","null","","null","","","","","","","","./tasks/HMM-beads/Images/WhiteBeadChoice.png","","","","","","","","","",""
"image-keyboard-response","225","427871","0.0-3.0-6.0-1.0-2.29","5b6a87d2cda8590001db8e07","6662009ae78f21dd82fcd179","66620d7c24de6e03c471393d","null","","null","","","","","","","","./tasks/HMM-beads/Images/WhiteBeadChoiceCorrect.png","","","","","","","","","",""
"image-keyboard-response","226","427927","0.0-3.0-6.0-1.0-0.30","5b6a87d2cda8590001db8e07","6662009ae78f21dd82fcd179","66620d7c24de6e03c471393d","54","","j","","","","","","","","./tasks/HMM-beads/Images/NewTrialWC.png","lowH","1","30","1","1","1","1","true","",""
"image-keyboard-response","227","428230","0.0-3.0-6.0-1.0-1.30","5b6a87d2cda8590001db8e07","6662009ae78f21dd82fcd179","66620d7c24de6e03c471393d","null","","null","","","","","","","","./tasks/HMM-beads/Images/WhiteBeadChoice.png","","","","","","","","","",""
"image-keyboard-response","228","428733","0.0-3.0-6.0-1.0-2.30","5b6a87d2cda8590001db8e07","6662009ae78f21dd82fcd179","66620d7c24de6e03c471393d","null","","null","","","","","","","","./tasks/HMM-beads/Images/WhiteBeadChoiceCorrect.png","","","","","","","","","",""
"image-keyboard-response","229","428841","0.0-3.0-6.0-1.0-0.31","5b6a87d2cda8590001db8e07","6662009ae78f21dd82fcd179","66620d7c24de6e03c471393d","107","","j","","","","","","","","./tasks/HMM-beads/Images/NewTrialWC.png","lowH","1","31","1","1","1","1","true","",""
"image-keyboard-response","230","429144","0.0-3.0-6.0-1.0-1.31","5b6a87d2cda8590001db8e07","6662009ae78f21dd82fcd179","66620d7c24de6e03c471393d","null","","null","","","","","","","","./tasks/HMM-beads/Images/WhiteBeadChoice.png","","","","","","","","","",""
"image-keyboard-response","231","429648","0.0-3.0-6.0-1.0-2.31","5b6a87d2cda8590001db8e07","6662009ae78f21dd82fcd179","66620d7c24de6e03c471393d","null","","null","","","","","","","","./tasks/HMM-beads/Images/WhiteBeadChoiceCorrect.png","","","","","","","","","",""
"image-keyboard-response","232","429882","0.0-3.0-6.0-1.0-0.32","5b6a87d2cda8590001db8e07","6662009ae78f21dd82fcd179","66620d7c24de6e03c471393d","233","","j","","","","","","","","./tasks/HMM-beads/Images/NewTrialWC.png","lowH","1","32","1","1","1","1","true","",""
"image-keyboard-response","233","430185","0.0-3.0-6.0-1.0-1.32","5b6a87d2cda8590001db8e07","6662009ae78f21dd82fcd179","66620d7c24de6e03c471393d","null","","null","","","","","","","","./tasks/HMM-beads/Images/WhiteBeadChoice.png","","","","","","","","","",""
"image-keyboard-response","234","430688","0.0-3.0-6.0-1.0-2.32","5b6a87d2cda8590001db8e07","6662009ae78f21dd82fcd179","66620d7c24de6e03c471393d","null","","null","","","","","","","","./tasks/HMM-beads/Images/WhiteBeadChoiceCorrect.png","","","","","","","","","",""
"image-keyboard-response","235","430765","0.0-3.0-6.0-1.0-0.33","5b6a87d2cda8590001db8e07","6662009ae78f21dd82fcd179","66620d7c24de6e03c471393d","75","","j","","","","","","","","./tasks/HMM-beads/Images/NewTrialWC.png","lowH","1","33","1","1","1","1","true","",""
"image-keyboard-response","236","431075","0.0-3.0-6.0-1.0-1.33","5b6a87d2cda8590001db8e07","6662009ae78f21dd82fcd179","66620d7c24de6e03c471393d","null","","null","","","","","","","","./tasks/HMM-beads/Images/WhiteBeadChoice.png","","","","","","","","","",""
"image-keyboard-response","237","431578","0.0-3.0-6.0-1.0-2.33","5b6a87d2cda8590001db8e07","6662009ae78f21dd82fcd179","66620d7c24de6e03c471393d","null","","null","","","","","","","","./tasks/HMM-beads/Images/WhiteBeadChoiceCorrect.png","","","","","","","","","",""
"image-keyboard-response","238","431695","0.0-3.0-6.0-1.0-0.34","5b6a87d2cda8590001db8e07","6662009ae78f21dd82fcd179","66620d7c24de6e03c471393d","116","","j","","","","","","","","./tasks/HMM-beads/Images/NewTrialWC.png","lowH","1","34","1","1","1","1","true","",""
"image-keyboard-response","239","431998","0.0-3.0-6.0-1.0-1.34","5b6a87d2cda8590001db8e07","6662009ae78f21dd82fcd179","66620d7c24de6e03c471393d","null","","null","","","","","","","","./tasks/HMM-beads/Images/WhiteBeadChoice.png","","","","","","","","","",""
"image-keyboard-response","240","432502","0.0-3.0-6.0-1.0-2.34","5b6a87d2cda8590001db8e07","6662009ae78f21dd82fcd179","66620d7c24de6e03c471393d","null","","null","","","","","","","","./tasks/HMM-beads/Images/WhiteBeadChoiceCorrect.png","","","","","","","","","",""
"image-keyboard-response","241","432726","0.0-3.0-6.0-1.0-0.35","5b6a87d2cda8590001db8e07","6662009ae78f21dd82fcd179","66620d7c24de6e03c471393d","223","","j","","","","","","","","./tasks/HMM-beads/Images/NewTrialWC.png","lowH","1","35","1","1","1","1","true","",""
"image-keyboard-response","242","433028","0.0-3.0-6.0-1.0-1.35","5b6a87d2cda8590001db8e07","6662009ae78f21dd82fcd179","66620d7c24de6e03c471393d","null","","null","","","","","","","","./tasks/HMM-beads/Images/WhiteBeadChoice.png","","","","","","","","","",""
"image-keyboard-response","243","433531","0.0-3.0-6.0-1.0-2.35","5b6a87d2cda8590001db8e07","6662009ae78f21dd82fcd179","66620d7c24de6e03c471393d","null","","null","","","","","","","","./tasks/HMM-beads/Images/WhiteBeadChoiceCorrect.png","","","","","","","","","",""
"image-keyboard-response","244","433742","0.0-3.0-6.0-1.0-0.36","5b6a87d2cda8590001db8e07","6662009ae78f21dd82fcd179","66620d7c24de6e03c471393d","209","","j","","","","","","","","./tasks/HMM-beads/Images/NewTrialWC.png","lowH","1","36","1","1","1","1","true","",""
"image-keyboard-response","245","434044","0.0-3.0-6.0-1.0-1.36","5b6a87d2cda8590001db8e07","6662009ae78f21dd82fcd179","66620d7c24de6e03c471393d","null","","null","","","","","","","","./tasks/HMM-beads/Images/WhiteBeadChoice.png","","","","","","","","","",""
"image-keyboard-response","246","434547","0.0-3.0-6.0-1.0-2.36","5b6a87d2cda8590001db8e07","6662009ae78f21dd82fcd179","66620d7c24de6e03c471393d","null","","null","","","","","","","","./tasks/HMM-beads/Images/WhiteBeadChoiceCorrect.png","","","","","","","","","",""
"image-keyboard-response","247","434688","0.0-3.0-6.0-1.0-0.37","5b6a87d2cda8590001db8e07","6662009ae78f21dd82fcd179","66620d7c24de6e03c471393d","139","","j","","","","","","","","./tasks/HMM-beads/Images/NewTrialWC.png","lowH","1","37","1","1","1","1","true","",""
"image-keyboard-response","248","434990","0.0-3.0-6.0-1.0-1.37","5b6a87d2cda8590001db8e07","6662009ae78f21dd82fcd179","66620d7c24de6e03c471393d","null","","null","","","","","","","","./tasks/HMM-beads/Images/WhiteBeadChoice.png","","","","","","","","","",""
"image-keyboard-response","249","435501","0.0-3.0-6.0-1.0-2.37","5b6a87d2cda8590001db8e07","6662009ae78f21dd82fcd179","66620d7c24de6e03c471393d","null","","null","","","","","","","","./tasks/HMM-beads/Images/WhiteBeadChoiceCorrect.png","","","","","","","","","",""
"image-keyboard-response","250","435705","0.0-3.0-6.0-1.0-0.38","5b6a87d2cda8590001db8e07","6662009ae78f21dd82fcd179","66620d7c24de6e03c471393d","203","","j","","","","","","","","./tasks/HMM-beads/Images/NewTrialWC.png","lowH","1","38","1","1","1","1","true","",""
"image-keyboard-response","251","436008","0.0-3.0-6.0-1.0-1.38","5b6a87d2cda8590001db8e07","6662009ae78f21dd82fcd179","66620d7c24de6e03c471393d","null","","null","","","","","","","","./tasks/HMM-beads/Images/WhiteBeadChoice.png","","","","","","","","","",""
"image-keyboard-response","252","436511","0.0-3.0-6.0-1.0-2.38","5b6a87d2cda8590001db8e07","6662009ae78f21dd82fcd179","66620d7c24de6e03c471393d","null","","null","","","","","","","","./tasks/HMM-beads/Images/WhiteBeadChoiceCorrect.png","","","","","","","","","",""
"image-keyboard-response","253","436606","0.0-3.0-6.0-1.0-0.39","5b6a87d2cda8590001db8e07","6662009ae78f21dd82fcd179","66620d7c24de6e03c471393d","94","","j","","","","","","","","./tasks/HMM-beads/Images/NewTrialWC.png","lowH","1","39","1","1","1","1","true","",""
"image-keyboard-response","254","436909","0.0-3.0-6.0-1.0-1.39","5b6a87d2cda8590001db8e07","6662009ae78f21dd82fcd179","66620d7c24de6e03c471393d","null","","null","","","","","","","","./tasks/HMM-beads/Images/WhiteBeadChoice.png","","","","","","","","","",""
"image-keyboard-response","255","437412","0.0-3.0-6.0-1.0-2.39","5b6a87d2cda8590001db8e07","6662009ae78f21dd82fcd179","66620d7c24de6e03c471393d","null","","null","","","","","","","","./tasks/HMM-beads/Images/WhiteBeadChoiceCorrect.png","","","","","","","","","",""
"image-keyboard-response","256","437594","0.0-3.0-6.0-1.0-0.40","5b6a87d2cda8590001db8e07","6662009ae78f21dd82fcd179","66620d7c24de6e03c471393d","181","","j","","","","","","","","./tasks/HMM-beads/Images/NewTrialWC.png","lowH","1","40","1","1","1","1","true","",""
"image-keyboard-response","257","437897","0.0-3.0-6.0-1.0-1.40","5b6a87d2cda8590001db8e07","6662009ae78f21dd82fcd179","66620d7c24de6e03c471393d","null","","null","","","","","","","","./tasks/HMM-beads/Images/WhiteBeadChoice.png","","","","","","","","","",""
"image-keyboard-response","258","438399","0.0-3.0-6.0-1.0-2.40","5b6a87d2cda8590001db8e07","6662009ae78f21dd82fcd179","66620d7c24de6e03c471393d","null","","null","","","","","","","","./tasks/HMM-beads/Images/WhiteBeadChoiceCorrect.png","","","","","","","","","",""
"image-keyboard-response","259","438425","0.0-3.0-6.0-1.0-0.41","5b6a87d2cda8590001db8e07","6662009ae78f21dd82fcd179","66620d7c24de6e03c471393d","24","","j","","","","","","","","./tasks/HMM-beads/Images/NewTrialWC.png","lowH","1","41","1","1","1","1","true","",""
"image-keyboard-response","260","438728","0.0-3.0-6.0-1.0-1.41","5b6a87d2cda8590001db8e07","6662009ae78f21dd82fcd179","66620d7c24de6e03c471393d","null","","null","","","","","","","","./tasks/HMM-beads/Images/WhiteBeadChoice.png","","","","","","","","","",""
"image-keyboard-response","261","439230","0.0-3.0-6.0-1.0-2.41","5b6a87d2cda8590001db8e07","6662009ae78f21dd82fcd179","66620d7c24de6e03c471393d","null","","null","","","","","","","","./tasks/HMM-beads/Images/WhiteBeadChoiceCorrect.png","","","","","","","","","",""
"image-keyboard-response","262","439374","0.0-3.0-6.0-1.0-0.42","5b6a87d2cda8590001db8e07","6662009ae78f21dd82fcd179","66620d7c24de6e03c471393d","142","","j","","","","","","","","./tasks/HMM-beads/Images/NewTrialWC.png","lowH","1","42","1","1","1","1","true","",""
"image-keyboard-response","263","439676","0.0-3.0-6.0-1.0-1.42","5b6a87d2cda8590001db8e07","6662009ae78f21dd82fcd179","66620d7c24de6e03c471393d","null","","null","","","","","","","","./tasks/HMM-beads/Images/WhiteBeadChoice.png","","","","","","","","","",""
"image-keyboard-response","264","440178","0.0-3.0-6.0-1.0-2.42","5b6a87d2cda8590001db8e07","6662009ae78f21dd82fcd179","66620d7c24de6e03c471393d","null","","null","","","","","","","","./tasks/HMM-beads/Images/WhiteBeadChoiceCorrect.png","","","","","","","","","",""
"image-keyboard-response","265","440356","0.0-3.0-6.0-1.0-0.43","5b6a87d2cda8590001db8e07","6662009ae78f21dd82fcd179","66620d7c24de6e03c471393d","177","","j","","","","","","","","./tasks/HMM-beads/Images/NewTrialWC.png","lowH","1","43","1","1","1","1","true","",""
"image-keyboard-response","266","440659","0.0-3.0-6.0-1.0-1.43","5b6a87d2cda8590001db8e07","6662009ae78f21dd82fcd179","66620d7c24de6e03c471393d","null","","null","","","","","","","","./tasks/HMM-beads/Images/WhiteBeadChoice.png","","","","","","","","","",""
"image-keyboard-response","267","441162","0.0-3.0-6.0-1.0-2.43","5b6a87d2cda8590001db8e07","6662009ae78f21dd82fcd179","66620d7c24de6e03c471393d","null","","null","","","","","","","","./tasks/HMM-beads/Images/WhiteBeadChoiceCorrect.png","","","","","","","","","",""
"image-keyboard-response","268","441312","0.0-3.0-6.0-1.0-0.44","5b6a87d2cda8590001db8e07","6662009ae78f21dd82fcd179","66620d7c24de6e03c471393d","149","","j","","","","","","","","./tasks/HMM-beads/Images/NewTrialWC.png","lowH","1","44","1","1","1","1","true","",""
"image-keyboard-response","269","441616","0.0-3.0-6.0-1.0-1.44","5b6a87d2cda8590001db8e07","6662009ae78f21dd82fcd179","66620d7c24de6e03c471393d","null","","null","","","","","","","","./tasks/HMM-beads/Images/WhiteBeadChoice.png","","","","","","","","","",""
"image-keyboard-response","270","442118","0.0-3.0-6.0-1.0-2.44","5b6a87d2cda8590001db8e07","6662009ae78f21dd82fcd179","66620d7c24de6e03c471393d","null","","null","","","","","","","","./tasks/HMM-beads/Images/WhiteBeadChoiceCorrect.png","","","","","","","","","",""
"image-keyboard-response","271","442193","0.0-3.0-6.0-1.0-0.45","5b6a87d2cda8590001db8e07","6662009ae78f21dd82fcd179","66620d7c24de6e03c471393d","74","","j","","","","","","","","./tasks/HMM-beads/Images/NewTrialWC.png","lowH","1","45","1","1","1","1","true","",""
"image-keyboard-response","272","442495","0.0-3.0-6.0-1.0-1.45","5b6a87d2cda8590001db8e07","6662009ae78f21dd82fcd179","66620d7c24de6e03c471393d","null","","null","","","","","","","","./tasks/HMM-beads/Images/WhiteBeadChoice.png","","","","","","","","","",""
"image-keyboard-response","273","442999","0.0-3.0-6.0-1.0-2.45","5b6a87d2cda8590001db8e07","6662009ae78f21dd82fcd179","66620d7c24de6e03c471393d","null","","null","","","","","","","","./tasks/HMM-beads/Images/WhiteBeadChoiceCorrect.png","","","","","","","","","",""
"image-keyboard-response","274","443285","0.0-3.0-6.0-1.0-0.46","5b6a87d2cda8590001db8e07","6662009ae78f21dd82fcd179","66620d7c24de6e03c471393d","285","","j","","","","","","","","./tasks/HMM-beads/Images/NewTrialWC.png","lowH","1","46","1","1","1","1","true","",""
"image-keyboard-response","275","443597","0.0-3.0-6.0-1.0-1.46","5b6a87d2cda8590001db8e07","6662009ae78f21dd82fcd179","66620d7c24de6e03c471393d","null","","null","","","","","","","","./tasks/HMM-beads/Images/WhiteBeadChoice.png","","","","","","","","","",""
"image-keyboard-response","276","444099","0.0-3.0-6.0-1.0-2.46","5b6a87d2cda8590001db8e07","6662009ae78f21dd82fcd179","66620d7c24de6e03c471393d","null","","null","","","","","","","","./tasks/HMM-beads/Images/WhiteBeadChoiceCorrect.png","","","","","","","","","",""
"image-keyboard-response","277","444247","0.0-3.0-6.0-1.0-0.47","5b6a87d2cda8590001db8e07","6662009ae78f21dd82fcd179","66620d7c24de6e03c471393d","146","","j","","","","","","","","./tasks/HMM-beads/Images/NewTrialWC.png","lowH","1","47","1","0","1","1","false","",""
"image-keyboard-response","278","444550","0.0-3.0-6.0-1.0-1.47","5b6a87d2cda8590001db8e07","6662009ae78f21dd82fcd179","66620d7c24de6e03c471393d","null","","null","","","","","","","","./tasks/HMM-beads/Images/WhiteBeadChoice.png","","","","","","","","","",""
"image-keyboard-response","279","445053","0.0-3.0-6.0-1.0-2.47","5b6a87d2cda8590001db8e07","6662009ae78f21dd82fcd179","66620d7c24de6e03c471393d","null","","null","","","","","","","","./tasks/HMM-beads/Images/WhiteBeadChoiceWrong.png","","","","","","","","","",""
"image-keyboard-response","280","445257","0.0-3.0-6.0-1.0-0.48","5b6a87d2cda8590001db8e07","6662009ae78f21dd82fcd179","66620d7c24de6e03c471393d","203","","j","","","","","","","","./tasks/HMM-beads/Images/NewTrialBC.png","lowH","1","48","1","0","0","1","false","",""
"image-keyboard-response","281","445559","0.0-3.0-6.0-1.0-1.48","5b6a87d2cda8590001db8e07","6662009ae78f21dd82fcd179","66620d7c24de6e03c471393d","null","","null","","","","","","","","./tasks/HMM-beads/Images/WhiteBeadChoice.png","","","","","","","","","",""
"image-keyboard-response","282","446062","0.0-3.0-6.0-1.0-2.48","5b6a87d2cda8590001db8e07","6662009ae78f21dd82fcd179","66620d7c24de6e03c471393d","null","","null","","","","","","","","./tasks/HMM-beads/Images/WhiteBeadChoiceWrong.png","","","","","","","","","",""
"image-keyboard-response","283","447214","0.0-3.0-6.0-1.0-0.49","5b6a87d2cda8590001db8e07","6662009ae78f21dd82fcd179","66620d7c24de6e03c471393d","1151","","f","","","","","","","","./tasks/HMM-beads/Images/NewTrialBC.png","lowH","1","49","1","0","0","0","true","",""
"image-keyboard-response","284","447517","0.0-3.0-6.0-1.0-1.49","5b6a87d2cda8590001db8e07","6662009ae78f21dd82fcd179","66620d7c24de6e03c471393d","null","","null","","","","","","","","./tasks/HMM-beads/Images/BlackBeadChoice.png","","","","","","","","","",""
"image-keyboard-response","285","448021","0.0-3.0-6.0-1.0-2.49","5b6a87d2cda8590001db8e07","6662009ae78f21dd82fcd179","66620d7c24de6e03c471393d","null","","null","","","","","","","","./tasks/HMM-beads/Images/BlackBeadChoiceCorrect.png","","","","","","","","","",""
"image-keyboard-response","286","448184","0.0-3.0-6.0-1.0-0.50","5b6a87d2cda8590001db8e07","6662009ae78f21dd82fcd179","66620d7c24de6e03c471393d","162","","f","","","","","","","","./tasks/HMM-beads/Images/NewTrialBC.png","lowH","1","50","1","1","0","0","false","",""
"image-keyboard-response","287","448487","0.0-3.0-6.0-1.0-1.50","5b6a87d2cda8590001db8e07","6662009ae78f21dd82fcd179","66620d7c24de6e03c471393d","null","","null","","","","","","","","./tasks/HMM-beads/Images/BlackBeadChoice.png","","","","","","","","","",""
"image-keyboard-response","288","449000","0.0-3.0-6.0-1.0-2.50","5b6a87d2cda8590001db8e07","6662009ae78f21dd82fcd179","66620d7c24de6e03c471393d","null","","null","","","","","","","","./tasks/HMM-beads/Images/BlackBeadChoiceWrong.png","","","","","","","","","",""
"image-keyboard-response","289","449870","0.0-3.0-6.0-1.0-0.51","5b6a87d2cda8590001db8e07","6662009ae78f21dd82fcd179","66620d7c24de6e03c471393d","868","","f","","","","","","","","./tasks/HMM-beads/Images/NewTrialWC.png","lowH","1","51","1","1","1","0","false","",""
"image-keyboard-response","290","450172","0.0-3.0-6.0-1.0-1.51","5b6a87d2cda8590001db8e07","6662009ae78f21dd82fcd179","66620d7c24de6e03c471393d","null","","null","","","","","","","","./tasks/HMM-beads/Images/BlackBeadChoice.png","","","","","","","","","",""
"image-keyboard-response","291","450676","0.0-3.0-6.0-1.0-2.51","5b6a87d2cda8590001db8e07","6662009ae78f21dd82fcd179","66620d7c24de6e03c471393d","null","","null","","","","","","","","./tasks/HMM-beads/Images/BlackBeadChoiceWrong.png","","","","","","","","","",""
"image-keyboard-response","292","451335","0.0-3.0-6.0-1.0-0.52","5b6a87d2cda8590001db8e07","6662009ae78f21dd82fcd179","66620d7c24de6e03c471393d","657","","f","","","","","","","","./tasks/HMM-beads/Images/NewTrialWC.png","lowH","1","52","1","1","1","0","false","",""
"image-keyboard-response","293","451638","0.0-3.0-6.0-1.0-1.52","5b6a87d2cda8590001db8e07","6662009ae78f21dd82fcd179","66620d7c24de6e03c471393d","null","","null","","","","","","","","./tasks/HMM-beads/Images/BlackBeadChoice.png","","","","","","","","","",""
"image-keyboard-response","294","452140","0.0-3.0-6.0-1.0-2.52","5b6a87d2cda8590001db8e07","6662009ae78f21dd82fcd179","66620d7c24de6e03c471393d","null","","null","","","","","","","","./tasks/HMM-beads/Images/BlackBeadChoiceWrong.png","","","","","","","","","",""
"image-keyboard-response","295","452449","0.0-3.0-6.0-1.0-0.53","5b6a87d2cda8590001db8e07","6662009ae78f21dd82fcd179","66620d7c24de6e03c471393d","308","","j","","","","","","","","./tasks/HMM-beads/Images/NewTrialWC.png","lowH","1","53","1","1","1","1","true","",""
"image-keyboard-response","296","452752","0.0-3.0-6.0-1.0-1.53","5b6a87d2cda8590001db8e07","6662009ae78f21dd82fcd179","66620d7c24de6e03c471393d","null","","null","","","","","","","","./tasks/HMM-beads/Images/WhiteBeadChoice.png","","","","","","","","","",""
"image-keyboard-response","297","453255","0.0-3.0-6.0-1.0-2.53","5b6a87d2cda8590001db8e07","6662009ae78f21dd82fcd179","66620d7c24de6e03c471393d","null","","null","","","","","","","","./tasks/HMM-beads/Images/WhiteBeadChoiceCorrect.png","","","","","","","","","",""
"image-keyboard-response","298","453537","0.0-3.0-6.0-1.0-0.54","5b6a87d2cda8590001db8e07","6662009ae78f21dd82fcd179","66620d7c24de6e03c471393d","280","","j","","","","","","","","./tasks/HMM-beads/Images/NewTrialWC.png","lowH","1","54","1","1","1","1","true","",""
"image-keyboard-response","299","453840","0.0-3.0-6.0-1.0-1.54","5b6a87d2cda8590001db8e07","6662009ae78f21dd82fcd179","66620d7c24de6e03c471393d","null","","null","","","","","","","","./tasks/HMM-beads/Images/WhiteBeadChoice.png","","","","","","","","","",""
"image-keyboard-response","300","454343","0.0-3.0-6.0-1.0-2.54","5b6a87d2cda8590001db8e07","6662009ae78f21dd82fcd179","66620d7c24de6e03c471393d","null","","null","","","","","","","","./tasks/HMM-beads/Images/WhiteBeadChoiceCorrect.png","","","","","","","","","",""
"image-keyboard-response","301","454412","0.0-3.0-6.0-1.0-0.55","5b6a87d2cda8590001db8e07","6662009ae78f21dd82fcd179","66620d7c24de6e03c471393d","57","","j","","","","","","","","./tasks/HMM-beads/Images/NewTrialWC.png","lowH","1","55","1","1","1","1","true","",""
"image-keyboard-response","302","454715","0.0-3.0-6.0-1.0-1.55","5b6a87d2cda8590001db8e07","6662009ae78f21dd82fcd179","66620d7c24de6e03c471393d","null","","null","","","","","","","","./tasks/HMM-beads/Images/WhiteBeadChoice.png","","","","","","","","","",""
"image-keyboard-response","303","455217","0.0-3.0-6.0-1.0-2.55","5b6a87d2cda8590001db8e07","6662009ae78f21dd82fcd179","66620d7c24de6e03c471393d","null","","null","","","","","","","","./tasks/HMM-beads/Images/WhiteBeadChoiceCorrect.png","","","","","","","","","",""
"image-keyboard-response","304","455276","0.0-3.0-6.0-1.0-0.56","5b6a87d2cda8590001db8e07","6662009ae78f21dd82fcd179","66620d7c24de6e03c471393d","57","","j","","","","","","","","./tasks/HMM-beads/Images/NewTrialWC.png","lowH","1","56","1","1","1","1","true","",""
"image-keyboard-response","305","455578","0.0-3.0-6.0-1.0-1.56","5b6a87d2cda8590001db8e07","6662009ae78f21dd82fcd179","66620d7c24de6e03c471393d","null","","null","","","","","","","","./tasks/HMM-beads/Images/WhiteBeadChoice.png","","","","","","","","","",""
"image-keyboard-response","306","456082","0.0-3.0-6.0-1.0-2.56","5b6a87d2cda8590001db8e07","6662009ae78f21dd82fcd179","66620d7c24de6e03c471393d","null","","null","","","","","","","","./tasks/HMM-beads/Images/WhiteBeadChoiceCorrect.png","","","","","","","","","",""
"image-keyboard-response","307","456153","0.0-3.0-6.0-1.0-0.57","5b6a87d2cda8590001db8e07","6662009ae78f21dd82fcd179","66620d7c24de6e03c471393d","70","","j","","","","","","","","./tasks/HMM-beads/Images/NewTrialWC.png","lowH","1","57","1","1","1","1","true","",""
"image-keyboard-response","308","456455","0.0-3.0-6.0-1.0-1.57","5b6a87d2cda8590001db8e07","6662009ae78f21dd82fcd179","66620d7c24de6e03c471393d","null","","null","","","","","","","","./tasks/HMM-beads/Images/WhiteBeadChoice.png","","","","","","","","","",""
"image-keyboard-response","309","456958","0.0-3.0-6.0-1.0-2.57","5b6a87d2cda8590001db8e07","6662009ae78f21dd82fcd179","66620d7c24de6e03c471393d","null","","null","","","","","","","","./tasks/HMM-beads/Images/WhiteBeadChoiceCorrect.png","","","","","","","","","",""
"image-keyboard-response","310","457026","0.0-3.0-6.0-1.0-0.58","5b6a87d2cda8590001db8e07","6662009ae78f21dd82fcd179","66620d7c24de6e03c471393d","67","","j","","","","","","","","./tasks/HMM-beads/Images/NewTrialWC.png","lowH","1","58","1","1","1","1","true","",""
"image-keyboard-response","311","457329","0.0-3.0-6.0-1.0-1.58","5b6a87d2cda8590001db8e07","6662009ae78f21dd82fcd179","66620d7c24de6e03c471393d","null","","null","","","","","","","","./tasks/HMM-beads/Images/WhiteBeadChoice.png","","","","","","","","","",""
"image-keyboard-response","312","457832","0.0-3.0-6.0-1.0-2.58","5b6a87d2cda8590001db8e07","6662009ae78f21dd82fcd179","66620d7c24de6e03c471393d","null","","null","","","","","","","","./tasks/HMM-beads/Images/WhiteBeadChoiceCorrect.png","","","","","","","","","",""
"image-keyboard-response","313","457933","0.0-3.0-6.0-1.0-0.59","5b6a87d2cda8590001db8e07","6662009ae78f21dd82fcd179","66620d7c24de6e03c471393d","100","","j","","","","","","","","./tasks/HMM-beads/Images/NewTrialWC.png","lowH","1","59","1","0","1","1","false","",""
"image-keyboard-response","314","458242","0.0-3.0-6.0-1.0-1.59","5b6a87d2cda8590001db8e07","6662009ae78f21dd82fcd179","66620d7c24de6e03c471393d","null","","null","","","","","","","","./tasks/HMM-beads/Images/WhiteBeadChoice.png","","","","","","","","","",""
"image-keyboard-response","315","458745","0.0-3.0-6.0-1.0-2.59","5b6a87d2cda8590001db8e07","6662009ae78f21dd82fcd179","66620d7c24de6e03c471393d","null","","null","","","","","","","","./tasks/HMM-beads/Images/WhiteBeadChoiceWrong.png","","","","","","","","","",""
"image-keyboard-response","316","459122","0.0-3.0-6.0-1.0-0.60","5b6a87d2cda8590001db8e07","6662009ae78f21dd82fcd179","66620d7c24de6e03c471393d","376","","j","","","","","","","","./tasks/HMM-beads/Images/NewTrialBC.png","lowH","1","60","1","1","0","1","true","",""
"image-keyboard-response","317","459425","0.0-3.0-6.0-1.0-1.60","5b6a87d2cda8590001db8e07","6662009ae78f21dd82fcd179","66620d7c24de6e03c471393d","null","","null","","","","","","","","./tasks/HMM-beads/Images/WhiteBeadChoice.png","","","","","","","","","",""
"image-keyboard-response","318","459928","0.0-3.0-6.0-1.0-2.60","5b6a87d2cda8590001db8e07","6662009ae78f21dd82fcd179","66620d7c24de6e03c471393d","null","","null","","","","","","","","./tasks/HMM-beads/Images/WhiteBeadChoiceCorrect.png","","","","","","","","","",""
"image-keyboard-response","319","459977","0.0-3.0-6.0-1.0-0.61","5b6a87d2cda8590001db8e07","6662009ae78f21dd82fcd179","66620d7c24de6e03c471393d","48","","j","","","","","","","","./tasks/HMM-beads/Images/NewTrialWC.png","lowH","1","61","1","1","1","1","true","",""
"image-keyboard-response","320","460280","0.0-3.0-6.0-1.0-1.61","5b6a87d2cda8590001db8e07","6662009ae78f21dd82fcd179","66620d7c24de6e03c471393d","null","","null","","","","","","","","./tasks/HMM-beads/Images/WhiteBeadChoice.png","","","","","","","","","",""
"image-keyboard-response","321","460783","0.0-3.0-6.0-1.0-2.61","5b6a87d2cda8590001db8e07","6662009ae78f21dd82fcd179","66620d7c24de6e03c471393d","null","","null","","","","","","","","./tasks/HMM-beads/Images/WhiteBeadChoiceCorrect.png","","","","","","","","","",""
"image-keyboard-response","322","461004","0.0-3.0-6.0-1.0-0.62","5b6a87d2cda8590001db8e07","6662009ae78f21dd82fcd179","66620d7c24de6e03c471393d","220","","j","","","","","","","","./tasks/HMM-beads/Images/NewTrialWC.png","lowH","1","62","1","0","1","1","false","",""
"image-keyboard-response","323","461307","0.0-3.0-6.0-1.0-1.62","5b6a87d2cda8590001db8e07","6662009ae78f21dd82fcd179","66620d7c24de6e03c471393d","null","","null","","","","","","","","./tasks/HMM-beads/Images/WhiteBeadChoice.png","","","","","","","","","",""
"image-keyboard-response","324","461810","0.0-3.0-6.0-1.0-2.62","5b6a87d2cda8590001db8e07","6662009ae78f21dd82fcd179","66620d7c24de6e03c471393d","null","","null","","","","","","","","./tasks/HMM-beads/Images/WhiteBeadChoiceWrong.png","","","","","","","","","",""
"image-keyboard-response","325","462231","0.0-3.0-6.0-1.0-0.63","5b6a87d2cda8590001db8e07","6662009ae78f21dd82fcd179","66620d7c24de6e03c471393d","420","","j","","","","","","","","./tasks/HMM-beads/Images/NewTrialBC.png","lowH","1","63","1","1","0","1","true","",""
"image-keyboard-response","326","462533","0.0-3.0-6.0-1.0-1.63","5b6a87d2cda8590001db8e07","6662009ae78f21dd82fcd179","66620d7c24de6e03c471393d","null","","null","","","","","","","","./tasks/HMM-beads/Images/WhiteBeadChoice.png","","","","","","","","","",""
"image-keyboard-response","327","463045","0.0-3.0-6.0-1.0-2.63","5b6a87d2cda8590001db8e07","6662009ae78f21dd82fcd179","66620d7c24de6e03c471393d","null","","null","","","","","","","","./tasks/HMM-beads/Images/WhiteBeadChoiceCorrect.png","","","","","","","","","",""
"image-keyboard-response","328","463307","0.0-3.0-6.0-1.0-0.64","5b6a87d2cda8590001db8e07","6662009ae78f21dd82fcd179","66620d7c24de6e03c471393d","260","","j","","","","","","","","./tasks/HMM-beads/Images/NewTrialWC.png","lowH","1","64","1","1","1","1","true","",""
"image-keyboard-response","329","463610","0.0-3.0-6.0-1.0-1.64","5b6a87d2cda8590001db8e07","6662009ae78f21dd82fcd179","66620d7c24de6e03c471393d","null","","null","","","","","","","","./tasks/HMM-beads/Images/WhiteBeadChoice.png","","","","","","","","","",""
"image-keyboard-response","330","464113","0.0-3.0-6.0-1.0-2.64","5b6a87d2cda8590001db8e07","6662009ae78f21dd82fcd179","66620d7c24de6e03c471393d","null","","null","","","","","","","","./tasks/HMM-beads/Images/WhiteBeadChoiceCorrect.png","","","","","","","","","",""
"image-keyboard-response","331","464218","0.0-3.0-6.0-1.0-0.65","5b6a87d2cda8590001db8e07","6662009ae78f21dd82fcd179","66620d7c24de6e03c471393d","104","","j","","","","","","","","./tasks/HMM-beads/Images/NewTrialWC.png","lowH","1","65","1","1","1","1","true","",""
"image-keyboard-response","332","464521","0.0-3.0-6.0-1.0-1.65","5b6a87d2cda8590001db8e07","6662009ae78f21dd82fcd179","66620d7c24de6e03c471393d","null","","null","","","","","","","","./tasks/HMM-beads/Images/WhiteBeadChoice.png","","","","","","","","","",""
"image-keyboard-response","333","465024","0.0-3.0-6.0-1.0-2.65","5b6a87d2cda8590001db8e07","6662009ae78f21dd82fcd179","66620d7c24de6e03c471393d","null","","null","","","","","","","","./tasks/HMM-beads/Images/WhiteBeadChoiceCorrect.png","","","","","","","","","",""
"image-keyboard-response","334","465127","0.0-3.0-6.0-1.0-0.66","5b6a87d2cda8590001db8e07","6662009ae78f21dd82fcd179","66620d7c24de6e03c471393d","102","","j","","","","","","","","./tasks/HMM-beads/Images/NewTrialWC.png","lowH","1","66","1","1","1","1","true","",""
"image-keyboard-response","335","465431","0.0-3.0-6.0-1.0-1.66","5b6a87d2cda8590001db8e07","6662009ae78f21dd82fcd179","66620d7c24de6e03c471393d","null","","null","","","","","","","","./tasks/HMM-beads/Images/WhiteBeadChoice.png","","","","","","","","","",""
"image-keyboard-response","336","465934","0.0-3.0-6.0-1.0-2.66","5b6a87d2cda8590001db8e07","6662009ae78f21dd82fcd179","66620d7c24de6e03c471393d","null","","null","","","","","","","","./tasks/HMM-beads/Images/WhiteBeadChoiceCorrect.png","","","","","","","","","",""
"image-keyboard-response","337","466130","0.0-3.0-6.0-1.0-0.67","5b6a87d2cda8590001db8e07","6662009ae78f21dd82fcd179","66620d7c24de6e03c471393d","194","","j","","","","","","","","./tasks/HMM-beads/Images/NewTrialWC.png","lowH","1","67","1","0","1","1","false","",""
"image-keyboard-response","338","466433","0.0-3.0-6.0-1.0-1.67","5b6a87d2cda8590001db8e07","6662009ae78f21dd82fcd179","66620d7c24de6e03c471393d","null","","null","","","","","","","","./tasks/HMM-beads/Images/WhiteBeadChoice.png","","","","","","","","","",""
"image-keyboard-response","339","466936","0.0-3.0-6.0-1.0-2.67","5b6a87d2cda8590001db8e07","6662009ae78f21dd82fcd179","66620d7c24de6e03c471393d","null","","null","","","","","","","","./tasks/HMM-beads/Images/WhiteBeadChoiceWrong.png","","","","","","","","","",""
"image-keyboard-response","340","467048","0.0-3.0-6.0-1.0-0.68","5b6a87d2cda8590001db8e07","6662009ae78f21dd82fcd179","66620d7c24de6e03c471393d","102","","j","","","","","","","","./tasks/HMM-beads/Images/NewTrialBC.png","lowH","1","68","1","1","0","1","true","",""
"image-keyboard-response","341","467351","0.0-3.0-6.0-1.0-1.68","5b6a87d2cda8590001db8e07","6662009ae78f21dd82fcd179","66620d7c24de6e03c471393d","null","","null","","","","","","","","./tasks/HMM-beads/Images/WhiteBeadChoice.png","","","","","","","","","",""
"image-keyboard-response","342","467853","0.0-3.0-6.0-1.0-2.68","5b6a87d2cda8590001db8e07","6662009ae78f21dd82fcd179","66620d7c24de6e03c471393d","null","","null","","","","","","","","./tasks/HMM-beads/Images/WhiteBeadChoiceCorrect.png","","","","","","","","","",""
"image-keyboard-response","343","467911","0.0-3.0-6.0-1.0-0.69","5b6a87d2cda8590001db8e07","6662009ae78f21dd82fcd179","66620d7c24de6e03c471393d","58","","j","","","","","","","","./tasks/HMM-beads/Images/NewTrialWC.png","lowH","1","69","0","1","1","1","true","",""
"image-keyboard-response","344","468214","0.0-3.0-6.0-1.0-1.69","5b6a87d2cda8590001db8e07","6662009ae78f21dd82fcd179","66620d7c24de6e03c471393d","null","","null","","","","","","","","./tasks/HMM-beads/Images/WhiteBeadChoice.png","","","","","","","","","",""
"image-keyboard-response","345","468717","0.0-3.0-6.0-1.0-2.69","5b6a87d2cda8590001db8e07","6662009ae78f21dd82fcd179","66620d7c24de6e03c471393d","null","","null","","","","","","","","./tasks/HMM-beads/Images/WhiteBeadChoiceCorrect.png","","","","","","","","","",""
"image-keyboard-response","346","468800","0.0-3.0-6.0-1.0-0.70","5b6a87d2cda8590001db8e07","6662009ae78f21dd82fcd179","66620d7c24de6e03c471393d","82","","j","","","","","","","","./tasks/HMM-beads/Images/NewTrialWC.png","lowH","1","70","0","1","1","1","true","",""
"image-keyboard-response","347","469103","0.0-3.0-6.0-1.0-1.70","5b6a87d2cda8590001db8e07","6662009ae78f21dd82fcd179","66620d7c24de6e03c471393d","null","","null","","","","","","","","./tasks/HMM-beads/Images/WhiteBeadChoice.png","","","","","","","","","",""
"image-keyboard-response","348","469606","0.0-3.0-6.0-1.0-2.70","5b6a87d2cda8590001db8e07","6662009ae78f21dd82fcd179","66620d7c24de6e03c471393d","null","","null","","","","","","","","./tasks/HMM-beads/Images/WhiteBeadChoiceCorrect.png","","","","","","","","","",""
"image-keyboard-response","349","469730","0.0-3.0-6.0-1.0-0.71","5b6a87d2cda8590001db8e07","6662009ae78f21dd82fcd179","66620d7c24de6e03c471393d","123","","j","","","","","","","","./tasks/HMM-beads/Images/NewTrialWC.png","lowH","1","71","0","0","1","1","false","",""
"image-keyboard-response","350","470034","0.0-3.0-6.0-1.0-1.71","5b6a87d2cda8590001db8e07","6662009ae78f21dd82fcd179","66620d7c24de6e03c471393d","null","","null","","","","","","","","./tasks/HMM-beads/Images/WhiteBeadChoice.png","","","","","","","","","",""
"image-keyboard-response","351","470537","0.0-3.0-6.0-1.0-2.71","5b6a87d2cda8590001db8e07","6662009ae78f21dd82fcd179","66620d7c24de6e03c471393d","null","","null","","","","","","","","./tasks/HMM-beads/Images/WhiteBeadChoiceWrong.png","","","","","","","","","",""
"image-keyboard-response","352","470764","0.0-3.0-6.0-1.0-0.72","5b6a87d2cda8590001db8e07","6662009ae78f21dd82fcd179","66620d7c24de6e03c471393d","226","","j","","","","","","","","./tasks/HMM-beads/Images/NewTrialBC.png","lowH","1","72","0","0","0","1","false","",""
"image-keyboard-response","353","471075","0.0-3.0-6.0-1.0-1.72","5b6a87d2cda8590001db8e07","6662009ae78f21dd82fcd179","66620d7c24de6e03c471393d","null","","null","","","","","","","","./tasks/HMM-beads/Images/WhiteBeadChoice.png","","","","","","","","","",""
"image-keyboard-response","354","471578","0.0-3.0-6.0-1.0-2.72","5b6a87d2cda8590001db8e07","6662009ae78f21dd82fcd179","66620d7c24de6e03c471393d","null","","null","","","","","","","","./tasks/HMM-beads/Images/WhiteBeadChoiceWrong.png","","","","","","","","","",""
"image-keyboard-response","355","471872","0.0-3.0-6.0-1.0-0.73","5b6a87d2cda8590001db8e07","6662009ae78f21dd82fcd179","66620d7c24de6e03c471393d","293","","j","","","","","","","","./tasks/HMM-beads/Images/NewTrialBC.png","lowH","1","73","0","1","0","1","true","",""
"image-keyboard-response","356","472175","0.0-3.0-6.0-1.0-1.73","5b6a87d2cda8590001db8e07","6662009ae78f21dd82fcd179","66620d7c24de6e03c471393d","null","","null","","","","","","","","./tasks/HMM-beads/Images/WhiteBeadChoice.png","","","","","","","","","",""
"image-keyboard-response","357","472678","0.0-3.0-6.0-1.0-2.73","5b6a87d2cda8590001db8e07","6662009ae78f21dd82fcd179","66620d7c24de6e03c471393d","null","","null","","","","","","","","./tasks/HMM-beads/Images/WhiteBeadChoiceCorrect.png","","","","","","","","","",""
"image-keyboard-response","358","473021","0.0-3.0-6.0-1.0-0.74","5b6a87d2cda8590001db8e07","6662009ae78f21dd82fcd179","66620d7c24de6e03c471393d","342","","j","","","","","","","","./tasks/HMM-beads/Images/NewTrialWC.png","lowH","1","74","0","0","1","1","false","",""
"image-keyboard-response","359","473323","0.0-3.0-6.0-1.0-1.74","5b6a87d2cda8590001db8e07","6662009ae78f21dd82fcd179","66620d7c24de6e03c471393d","null","","null","","","","","","","","./tasks/HMM-beads/Images/WhiteBeadChoice.png","","","","","","","","","",""
"image-keyboard-response","360","473826","0.0-3.0-6.0-1.0-2.74","5b6a87d2cda8590001db8e07","6662009ae78f21dd82fcd179","66620d7c24de6e03c471393d","null","","null","","","","","","","","./tasks/HMM-beads/Images/WhiteBeadChoiceWrong.png","","","","","","","","","",""
"image-keyboard-response","361","474548","0.0-3.0-6.0-1.0-0.75","5b6a87d2cda8590001db8e07","6662009ae78f21dd82fcd179","66620d7c24de6e03c471393d","720","","j","","","","","","","","./tasks/HMM-beads/Images/NewTrialBC.png","lowH","1","75","0","1","0","1","true","",""
"image-keyboard-response","362","474850","0.0-3.0-6.0-1.0-1.75","5b6a87d2cda8590001db8e07","6662009ae78f21dd82fcd179","66620d7c24de6e03c471393d","null","","null","","","","","","","","./tasks/HMM-beads/Images/WhiteBeadChoice.png","","","","","","","","","",""
"image-keyboard-response","363","475353","0.0-3.0-6.0-1.0-2.75","5b6a87d2cda8590001db8e07","6662009ae78f21dd82fcd179","66620d7c24de6e03c471393d","null","","null","","","","","","","","./tasks/HMM-beads/Images/WhiteBeadChoiceCorrect.png","","","","","","","","","",""
"image-keyboard-response","364","475462","0.0-3.0-6.0-1.0-0.76","5b6a87d2cda8590001db8e07","6662009ae78f21dd82fcd179","66620d7c24de6e03c471393d","108","","j","","","","","","","","./tasks/HMM-beads/Images/NewTrialWC.png","lowH","1","76","0","1","1","1","true","",""
"image-keyboard-response","365","475765","0.0-3.0-6.0-1.0-1.76","5b6a87d2cda8590001db8e07","6662009ae78f21dd82fcd179","66620d7c24de6e03c471393d","null","","null","","","","","","","","./tasks/HMM-beads/Images/WhiteBeadChoice.png","","","","","","","","","",""
"image-keyboard-response","366","476276","0.0-3.0-6.0-1.0-2.76","5b6a87d2cda8590001db8e07","6662009ae78f21dd82fcd179","66620d7c24de6e03c471393d","null","","null","","","","","","","","./tasks/HMM-beads/Images/WhiteBeadChoiceCorrect.png","","","","","","","","","",""
"image-keyboard-response","367","476339","0.0-3.0-6.0-1.0-0.77","5b6a87d2cda8590001db8e07","6662009ae78f21dd82fcd179","66620d7c24de6e03c471393d","62","","j","","","","","","","","./tasks/HMM-beads/Images/NewTrialWC.png","lowH","1","77","0","0","1","1","false","",""
"image-keyboard-response","368","476642","0.0-3.0-6.0-1.0-1.77","5b6a87d2cda8590001db8e07","6662009ae78f21dd82fcd179","66620d7c24de6e03c471393d","null","","null","","","","","","","","./tasks/HMM-beads/Images/WhiteBeadChoice.png","","","","","","","","","",""
"image-keyboard-response","369","477145","0.0-3.0-6.0-1.0-2.77","5b6a87d2cda8590001db8e07","6662009ae78f21dd82fcd179","66620d7c24de6e03c471393d","null","","null","","","","","","","","./tasks/HMM-beads/Images/WhiteBeadChoiceWrong.png","","","","","","","","","",""
"image-keyboard-response","370","477407","0.0-3.0-6.0-1.0-0.78","5b6a87d2cda8590001db8e07","6662009ae78f21dd82fcd179","66620d7c24de6e03c471393d","261","","j","","","","","","","","./tasks/HMM-beads/Images/NewTrialBC.png","lowH","1","78","0","0","0","1","false","",""
"image-keyboard-response","371","477709","0.0-3.0-6.0-1.0-1.78","5b6a87d2cda8590001db8e07","6662009ae78f21dd82fcd179","66620d7c24de6e03c471393d","null","","null","","","","","","","","./tasks/HMM-beads/Images/WhiteBeadChoice.png","","","","","","","","","",""
"image-keyboard-response","372","478211","0.0-3.0-6.0-1.0-2.78","5b6a87d2cda8590001db8e07","6662009ae78f21dd82fcd179","66620d7c24de6e03c471393d","null","","null","","","","","","","","./tasks/HMM-beads/Images/WhiteBeadChoiceWrong.png","","","","","","","","","",""
"image-keyboard-response","373","478576","0.0-3.0-6.0-1.0-0.79","5b6a87d2cda8590001db8e07","6662009ae78f21dd82fcd179","66620d7c24de6e03c471393d","364","","f","","","","","","","","./tasks/HMM-beads/Images/NewTrialBC.png","lowH","1","79","0","0","0","0","true","",""
"image-keyboard-response","374","478880","0.0-3.0-6.0-1.0-1.79","5b6a87d2cda8590001db8e07","6662009ae78f21dd82fcd179","66620d7c24de6e03c471393d","null","","null","","","","","","","","./tasks/HMM-beads/Images/BlackBeadChoice.png","","","","","","","","","",""
