"trial_type","trial_index","time_elapsed","internal_node_id","subject_id","study_id","session_id","rt","url","response","question_order","view_history","success","timeout","failed_images","failed_audio","failed_video","stimulus","block","block_rep","trial_number","jar","bead","previous_bead","choice","correct","lowH_score","total_bonus"
"pavlovia","0","1105","0.0-0.0","5d6494874e9aae0019598b14","6662009ae78f21dd82fcd179","66620c7b55529e3640da8859","","","","","","","","","","","","","","","","","","","","",""
"external-html","1","11056","0.0-1.0-0.0","5d6494874e9aae0019598b14","6662009ae78f21dd82fcd179","66620c7b55529e3640da8859","9822","new_consent.html","","","","","","","","","","","","","","","","","","",""
"survey-multi-choice","2","15597","0.0-1.0-1.0","5d6494874e9aae0019598b14","6662009ae78f21dd82fcd179","66620c7b55529e3640da8859","4539","","{""Q0"":""Male"",""Q1"":""White""}","[0,1]","","","","","","","","","","","","","","","","",""
"survey-text","3","18508","0.0-1.0-2.0","5d6494874e9aae0019598b14","6662009ae78f21dd82fcd179","66620c7b55529e3640da8859","2907","","{""Q0"":""33""}","","","","","","","","","","","","","","","","","",""
"instructions","4","20860","0.0-2.0","5d6494874e9aae0019598b14","6662009ae78f21dd82fcd179","66620c7b55529e3640da8859","2248","","","","[{""page_index"":0,""viewing_time"":2248}]","","","","","","","","","","","","","","","",""
"preload","5","21889","0.0-3.0-0.0","5d6494874e9aae0019598b14","6662009ae78f21dd82fcd179","66620c7b55529e3640da8859","","","","","","true","false","[]","[]","[]","","","","","","","","","","",""
"instructions","6","151823","0.0-3.0-1.0","5d6494874e9aae0019598b14","6662009ae78f21dd82fcd179","66620c7b55529e3640da8859","129933","","","","[{""page_index"":0,""viewing_time"":19389},{""page_index"":1,""viewing_time"":9806},{""page_index"":2,""viewing_time"":3790},{""page_index"":3,""viewing_time"":2006},{""page_index"":4,""viewing_time"":5184},{""page_index"":5,""viewing_time"":26174},{""page_index"":6,""viewing_time"":6110},{""page_index"":7,""viewing_time"":4537},{""page_index"":8,""viewing_time"":39412},{""page_index"":9,""viewing_time"":4358},{""page_index"":10,""viewing_time"":7318},{""page_index"":11,""viewing_time"":1849}]","","","","","","","","","","","","","","","",""
"html-button-response","7","154771","0.0-3.0-2.0-0.0-0.0","5d6494874e9aae0019598b14","6662009ae78f21dd82fcd179","66620c7b55529e3640da8859","2948","","1","","","","","","","","<div align=center>Your goal is to predict…?<br><br></div>","","","","","","","","","",""
"html-button-response","8","165054","0.0-3.0-2.0-1.0-0.0","5d6494874e9aae0019598b14","6662009ae78f21dd82fcd179","66620c7b55529e3640da8859","8665","","2","","","","","","","","<div align=center>In the jar with mostly white beads, there are ___% white beads and ___% black beads?<br><br></div>","","","","","","","","","",""
"html-button-response","9","171276","0.0-3.0-2.0-2.0-0.0","5d6494874e9aae0019598b14","6662009ae78f21dd82fcd179","66620c7b55529e3640da8859","4999","","0","","","","","","","","<div align=center>When there is a 1% probability that the jars will switch, the next bead will most likely be drawn from the…<br><br></div>","","","","","","","","","",""
"html-button-response","10","176466","0.0-3.0-2.0-3.0-0.0","5d6494874e9aae0019598b14","6662009ae78f21dd82fcd179","66620c7b55529e3640da8859","3877","","1","","","","","","","","<div align=center>When there is a 99% probability that the jars will switch, the next bead will most likely be drawn from the…<br><br></div>","","","","","","","","","",""
"instructions","11","187237","0.0-3.0-3.0","5d6494874e9aae0019598b14","6662009ae78f21dd82fcd179","66620c7b55529e3640da8859","9355","","","","[{""page_index"":0,""viewing_time"":9355}]","","","","","","","","","","","","","","","",""
"html-keyboard-response","12","190668","0.0-3.0-4.0-0.0","5d6494874e9aae0019598b14","6662009ae78f21dd82fcd179","66620c7b55529e3640da8859","3430",""," ","","","","","","","","<div align=center>In this practice block, there will be a <b>1% chance</b> that the jar on the next trial will be different from the jar on the current trial.<br><br></div>","","","","","","","","","",""
"image-keyboard-response","13","194267","0.0-3.0-4.0-1.0-0.0","5d6494874e9aae0019598b14","6662009ae78f21dd82fcd179","66620c7b55529e3640da8859","3598","","f","","","","","","","","./tasks/HMM-beads/Images/NoChoice.png","practice","0","0","0","0","9","0","true","",""
"image-keyboard-response","14","194581","0.0-3.0-4.0-1.0-1.0","5d6494874e9aae0019598b14","6662009ae78f21dd82fcd179","66620c7b55529e3640da8859","null","","null","","","","","","","","./tasks/HMM-beads/Images/BlackBeadChoice.png","","","","","","","","","",""
"image-keyboard-response","15","195088","0.0-3.0-4.0-1.0-2.0","5d6494874e9aae0019598b14","6662009ae78f21dd82fcd179","66620c7b55529e3640da8859","null","","null","","","","","","","","./tasks/HMM-beads/Images/BlackBeadChoiceCorrect.png","","","","","","","","","",""
"image-keyboard-response","16","196755","0.0-3.0-4.0-1.0-0.1","5d6494874e9aae0019598b14","6662009ae78f21dd82fcd179","66620c7b55529e3640da8859","1666","","f","","","","","","","","./tasks/HMM-beads/Images/NewTrialBC.png","practice","0","1","0","0","0","0","true","",""
"image-keyboard-response","17","197070","0.0-3.0-4.0-1.0-1.1","5d6494874e9aae0019598b14","6662009ae78f21dd82fcd179","66620c7b55529e3640da8859","null","","null","","","","","","","","./tasks/HMM-beads/Images/BlackBeadChoice.png","","","","","","","","","",""
"image-keyboard-response","18","197577","0.0-3.0-4.0-1.0-2.1","5d6494874e9aae0019598b14","6662009ae78f21dd82fcd179","66620c7b55529e3640da8859","null","","null","","","","","","","","./tasks/HMM-beads/Images/BlackBeadChoiceCorrect.png","","","","","","","","","",""
"image-keyboard-response","19","199965","0.0-3.0-4.0-1.0-0.2","5d6494874e9aae0019598b14","6662009ae78f21dd82fcd179","66620c7b55529e3640da8859","2386","","f","","","","","","","","./tasks/HMM-beads/Images/NewTrialBC.png","practice","0","2","0","1","0","0","false","",""
"image-keyboard-response","20","200266","0.0-3.0-4.0-1.0-1.2","5d6494874e9aae0019598b14","6662009ae78f21dd82fcd179","66620c7b55529e3640da8859","null","","null","","","","","","","","./tasks/HMM-beads/Images/BlackBeadChoice.png","","","","","","","","","",""
"image-keyboard-response","21","200770","0.0-3.0-4.0-1.0-2.2","5d6494874e9aae0019598b14","6662009ae78f21dd82fcd179","66620c7b55529e3640da8859","null","","null","","","","","","","","./tasks/HMM-beads/Images/BlackBeadChoiceWrong.png","","","","","","","","","",""
"image-keyboard-response","22","202485","0.0-3.0-4.0-1.0-0.3","5d6494874e9aae0019598b14","6662009ae78f21dd82fcd179","66620c7b55529e3640da8859","1714","","f","","","","","","","","./tasks/HMM-beads/Images/NewTrialWC.png","practice","0","3","0","0","1","0","true","",""
"image-keyboard-response","23","202789","0.0-3.0-4.0-1.0-1.3","5d6494874e9aae0019598b14","6662009ae78f21dd82fcd179","66620c7b55529e3640da8859","null","","null","","","","","","","","./tasks/HMM-beads/Images/BlackBeadChoice.png","","","","","","","","","",""
"image-keyboard-response","24","203300","0.0-3.0-4.0-1.0-2.3","5d6494874e9aae0019598b14","6662009ae78f21dd82fcd179","66620c7b55529e3640da8859","null","","null","","","","","","","","./tasks/HMM-beads/Images/BlackBeadChoiceCorrect.png","","","","","","","","","",""
"image-keyboard-response","25","205020","0.0-3.0-4.0-1.0-0.4","5d6494874e9aae0019598b14","6662009ae78f21dd82fcd179","66620c7b55529e3640da8859","1719","","f","","","","","","","","./tasks/HMM-beads/Images/NewTrialBC.png","practice","0","4","0","0","0","0","true","",""
"image-keyboard-response","26","205327","0.0-3.0-4.0-1.0-1.4","5d6494874e9aae0019598b14","6662009ae78f21dd82fcd179","66620c7b55529e3640da8859","null","","null","","","","","","","","./tasks/HMM-beads/Images/BlackBeadChoice.png","","","","","","","","","",""
"image-keyboard-response","27","205836","0.0-3.0-4.0-1.0-2.4","5d6494874e9aae0019598b14","6662009ae78f21dd82fcd179","66620c7b55529e3640da8859","null","","null","","","","","","","","./tasks/HMM-beads/Images/BlackBeadChoiceCorrect.png","","","","","","","","","",""
"image-keyboard-response","28","206355","0.0-3.0-4.0-1.0-0.5","5d6494874e9aae0019598b14","6662009ae78f21dd82fcd179","66620c7b55529e3640da8859","519","","f","","","","","","","","./tasks/HMM-beads/Images/NewTrialBC.png","practice","0","5","0","1","0","0","false","",""
"image-keyboard-response","29","206662","0.0-3.0-4.0-1.0-1.5","5d6494874e9aae0019598b14","6662009ae78f21dd82fcd179","66620c7b55529e3640da8859","null","","null","","","","","","","","./tasks/HMM-beads/Images/BlackBeadChoice.png","","","","","","","","","",""
"image-keyboard-response","30","207173","0.0-3.0-4.0-1.0-2.5","5d6494874e9aae0019598b14","6662009ae78f21dd82fcd179","66620c7b55529e3640da8859","null","","null","","","","","","","","./tasks/HMM-beads/Images/BlackBeadChoiceWrong.png","","","","","","","","","",""
"image-keyboard-response","31","207604","0.0-3.0-4.0-1.0-0.6","5d6494874e9aae0019598b14","6662009ae78f21dd82fcd179","66620c7b55529e3640da8859","430","","f","","","","","","","","./tasks/HMM-beads/Images/NewTrialWC.png","practice","0","6","0","0","1","0","true","",""
"image-keyboard-response","32","207919","0.0-3.0-4.0-1.0-1.6","5d6494874e9aae0019598b14","6662009ae78f21dd82fcd179","66620c7b55529e3640da8859","null","","null","","","","","","","","./tasks/HMM-beads/Images/BlackBeadChoice.png","","","","","","","","","",""
"image-keyboard-response","33","208432","0.0-3.0-4.0-1.0-2.6","5d6494874e9aae0019598b14","6662009ae78f21dd82fcd179","66620c7b55529e3640da8859","null","","null","","","","","","","","./tasks/HMM-beads/Images/BlackBeadChoiceCorrect.png","","","","","","","","","",""
"image-keyboard-response","34","208868","0.0-3.0-4.0-1.0-0.7","5d6494874e9aae0019598b14","6662009ae78f21dd82fcd179","66620c7b55529e3640da8859","435","","f","","","","","","","","./tasks/HMM-beads/Images/NewTrialBC.png","practice","0","7","0","0","0","0","true","",""
"image-keyboard-response","35","209173","0.0-3.0-4.0-1.0-1.7","5d6494874e9aae0019598b14","6662009ae78f21dd82fcd179","66620c7b55529e3640da8859","null","","null","","","","","","","","./tasks/HMM-beads/Images/BlackBeadChoice.png","","","","","","","","","",""
"image-keyboard-response","36","209682","0.0-3.0-4.0-1.0-2.7","5d6494874e9aae0019598b14","6662009ae78f21dd82fcd179","66620c7b55529e3640da8859","null","","null","","","","","","","","./tasks/HMM-beads/Images/BlackBeadChoiceCorrect.png","","","","","","","","","",""
"image-keyboard-response","37","211764","0.0-3.0-4.0-1.0-0.8","5d6494874e9aae0019598b14","6662009ae78f21dd82fcd179","66620c7b55529e3640da8859","2082","","f","","","","","","","","./tasks/HMM-beads/Images/NewTrialBC.png","practice","0","8","0","0","0","0","true","",""
"image-keyboard-response","38","212069","0.0-3.0-4.0-1.0-1.8","5d6494874e9aae0019598b14","6662009ae78f21dd82fcd179","66620c7b55529e3640da8859","null","","null","","","","","","","","./tasks/HMM-beads/Images/BlackBeadChoice.png","","","","","","","","","",""
"image-keyboard-response","39","212577","0.0-3.0-4.0-1.0-2.8","5d6494874e9aae0019598b14","6662009ae78f21dd82fcd179","66620c7b55529e3640da8859","null","","null","","","","","","","","./tasks/HMM-beads/Images/BlackBeadChoiceCorrect.png","","","","","","","","","",""
"image-keyboard-response","40","212884","0.0-3.0-4.0-1.0-0.9","5d6494874e9aae0019598b14","6662009ae78f21dd82fcd179","66620c7b55529e3640da8859","306","","f","","","","","","","","./tasks/HMM-beads/Images/NewTrialBC.png","practice","0","9","0","1","0","0","false","",""
"image-keyboard-response","41","213192","0.0-3.0-4.0-1.0-1.9","5d6494874e9aae0019598b14","6662009ae78f21dd82fcd179","66620c7b55529e3640da8859","null","","null","","","","","","","","./tasks/HMM-beads/Images/BlackBeadChoice.png","","","","","","","","","",""
"image-keyboard-response","42","213698","0.0-3.0-4.0-1.0-2.9","5d6494874e9aae0019598b14","6662009ae78f21dd82fcd179","66620c7b55529e3640da8859","null","","null","","","","","","","","./tasks/HMM-beads/Images/BlackBeadChoiceWrong.png","","","","","","","","","",""
"image-keyboard-response","43","214028","0.0-3.0-4.0-1.0-0.10","5d6494874e9aae0019598b14","6662009ae78f21dd82fcd179","66620c7b55529e3640da8859","329","","f","","","","","","","","./tasks/HMM-beads/Images/NewTrialWC.png","practice","0","10","0","0","1","0","true","",""
"image-keyboard-response","44","214335","0.0-3.0-4.0-1.0-1.10","5d6494874e9aae0019598b14","6662009ae78f21dd82fcd179","66620c7b55529e3640da8859","null","","null","","","","","","","","./tasks/HMM-beads/Images/BlackBeadChoice.png","","","","","","","","","",""
"image-keyboard-response","45","214838","0.0-3.0-4.0-1.0-2.10","5d6494874e9aae0019598b14","6662009ae78f21dd82fcd179","66620c7b55529e3640da8859","null","","null","","","","","","","","./tasks/HMM-beads/Images/BlackBeadChoiceCorrect.png","","","","","","","","","",""
"image-keyboard-response","46","215116","0.0-3.0-4.0-1.0-0.11","5d6494874e9aae0019598b14","6662009ae78f21dd82fcd179","66620c7b55529e3640da8859","278","","f","","","","","","","","./tasks/HMM-beads/Images/NewTrialBC.png","practice","0","11","0","1","0","0","false","",""
"image-keyboard-response","47","215423","0.0-3.0-4.0-1.0-1.11","5d6494874e9aae0019598b14","6662009ae78f21dd82fcd179","66620c7b55529e3640da8859","null","","null","","","","","","","","./tasks/HMM-beads/Images/BlackBeadChoice.png","","","","","","","","","",""
"image-keyboard-response","48","215928","0.0-3.0-4.0-1.0-2.11","5d6494874e9aae0019598b14","6662009ae78f21dd82fcd179","66620c7b55529e3640da8859","null","","null","","","","","","","","./tasks/HMM-beads/Images/BlackBeadChoiceWrong.png","","","","","","","","","",""
"image-keyboard-response","49","216268","0.0-3.0-4.0-1.0-0.12","5d6494874e9aae0019598b14","6662009ae78f21dd82fcd179","66620c7b55529e3640da8859","339","","f","","","","","","","","./tasks/HMM-beads/Images/NewTrialWC.png","practice","0","12","0","0","1","0","true","",""
"image-keyboard-response","50","216578","0.0-3.0-4.0-1.0-1.12","5d6494874e9aae0019598b14","6662009ae78f21dd82fcd179","66620c7b55529e3640da8859","null","","null","","","","","","","","./tasks/HMM-beads/Images/BlackBeadChoice.png","","","","","","","","","",""
"image-keyboard-response","51","217086","0.0-3.0-4.0-1.0-2.12","5d6494874e9aae0019598b14","6662009ae78f21dd82fcd179","66620c7b55529e3640da8859","null","","null","","","","","","","","./tasks/HMM-beads/Images/BlackBeadChoiceCorrect.png","","","","","","","","","",""
"image-keyboard-response","52","217308","0.0-3.0-4.0-1.0-0.13","5d6494874e9aae0019598b14","6662009ae78f21dd82fcd179","66620c7b55529e3640da8859","222","","f","","","","","","","","./tasks/HMM-beads/Images/NewTrialBC.png","practice","0","13","0","0","0","0","true","",""
"image-keyboard-response","53","217624","0.0-3.0-4.0-1.0-1.13","5d6494874e9aae0019598b14","6662009ae78f21dd82fcd179","66620c7b55529e3640da8859","null","","null","","","","","","","","./tasks/HMM-beads/Images/BlackBeadChoice.png","","","","","","","","","",""
"image-keyboard-response","54","218128","0.0-3.0-4.0-1.0-2.13","5d6494874e9aae0019598b14","6662009ae78f21dd82fcd179","66620c7b55529e3640da8859","null","","null","","","","","","","","./tasks/HMM-beads/Images/BlackBeadChoiceCorrect.png","","","","","","","","","",""
"image-keyboard-response","55","218723","0.0-3.0-4.0-1.0-0.14","5d6494874e9aae0019598b14","6662009ae78f21dd82fcd179","66620c7b55529e3640da8859","595","","f","","","","","","","","./tasks/HMM-beads/Images/NewTrialBC.png","practice","0","14","0","0","0","0","true","",""
"image-keyboard-response","56","219026","0.0-3.0-4.0-1.0-1.14","5d6494874e9aae0019598b14","6662009ae78f21dd82fcd179","66620c7b55529e3640da8859","null","","null","","","","","","","","./tasks/HMM-beads/Images/BlackBeadChoice.png","","","","","","","","","",""
"image-keyboard-response","57","219536","0.0-3.0-4.0-1.0-2.14","5d6494874e9aae0019598b14","6662009ae78f21dd82fcd179","66620c7b55529e3640da8859","null","","null","","","","","","","","./tasks/HMM-beads/Images/BlackBeadChoiceCorrect.png","","","","","","","","","",""
"image-keyboard-response","58","219820","0.0-3.0-4.0-1.0-0.15","5d6494874e9aae0019598b14","6662009ae78f21dd82fcd179","66620c7b55529e3640da8859","283","","f","","","","","","","","./tasks/HMM-beads/Images/NewTrialBC.png","practice","0","15","0","0","0","0","true","",""
"image-keyboard-response","59","220121","0.0-3.0-4.0-1.0-1.15","5d6494874e9aae0019598b14","6662009ae78f21dd82fcd179","66620c7b55529e3640da8859","null","","null","","","","","","","","./tasks/HMM-beads/Images/BlackBeadChoice.png","","","","","","","","","",""
"image-keyboard-response","60","220630","0.0-3.0-4.0-1.0-2.15","5d6494874e9aae0019598b14","6662009ae78f21dd82fcd179","66620c7b55529e3640da8859","null","","null","","","","","","","","./tasks/HMM-beads/Images/BlackBeadChoiceCorrect.png","","","","","","","","","",""
"image-keyboard-response","61","220852","0.0-3.0-4.0-1.0-0.16","5d6494874e9aae0019598b14","6662009ae78f21dd82fcd179","66620c7b55529e3640da8859","222","","f","","","","","","","","./tasks/HMM-beads/Images/NewTrialBC.png","practice","0","16","0","0","0","0","true","",""
"image-keyboard-response","62","221168","0.0-3.0-4.0-1.0-1.16","5d6494874e9aae0019598b14","6662009ae78f21dd82fcd179","66620c7b55529e3640da8859","null","","null","","","","","","","","./tasks/HMM-beads/Images/BlackBeadChoice.png","","","","","","","","","",""
"image-keyboard-response","63","221681","0.0-3.0-4.0-1.0-2.16","5d6494874e9aae0019598b14","6662009ae78f21dd82fcd179","66620c7b55529e3640da8859","null","","null","","","","","","","","./tasks/HMM-beads/Images/BlackBeadChoiceCorrect.png","","","","","","","","","",""
"image-keyboard-response","64","221804","0.0-3.0-4.0-1.0-0.17","5d6494874e9aae0019598b14","6662009ae78f21dd82fcd179","66620c7b55529e3640da8859","119","","f","","","","","","","","./tasks/HMM-beads/Images/NewTrialBC.png","practice","0","17","0","0","0","0","true","",""
"image-keyboard-response","65","222110","0.0-3.0-4.0-1.0-1.17","5d6494874e9aae0019598b14","6662009ae78f21dd82fcd179","66620c7b55529e3640da8859","null","","null","","","","","","","","./tasks/HMM-beads/Images/BlackBeadChoice.png","","","","","","","","","",""
"image-keyboard-response","66","222615","0.0-3.0-4.0-1.0-2.17","5d6494874e9aae0019598b14","6662009ae78f21dd82fcd179","66620c7b55529e3640da8859","null","","null","","","","","","","","./tasks/HMM-beads/Images/BlackBeadChoiceCorrect.png","","","","","","","","","",""
"image-keyboard-response","67","222724","0.0-3.0-4.0-1.0-0.18","5d6494874e9aae0019598b14","6662009ae78f21dd82fcd179","66620c7b55529e3640da8859","108","","f","","","","","","","","./tasks/HMM-beads/Images/NewTrialBC.png","practice","0","18","0","1","0","0","false","",""
"image-keyboard-response","68","223025","0.0-3.0-4.0-1.0-1.18","5d6494874e9aae0019598b14","6662009ae78f21dd82fcd179","66620c7b55529e3640da8859","null","","null","","","","","","","","./tasks/HMM-beads/Images/BlackBeadChoice.png","","","","","","","","","",""
"image-keyboard-response","69","223534","0.0-3.0-4.0-1.0-2.18","5d6494874e9aae0019598b14","6662009ae78f21dd82fcd179","66620c7b55529e3640da8859","null","","null","","","","","","","","./tasks/HMM-beads/Images/BlackBeadChoiceWrong.png","","","","","","","","","",""
"image-keyboard-response","70","223628","0.0-3.0-4.0-1.0-0.19","5d6494874e9aae0019598b14","6662009ae78f21dd82fcd179","66620c7b55529e3640da8859","93","","f","","","","","","","","./tasks/HMM-beads/Images/NewTrialWC.png","practice","0","19","0","0","1","0","true","",""
"image-keyboard-response","71","223945","0.0-3.0-4.0-1.0-1.19","5d6494874e9aae0019598b14","6662009ae78f21dd82fcd179","66620c7b55529e3640da8859","null","","null","","","","","","","","./tasks/HMM-beads/Images/BlackBeadChoice.png","","","","","","","","","",""
"image-keyboard-response","72","224450","0.0-3.0-4.0-1.0-2.19","5d6494874e9aae0019598b14","6662009ae78f21dd82fcd179","66620c7b55529e3640da8859","null","","null","","","","","","","","./tasks/HMM-beads/Images/BlackBeadChoiceCorrect.png","","","","","","","","","",""
"image-keyboard-response","73","224492","0.0-3.0-4.0-1.0-0.20","5d6494874e9aae0019598b14","6662009ae78f21dd82fcd179","66620c7b55529e3640da8859","41","","f","","","","","","","","./tasks/HMM-beads/Images/NewTrialBC.png","practice","0","20","0","0","0","0","true","",""
"image-keyboard-response","74","224799","0.0-3.0-4.0-1.0-1.20","5d6494874e9aae0019598b14","6662009ae78f21dd82fcd179","66620c7b55529e3640da8859","null","","null","","","","","","","","./tasks/HMM-beads/Images/BlackBeadChoice.png","","","","","","","","","",""
"image-keyboard-response","75","225307","0.0-3.0-4.0-1.0-2.20","5d6494874e9aae0019598b14","6662009ae78f21dd82fcd179","66620c7b55529e3640da8859","null","","null","","","","","","","","./tasks/HMM-beads/Images/BlackBeadChoiceCorrect.png","","","","","","","","","",""
"image-keyboard-response","76","225348","0.0-3.0-4.0-1.0-0.21","5d6494874e9aae0019598b14","6662009ae78f21dd82fcd179","66620c7b55529e3640da8859","40","","f","","","","","","","","./tasks/HMM-beads/Images/NewTrialBC.png","practice","0","21","0","1","0","0","false","",""
"image-keyboard-response","77","225653","0.0-3.0-4.0-1.0-1.21","5d6494874e9aae0019598b14","6662009ae78f21dd82fcd179","66620c7b55529e3640da8859","null","","null","","","","","","","","./tasks/HMM-beads/Images/BlackBeadChoice.png","","","","","","","","","",""
"image-keyboard-response","78","226155","0.0-3.0-4.0-1.0-2.21","5d6494874e9aae0019598b14","6662009ae78f21dd82fcd179","66620c7b55529e3640da8859","null","","null","","","","","","","","./tasks/HMM-beads/Images/BlackBeadChoiceWrong.png","","","","","","","","","",""
"image-keyboard-response","79","226221","0.0-3.0-4.0-1.0-0.22","5d6494874e9aae0019598b14","6662009ae78f21dd82fcd179","66620c7b55529e3640da8859","66","","f","","","","","","","","./tasks/HMM-beads/Images/NewTrialWC.png","practice","0","22","1","1","1","0","false","",""
"image-keyboard-response","80","226534","0.0-3.0-4.0-1.0-1.22","5d6494874e9aae0019598b14","6662009ae78f21dd82fcd179","66620c7b55529e3640da8859","null","","null","","","","","","","","./tasks/HMM-beads/Images/BlackBeadChoice.png","","","","","","","","","",""
"image-keyboard-response","81","227040","0.0-3.0-4.0-1.0-2.22","5d6494874e9aae0019598b14","6662009ae78f21dd82fcd179","66620c7b55529e3640da8859","null","","null","","","","","","","","./tasks/HMM-beads/Images/BlackBeadChoiceWrong.png","","","","","","","","","",""
"image-keyboard-response","82","229427","0.0-3.0-4.0-1.0-0.23","5d6494874e9aae0019598b14","6662009ae78f21dd82fcd179","66620c7b55529e3640da8859","2386","","j","","","","","","","","./tasks/HMM-beads/Images/NewTrialWC.png","practice","0","23","1","0","1","1","false","",""
"image-keyboard-response","83","229740","0.0-3.0-4.0-1.0-1.23","5d6494874e9aae0019598b14","6662009ae78f21dd82fcd179","66620c7b55529e3640da8859","null","","null","","","","","","","","./tasks/HMM-beads/Images/WhiteBeadChoice.png","","","","","","","","","",""
"image-keyboard-response","84","230246","0.0-3.0-4.0-1.0-2.23","5d6494874e9aae0019598b14","6662009ae78f21dd82fcd179","66620c7b55529e3640da8859","null","","null","","","","","","","","./tasks/HMM-beads/Images/WhiteBeadChoiceWrong.png","","","","","","","","","",""
"image-keyboard-response","85","231011","0.0-3.0-4.0-1.0-0.24","5d6494874e9aae0019598b14","6662009ae78f21dd82fcd179","66620c7b55529e3640da8859","764","","j","","","","","","","","./tasks/HMM-beads/Images/NewTrialBC.png","practice","0","24","1","1","0","1","true","",""
"image-keyboard-response","86","231315","0.0-3.0-4.0-1.0-1.24","5d6494874e9aae0019598b14","6662009ae78f21dd82fcd179","66620c7b55529e3640da8859","null","","null","","","","","","","","./tasks/HMM-beads/Images/WhiteBeadChoice.png","","","","","","","","","",""
"image-keyboard-response","87","231819","0.0-3.0-4.0-1.0-2.24","5d6494874e9aae0019598b14","6662009ae78f21dd82fcd179","66620c7b55529e3640da8859","null","","null","","","","","","","","./tasks/HMM-beads/Images/WhiteBeadChoiceCorrect.png","","","","","","","","","",""
"image-keyboard-response","88","232132","0.0-3.0-4.0-1.0-0.25","5d6494874e9aae0019598b14","6662009ae78f21dd82fcd179","66620c7b55529e3640da8859","312","","j","","","","","","","","./tasks/HMM-beads/Images/NewTrialWC.png","practice","0","25","1","1","1","1","true","",""
"image-keyboard-response","89","232440","0.0-3.0-4.0-1.0-1.25","5d6494874e9aae0019598b14","6662009ae78f21dd82fcd179","66620c7b55529e3640da8859","null","","null","","","","","","","","./tasks/HMM-beads/Images/WhiteBeadChoice.png","","","","","","","","","",""
"image-keyboard-response","90","232951","0.0-3.0-4.0-1.0-2.25","5d6494874e9aae0019598b14","6662009ae78f21dd82fcd179","66620c7b55529e3640da8859","null","","null","","","","","","","","./tasks/HMM-beads/Images/WhiteBeadChoiceCorrect.png","","","","","","","","","",""
"image-keyboard-response","91","233180","0.0-3.0-4.0-1.0-0.26","5d6494874e9aae0019598b14","6662009ae78f21dd82fcd179","66620c7b55529e3640da8859","228","","j","","","","","","","","./tasks/HMM-beads/Images/NewTrialWC.png","practice","0","26","1","1","1","1","true","",""
"image-keyboard-response","92","233488","0.0-3.0-4.0-1.0-1.26","5d6494874e9aae0019598b14","6662009ae78f21dd82fcd179","66620c7b55529e3640da8859","null","","null","","","","","","","","./tasks/HMM-beads/Images/WhiteBeadChoice.png","","","","","","","","","",""
"image-keyboard-response","93","233990","0.0-3.0-4.0-1.0-2.26","5d6494874e9aae0019598b14","6662009ae78f21dd82fcd179","66620c7b55529e3640da8859","null","","null","","","","","","","","./tasks/HMM-beads/Images/WhiteBeadChoiceCorrect.png","","","","","","","","","",""
"image-keyboard-response","94","234188","0.0-3.0-4.0-1.0-0.27","5d6494874e9aae0019598b14","6662009ae78f21dd82fcd179","66620c7b55529e3640da8859","198","","j","","","","","","","","./tasks/HMM-beads/Images/NewTrialWC.png","practice","0","27","1","1","1","1","true","",""
"image-keyboard-response","95","234501","0.0-3.0-4.0-1.0-1.27","5d6494874e9aae0019598b14","6662009ae78f21dd82fcd179","66620c7b55529e3640da8859","null","","null","","","","","","","","./tasks/HMM-beads/Images/WhiteBeadChoice.png","","","","","","","","","",""
"image-keyboard-response","96","235009","0.0-3.0-4.0-1.0-2.27","5d6494874e9aae0019598b14","6662009ae78f21dd82fcd179","66620c7b55529e3640da8859","null","","null","","","","","","","","./tasks/HMM-beads/Images/WhiteBeadChoiceCorrect.png","","","","","","","","","",""
"image-keyboard-response","97","235124","0.0-3.0-4.0-1.0-0.28","5d6494874e9aae0019598b14","6662009ae78f21dd82fcd179","66620c7b55529e3640da8859","114","","j","","","","","","","","./tasks/HMM-beads/Images/NewTrialWC.png","practice","0","28","1","0","1","1","false","",""
"image-keyboard-response","98","235435","0.0-3.0-4.0-1.0-1.28","5d6494874e9aae0019598b14","6662009ae78f21dd82fcd179","66620c7b55529e3640da8859","null","","null","","","","","","","","./tasks/HMM-beads/Images/WhiteBeadChoice.png","","","","","","","","","",""
"image-keyboard-response","99","235944","0.0-3.0-4.0-1.0-2.28","5d6494874e9aae0019598b14","6662009ae78f21dd82fcd179","66620c7b55529e3640da8859","null","","null","","","","","","","","./tasks/HMM-beads/Images/WhiteBeadChoiceWrong.png","","","","","","","","","",""
"image-keyboard-response","100","236228","0.0-3.0-4.0-1.0-0.29","5d6494874e9aae0019598b14","6662009ae78f21dd82fcd179","66620c7b55529e3640da8859","283","","j","","","","","","","","./tasks/HMM-beads/Images/NewTrialBC.png","practice","0","29","1","1","0","1","true","",""
"image-keyboard-response","101","236538","0.0-3.0-4.0-1.0-1.29","5d6494874e9aae0019598b14","6662009ae78f21dd82fcd179","66620c7b55529e3640da8859","null","","null","","","","","","","","./tasks/HMM-beads/Images/WhiteBeadChoice.png","","","","","","","","","",""
"image-keyboard-response","102","237046","0.0-3.0-4.0-1.0-2.29","5d6494874e9aae0019598b14","6662009ae78f21dd82fcd179","66620c7b55529e3640da8859","null","","null","","","","","","","","./tasks/HMM-beads/Images/WhiteBeadChoiceCorrect.png","","","","","","","","","",""
"image-keyboard-response","103","237141","0.0-3.0-4.0-1.0-0.30","5d6494874e9aae0019598b14","6662009ae78f21dd82fcd179","66620c7b55529e3640da8859","91","","j","","","","","","","","./tasks/HMM-beads/Images/NewTrialWC.png","practice","0","30","1","0","1","1","false","",""
"image-keyboard-response","104","237452","0.0-3.0-4.0-1.0-1.30","5d6494874e9aae0019598b14","6662009ae78f21dd82fcd179","66620c7b55529e3640da8859","null","","null","","","","","","","","./tasks/HMM-beads/Images/WhiteBeadChoice.png","","","","","","","","","",""
"image-keyboard-response","105","237954","0.0-3.0-4.0-1.0-2.30","5d6494874e9aae0019598b14","6662009ae78f21dd82fcd179","66620c7b55529e3640da8859","null","","null","","","","","","","","./tasks/HMM-beads/Images/WhiteBeadChoiceWrong.png","","","","","","","","","",""
"image-keyboard-response","106","238108","0.0-3.0-4.0-1.0-0.31","5d6494874e9aae0019598b14","6662009ae78f21dd82fcd179","66620c7b55529e3640da8859","153","","j","","","","","","","","./tasks/HMM-beads/Images/NewTrialBC.png","practice","0","31","1","1","0","1","true","",""
"image-keyboard-response","107","238421","0.0-3.0-4.0-1.0-1.31","5d6494874e9aae0019598b14","6662009ae78f21dd82fcd179","66620c7b55529e3640da8859","null","","null","","","","","","","","./tasks/HMM-beads/Images/WhiteBeadChoice.png","","","","","","","","","",""
"image-keyboard-response","108","238934","0.0-3.0-4.0-1.0-2.31","5d6494874e9aae0019598b14","6662009ae78f21dd82fcd179","66620c7b55529e3640da8859","null","","null","","","","","","","","./tasks/HMM-beads/Images/WhiteBeadChoiceCorrect.png","","","","","","","","","",""
"image-keyboard-response","109","239611","0.0-3.0-4.0-1.0-0.32","5d6494874e9aae0019598b14","6662009ae78f21dd82fcd179","66620c7b55529e3640da8859","676","","j","","","","","","","","./tasks/HMM-beads/Images/NewTrialWC.png","practice","0","32","1","1","1","1","true","",""
"image-keyboard-response","110","239927","0.0-3.0-4.0-1.0-1.32","5d6494874e9aae0019598b14","6662009ae78f21dd82fcd179","66620c7b55529e3640da8859","null","","null","","","","","","","","./tasks/HMM-beads/Images/WhiteBeadChoice.png","","","","","","","","","",""
"image-keyboard-response","111","240433","0.0-3.0-4.0-1.0-2.32","5d6494874e9aae0019598b14","6662009ae78f21dd82fcd179","66620c7b55529e3640da8859","null","","null","","","","","","","","./tasks/HMM-beads/Images/WhiteBeadChoiceCorrect.png","","","","","","","","","",""
"image-keyboard-response","112","244595","0.0-3.0-4.0-1.0-0.33","5d6494874e9aae0019598b14","6662009ae78f21dd82fcd179","66620c7b55529e3640da8859","4162","","j","","","","","","","","./tasks/HMM-beads/Images/NewTrialWC.png","practice","0","33","1","1","1","1","true","",""
"image-keyboard-response","113","244909","0.0-3.0-4.0-1.0-1.33","5d6494874e9aae0019598b14","6662009ae78f21dd82fcd179","66620c7b55529e3640da8859","null","","null","","","","","","","","./tasks/HMM-beads/Images/WhiteBeadChoice.png","","","","","","","","","",""
"image-keyboard-response","114","245415","0.0-3.0-4.0-1.0-2.33","5d6494874e9aae0019598b14","6662009ae78f21dd82fcd179","66620c7b55529e3640da8859","null","","null","","","","","","","","./tasks/HMM-beads/Images/WhiteBeadChoiceCorrect.png","","","","","","","","","",""
"image-keyboard-response","115","245724","0.0-3.0-4.0-1.0-0.34","5d6494874e9aae0019598b14","6662009ae78f21dd82fcd179","66620c7b55529e3640da8859","308","","j","","","","","","","","./tasks/HMM-beads/Images/NewTrialWC.png","practice","0","34","1","1","1","1","true","",""
"image-keyboard-response","116","246032","0.0-3.0-4.0-1.0-1.34","5d6494874e9aae0019598b14","6662009ae78f21dd82fcd179","66620c7b55529e3640da8859","null","","null","","","","","","","","./tasks/HMM-beads/Images/WhiteBeadChoice.png","","","","","","","","","",""
"image-keyboard-response","117","246548","0.0-3.0-4.0-1.0-2.34","5d6494874e9aae0019598b14","6662009ae78f21dd82fcd179","66620c7b55529e3640da8859","null","","null","","","","","","","","./tasks/HMM-beads/Images/WhiteBeadChoiceCorrect.png","","","","","","","","","",""
"image-keyboard-response","118","246789","0.0-3.0-4.0-1.0-0.35","5d6494874e9aae0019598b14","6662009ae78f21dd82fcd179","66620c7b55529e3640da8859","240","","j","","","","","","","","./tasks/HMM-beads/Images/NewTrialWC.png","practice","0","35","1","1","1","1","true","",""
"image-keyboard-response","119","247105","0.0-3.0-4.0-1.0-1.35","5d6494874e9aae0019598b14","6662009ae78f21dd82fcd179","66620c7b55529e3640da8859","null","","null","","","","","","","","./tasks/HMM-beads/Images/WhiteBeadChoice.png","","","","","","","","","",""
"image-keyboard-response","120","247610","0.0-3.0-4.0-1.0-2.35","5d6494874e9aae0019598b14","6662009ae78f21dd82fcd179","66620c7b55529e3640da8859","null","","null","","","","","","","","./tasks/HMM-beads/Images/WhiteBeadChoiceCorrect.png","","","","","","","","","",""
"image-keyboard-response","121","247819","0.0-3.0-4.0-1.0-0.36","5d6494874e9aae0019598b14","6662009ae78f21dd82fcd179","66620c7b55529e3640da8859","208","","j","","","","","","","","./tasks/HMM-beads/Images/NewTrialWC.png","practice","0","36","1","0","1","1","false","",""
"image-keyboard-response","122","248134","0.0-3.0-4.0-1.0-1.36","5d6494874e9aae0019598b14","6662009ae78f21dd82fcd179","66620c7b55529e3640da8859","null","","null","","","","","","","","./tasks/HMM-beads/Images/WhiteBeadChoice.png","","","","","","","","","",""
"image-keyboard-response","123","248643","0.0-3.0-4.0-1.0-2.36","5d6494874e9aae0019598b14","6662009ae78f21dd82fcd179","66620c7b55529e3640da8859","null","","null","","","","","","","","./tasks/HMM-beads/Images/WhiteBeadChoiceWrong.png","","","","","","","","","",""
"image-keyboard-response","124","248644","0.0-3.0-4.0-1.0-0.37","5d6494874e9aae0019598b14","6662009ae78f21dd82fcd179","66620c7b55529e3640da8859","1","","j","","","","","","","","./tasks/HMM-beads/Images/NewTrialBC.png","practice","0","37","1","1","0","1","true","",""
"image-keyboard-response","125","248957","0.0-3.0-4.0-1.0-1.37","5d6494874e9aae0019598b14","6662009ae78f21dd82fcd179","66620c7b55529e3640da8859","null","","null","","","","","","","","./tasks/HMM-beads/Images/WhiteBeadChoice.png","","","","","","","","","",""
"image-keyboard-response","126","249471","0.0-3.0-4.0-1.0-2.37","5d6494874e9aae0019598b14","6662009ae78f21dd82fcd179","66620c7b55529e3640da8859","null","","null","","","","","","","","./tasks/HMM-beads/Images/WhiteBeadChoiceCorrect.png","","","","","","","","","",""
"image-keyboard-response","127","249484","0.0-3.0-4.0-1.0-0.38","5d6494874e9aae0019598b14","6662009ae78f21dd82fcd179","66620c7b55529e3640da8859","13","","j","","","","","","","","./tasks/HMM-beads/Images/NewTrialWC.png","practice","0","38","1","1","1","1","true","",""
"image-keyboard-response","128","249797","0.0-3.0-4.0-1.0-1.38","5d6494874e9aae0019598b14","6662009ae78f21dd82fcd179","66620c7b55529e3640da8859","null","","null","","","","","","","","./tasks/HMM-beads/Images/WhiteBeadChoice.png","","","","","","","","","",""
"image-keyboard-response","129","250310","0.0-3.0-4.0-1.0-2.38","5d6494874e9aae0019598b14","6662009ae78f21dd82fcd179","66620c7b55529e3640da8859","null","","null","","","","","","","","./tasks/HMM-beads/Images/WhiteBeadChoiceCorrect.png","","","","","","","","","",""
"image-keyboard-response","130","250373","0.0-3.0-4.0-1.0-0.39","5d6494874e9aae0019598b14","6662009ae78f21dd82fcd179","66620c7b55529e3640da8859","62","","j","","","","","","","","./tasks/HMM-beads/Images/NewTrialWC.png","practice","0","39","1","1","1","1","true","",""
"image-keyboard-response","131","250679","0.0-3.0-4.0-1.0-1.39","5d6494874e9aae0019598b14","6662009ae78f21dd82fcd179","66620c7b55529e3640da8859","null","","null","","","","","","","","./tasks/HMM-beads/Images/WhiteBeadChoice.png","","","","","","","","","",""
"image-keyboard-response","132","251187","0.0-3.0-4.0-1.0-2.39","5d6494874e9aae0019598b14","6662009ae78f21dd82fcd179","66620c7b55529e3640da8859","null","","null","","","","","","","","./tasks/HMM-beads/Images/WhiteBeadChoiceCorrect.png","","","","","","","","","",""
"html-keyboard-response","133","255596","0.0-3.0-4.0-2.0","5d6494874e9aae0019598b14","6662009ae78f21dd82fcd179","66620c7b55529e3640da8859","4409",""," ","","","","","","","","","","","","","","","","","",""
"instructions","134","281072","0.0-3.0-5.0","5d6494874e9aae0019598b14","6662009ae78f21dd82fcd179","66620c7b55529e3640da8859","25475","","","","[{""page_index"":0,""viewing_time"":19459},{""page_index"":1,""viewing_time"":6016}]","","","","","","","","","","","","","","","",""
"html-keyboard-response","135","285662","0.0-3.0-6.0-0.0","5d6494874e9aae0019598b14","6662009ae78f21dd82fcd179","66620c7b55529e3640da8859","4589",""," ","","","","","","","","<div align=center>In this block, there will be a <b>1% chance</b> that the jar on the next trial will be different from the jar on the current trial.<br><br></div>","","","","","","","","","",""
"image-keyboard-response","136","288101","0.0-3.0-6.0-1.0-0.0","5d6494874e9aae0019598b14","6662009ae78f21dd82fcd179","66620c7b55529e3640da8859","2438","","f","","","","","","","","./tasks/HMM-beads/Images/NoChoice.png","lowH","1","0","1","0","9","0","true","",""
"image-keyboard-response","137","288412","0.0-3.0-6.0-1.0-1.0","5d6494874e9aae0019598b14","6662009ae78f21dd82fcd179","66620c7b55529e3640da8859","null","","null","","","","","","","","./tasks/HMM-beads/Images/BlackBeadChoice.png","","","","","","","","","",""
"image-keyboard-response","138","288917","0.0-3.0-6.0-1.0-2.0","5d6494874e9aae0019598b14","6662009ae78f21dd82fcd179","66620c7b55529e3640da8859","null","","null","","","","","","","","./tasks/HMM-beads/Images/BlackBeadChoiceCorrect.png","","","","","","","","","",""
"image-keyboard-response","139","289485","0.0-3.0-6.0-1.0-0.1","5d6494874e9aae0019598b14","6662009ae78f21dd82fcd179","66620c7b55529e3640da8859","567","","f","","","","","","","","./tasks/HMM-beads/Images/NewTrialBC.png","lowH","1","1","1","1","0","0","false","",""
"image-keyboard-response","140","289792","0.0-3.0-6.0-1.0-1.1","5d6494874e9aae0019598b14","6662009ae78f21dd82fcd179","66620c7b55529e3640da8859","null","","null","","","","","","","","./tasks/HMM-beads/Images/BlackBeadChoice.png","","","","","","","","","",""
"image-keyboard-response","141","290297","0.0-3.0-6.0-1.0-2.1","5d6494874e9aae0019598b14","6662009ae78f21dd82fcd179","66620c7b55529e3640da8859","null","","null","","","","","","","","./tasks/HMM-beads/Images/BlackBeadChoiceWrong.png","","","","","","","","","",""
"image-keyboard-response","142","290501","0.0-3.0-6.0-1.0-0.2","5d6494874e9aae0019598b14","6662009ae78f21dd82fcd179","66620c7b55529e3640da8859","203","","f","","","","","","","","./tasks/HMM-beads/Images/NewTrialWC.png","lowH","1","2","1","1","1","0","false","",""
"image-keyboard-response","143","290806","0.0-3.0-6.0-1.0-1.2","5d6494874e9aae0019598b14","6662009ae78f21dd82fcd179","66620c7b55529e3640da8859","null","","null","","","","","","","","./tasks/HMM-beads/Images/BlackBeadChoice.png","","","","","","","","","",""
"image-keyboard-response","144","291315","0.0-3.0-6.0-1.0-2.2","5d6494874e9aae0019598b14","6662009ae78f21dd82fcd179","66620c7b55529e3640da8859","null","","null","","","","","","","","./tasks/HMM-beads/Images/BlackBeadChoiceWrong.png","","","","","","","","","",""
"image-keyboard-response","145","291421","0.0-3.0-6.0-1.0-0.3","5d6494874e9aae0019598b14","6662009ae78f21dd82fcd179","66620c7b55529e3640da8859","105","","j","","","","","","","","./tasks/HMM-beads/Images/NewTrialWC.png","lowH","1","3","1","1","1","1","true","",""
"image-keyboard-response","146","291735","0.0-3.0-6.0-1.0-1.3","5d6494874e9aae0019598b14","6662009ae78f21dd82fcd179","66620c7b55529e3640da8859","null","","null","","","","","","","","./tasks/HMM-beads/Images/WhiteBeadChoice.png","","","","","","","","","",""
"image-keyboard-response","147","292238","0.0-3.0-6.0-1.0-2.3","5d6494874e9aae0019598b14","6662009ae78f21dd82fcd179","66620c7b55529e3640da8859","null","","null","","","","","","","","./tasks/HMM-beads/Images/WhiteBeadChoiceCorrect.png","","","","","","","","","",""
"image-keyboard-response","148","292436","0.0-3.0-6.0-1.0-0.4","5d6494874e9aae0019598b14","6662009ae78f21dd82fcd179","66620c7b55529e3640da8859","197","","j","","","","","","","","./tasks/HMM-beads/Images/NewTrialWC.png","lowH","1","4","1","1","1","1","true","",""
"image-keyboard-response","149","292747","0.0-3.0-6.0-1.0-1.4","5d6494874e9aae0019598b14","6662009ae78f21dd82fcd179","66620c7b55529e3640da8859","null","","null","","","","","","","","./tasks/HMM-beads/Images/WhiteBeadChoice.png","","","","","","","","","",""
"image-keyboard-response","150","293253","0.0-3.0-6.0-1.0-2.4","5d6494874e9aae0019598b14","6662009ae78f21dd82fcd179","66620c7b55529e3640da8859","null","","null","","","","","","","","./tasks/HMM-beads/Images/WhiteBeadChoiceCorrect.png","","","","","","","","","",""
"image-keyboard-response","151","293317","0.0-3.0-6.0-1.0-0.5","5d6494874e9aae0019598b14","6662009ae78f21dd82fcd179","66620c7b55529e3640da8859","63","","j","","","","","","","","./tasks/HMM-beads/Images/NewTrialWC.png","lowH","1","5","1","1","1","1","true","",""
"image-keyboard-response","152","293632","0.0-3.0-6.0-1.0-1.5","5d6494874e9aae0019598b14","6662009ae78f21dd82fcd179","66620c7b55529e3640da8859","null","","null","","","","","","","","./tasks/HMM-beads/Images/WhiteBeadChoice.png","","","","","","","","","",""
"image-keyboard-response","153","294138","0.0-3.0-6.0-1.0-2.5","5d6494874e9aae0019598b14","6662009ae78f21dd82fcd179","66620c7b55529e3640da8859","null","","null","","","","","","","","./tasks/HMM-beads/Images/WhiteBeadChoiceCorrect.png","","","","","","","","","",""
"image-keyboard-response","154","294156","0.0-3.0-6.0-1.0-0.6","5d6494874e9aae0019598b14","6662009ae78f21dd82fcd179","66620c7b55529e3640da8859","18","","j","","","","","","","","./tasks/HMM-beads/Images/NewTrialWC.png","lowH","1","6","1","0","1","1","false","",""
"image-keyboard-response","155","294470","0.0-3.0-6.0-1.0-1.6","5d6494874e9aae0019598b14","6662009ae78f21dd82fcd179","66620c7b55529e3640da8859","null","","null","","","","","","","","./tasks/HMM-beads/Images/WhiteBeadChoice.png","","","","","","","","","",""
"image-keyboard-response","156","294982","0.0-3.0-6.0-1.0-2.6","5d6494874e9aae0019598b14","6662009ae78f21dd82fcd179","66620c7b55529e3640da8859","null","","null","","","","","","","","./tasks/HMM-beads/Images/WhiteBeadChoiceWrong.png","","","","","","","","","",""
"image-keyboard-response","157","296085","0.0-3.0-6.0-1.0-0.7","5d6494874e9aae0019598b14","6662009ae78f21dd82fcd179","66620c7b55529e3640da8859","1102","","j","","","","","","","","./tasks/HMM-beads/Images/NewTrialBC.png","lowH","1","7","1","1","0","1","true","",""
"image-keyboard-response","158","296390","0.0-3.0-6.0-1.0-1.7","5d6494874e9aae0019598b14","6662009ae78f21dd82fcd179","66620c7b55529e3640da8859","null","","null","","","","","","","","./tasks/HMM-beads/Images/WhiteBeadChoice.png","","","","","","","","","",""
"image-keyboard-response","159","296894","0.0-3.0-6.0-1.0-2.7","5d6494874e9aae0019598b14","6662009ae78f21dd82fcd179","66620c7b55529e3640da8859","null","","null","","","","","","","","./tasks/HMM-beads/Images/WhiteBeadChoiceCorrect.png","","","","","","","","","",""
"image-keyboard-response","160","297140","0.0-3.0-6.0-1.0-0.8","5d6494874e9aae0019598b14","6662009ae78f21dd82fcd179","66620c7b55529e3640da8859","245","","j","","","","","","","","./tasks/HMM-beads/Images/NewTrialWC.png","lowH","1","8","1","1","1","1","true","",""
"image-keyboard-response","161","297449","0.0-3.0-6.0-1.0-1.8","5d6494874e9aae0019598b14","6662009ae78f21dd82fcd179","66620c7b55529e3640da8859","null","","null","","","","","","","","./tasks/HMM-beads/Images/WhiteBeadChoice.png","","","","","","","","","",""
"image-keyboard-response","162","297956","0.0-3.0-6.0-1.0-2.8","5d6494874e9aae0019598b14","6662009ae78f21dd82fcd179","66620c7b55529e3640da8859","null","","null","","","","","","","","./tasks/HMM-beads/Images/WhiteBeadChoiceCorrect.png","","","","","","","","","",""
"image-keyboard-response","163","298236","0.0-3.0-6.0-1.0-0.9","5d6494874e9aae0019598b14","6662009ae78f21dd82fcd179","66620c7b55529e3640da8859","279","","j","","","","","","","","./tasks/HMM-beads/Images/NewTrialWC.png","lowH","1","9","1","1","1","1","true","",""
"image-keyboard-response","164","298544","0.0-3.0-6.0-1.0-1.9","5d6494874e9aae0019598b14","6662009ae78f21dd82fcd179","66620c7b55529e3640da8859","null","","null","","","","","","","","./tasks/HMM-beads/Images/WhiteBeadChoice.png","","","","","","","","","",""
"image-keyboard-response","165","299058","0.0-3.0-6.0-1.0-2.9","5d6494874e9aae0019598b14","6662009ae78f21dd82fcd179","66620c7b55529e3640da8859","null","","null","","","","","","","","./tasks/HMM-beads/Images/WhiteBeadChoiceCorrect.png","","","","","","","","","",""
"image-keyboard-response","166","299220","0.0-3.0-6.0-1.0-0.10","5d6494874e9aae0019598b14","6662009ae78f21dd82fcd179","66620c7b55529e3640da8859","162","","j","","","","","","","","./tasks/HMM-beads/Images/NewTrialWC.png","lowH","1","10","1","1","1","1","true","",""
"image-keyboard-response","167","299535","0.0-3.0-6.0-1.0-1.10","5d6494874e9aae0019598b14","6662009ae78f21dd82fcd179","66620c7b55529e3640da8859","null","","null","","","","","","","","./tasks/HMM-beads/Images/WhiteBeadChoice.png","","","","","","","","","",""
"image-keyboard-response","168","300038","0.0-3.0-6.0-1.0-2.10","5d6494874e9aae0019598b14","6662009ae78f21dd82fcd179","66620c7b55529e3640da8859","null","","null","","","","","","","","./tasks/HMM-beads/Images/WhiteBeadChoiceCorrect.png","","","","","","","","","",""
"image-keyboard-response","169","300294","0.0-3.0-6.0-1.0-0.11","5d6494874e9aae0019598b14","6662009ae78f21dd82fcd179","66620c7b55529e3640da8859","255","","j","","","","","","","","./tasks/HMM-beads/Images/NewTrialWC.png","lowH","1","11","1","1","1","1","true","",""
"image-keyboard-response","170","300607","0.0-3.0-6.0-1.0-1.11","5d6494874e9aae0019598b14","6662009ae78f21dd82fcd179","66620c7b55529e3640da8859","null","","null","","","","","","","","./tasks/HMM-beads/Images/WhiteBeadChoice.png","","","","","","","","","",""
"image-keyboard-response","171","301125","0.0-3.0-6.0-1.0-2.11","5d6494874e9aae0019598b14","6662009ae78f21dd82fcd179","66620c7b55529e3640da8859","null","","null","","","","","","","","./tasks/HMM-beads/Images/WhiteBeadChoiceCorrect.png","","","","","","","","","",""
"image-keyboard-response","172","301308","0.0-3.0-6.0-1.0-0.12","5d6494874e9aae0019598b14","6662009ae78f21dd82fcd179","66620c7b55529e3640da8859","183","","j","","","","","","","","./tasks/HMM-beads/Images/NewTrialWC.png","lowH","1","12","1","1","1","1","true","",""
"image-keyboard-response","173","301615","0.0-3.0-6.0-1.0-1.12","5d6494874e9aae0019598b14","6662009ae78f21dd82fcd179","66620c7b55529e3640da8859","null","","null","","","","","","","","./tasks/HMM-beads/Images/WhiteBeadChoice.png","","","","","","","","","",""
"image-keyboard-response","174","302119","0.0-3.0-6.0-1.0-2.12","5d6494874e9aae0019598b14","6662009ae78f21dd82fcd179","66620c7b55529e3640da8859","null","","null","","","","","","","","./tasks/HMM-beads/Images/WhiteBeadChoiceCorrect.png","","","","","","","","","",""
"image-keyboard-response","175","302596","0.0-3.0-6.0-1.0-0.13","5d6494874e9aae0019598b14","6662009ae78f21dd82fcd179","66620c7b55529e3640da8859","477","","j","","","","","","","","./tasks/HMM-beads/Images/NewTrialWC.png","lowH","1","13","1","0","1","1","false","",""
"image-keyboard-response","176","302900","0.0-3.0-6.0-1.0-1.13","5d6494874e9aae0019598b14","6662009ae78f21dd82fcd179","66620c7b55529e3640da8859","null","","null","","","","","","","","./tasks/HMM-beads/Images/WhiteBeadChoice.png","","","","","","","","","",""
"image-keyboard-response","177","303407","0.0-3.0-6.0-1.0-2.13","5d6494874e9aae0019598b14","6662009ae78f21dd82fcd179","66620c7b55529e3640da8859","null","","null","","","","","","","","./tasks/HMM-beads/Images/WhiteBeadChoiceWrong.png","","","","","","","","","",""
"image-keyboard-response","178","303669","0.0-3.0-6.0-1.0-0.14","5d6494874e9aae0019598b14","6662009ae78f21dd82fcd179","66620c7b55529e3640da8859","261","","j","","","","","","","","./tasks/HMM-beads/Images/NewTrialBC.png","lowH","1","14","1","0","0","1","false","",""
"image-keyboard-response","179","303974","0.0-3.0-6.0-1.0-1.14","5d6494874e9aae0019598b14","6662009ae78f21dd82fcd179","66620c7b55529e3640da8859","null","","null","","","","","","","","./tasks/HMM-beads/Images/WhiteBeadChoice.png","","","","","","","","","",""
"image-keyboard-response","180","304483","0.0-3.0-6.0-1.0-2.14","5d6494874e9aae0019598b14","6662009ae78f21dd82fcd179","66620c7b55529e3640da8859","null","","null","","","","","","","","./tasks/HMM-beads/Images/WhiteBeadChoiceWrong.png","","","","","","","","","",""
"image-keyboard-response","181","306092","0.0-3.0-6.0-1.0-0.15","5d6494874e9aae0019598b14","6662009ae78f21dd82fcd179","66620c7b55529e3640da8859","1609","","f","","","","","","","","./tasks/HMM-beads/Images/NewTrialBC.png","lowH","1","15","1","1","0","0","false","",""
"image-keyboard-response","182","306408","0.0-3.0-6.0-1.0-1.15","5d6494874e9aae0019598b14","6662009ae78f21dd82fcd179","66620c7b55529e3640da8859","null","","null","","","","","","","","./tasks/HMM-beads/Images/BlackBeadChoice.png","","","","","","","","","",""
"image-keyboard-response","183","306918","0.0-3.0-6.0-1.0-2.15","5d6494874e9aae0019598b14","6662009ae78f21dd82fcd179","66620c7b55529e3640da8859","null","","null","","","","","","","","./tasks/HMM-beads/Images/BlackBeadChoiceWrong.png","","","","","","","","","",""
"image-keyboard-response","184","307052","0.0-3.0-6.0-1.0-0.16","5d6494874e9aae0019598b14","6662009ae78f21dd82fcd179","66620c7b55529e3640da8859","134","","f","","","","","","","","./tasks/HMM-beads/Images/NewTrialWC.png","lowH","1","16","1","1","1","0","false","",""
"image-keyboard-response","185","307363","0.0-3.0-6.0-1.0-1.16","5d6494874e9aae0019598b14","6662009ae78f21dd82fcd179","66620c7b55529e3640da8859","null","","null","","","","","","","","./tasks/HMM-beads/Images/BlackBeadChoice.png","","","","","","","","","",""
"image-keyboard-response","186","307870","0.0-3.0-6.0-1.0-2.16","5d6494874e9aae0019598b14","6662009ae78f21dd82fcd179","66620c7b55529e3640da8859","null","","null","","","","","","","","./tasks/HMM-beads/Images/BlackBeadChoiceWrong.png","","","","","","","","","",""
"image-keyboard-response","187","307908","0.0-3.0-6.0-1.0-0.17","5d6494874e9aae0019598b14","6662009ae78f21dd82fcd179","66620c7b55529e3640da8859","37","","j","","","","","","","","./tasks/HMM-beads/Images/NewTrialWC.png","lowH","1","17","1","1","1","1","true","",""
"image-keyboard-response","188","308218","0.0-3.0-6.0-1.0-1.17","5d6494874e9aae0019598b14","6662009ae78f21dd82fcd179","66620c7b55529e3640da8859","null","","null","","","","","","","","./tasks/HMM-beads/Images/WhiteBeadChoice.png","","","","","","","","","",""
"image-keyboard-response","189","308722","0.0-3.0-6.0-1.0-2.17","5d6494874e9aae0019598b14","6662009ae78f21dd82fcd179","66620c7b55529e3640da8859","null","","null","","","","","","","","./tasks/HMM-beads/Images/WhiteBeadChoiceCorrect.png","","","","","","","","","",""
"image-keyboard-response","190","308844","0.0-3.0-6.0-1.0-0.18","5d6494874e9aae0019598b14","6662009ae78f21dd82fcd179","66620c7b55529e3640da8859","122","","j","","","","","","","","./tasks/HMM-beads/Images/NewTrialWC.png","lowH","1","18","1","1","1","1","true","",""
"image-keyboard-response","191","309153","0.0-3.0-6.0-1.0-1.18","5d6494874e9aae0019598b14","6662009ae78f21dd82fcd179","66620c7b55529e3640da8859","null","","null","","","","","","","","./tasks/HMM-beads/Images/WhiteBeadChoice.png","","","","","","","","","",""
"image-keyboard-response","192","309655","0.0-3.0-6.0-1.0-2.18","5d6494874e9aae0019598b14","6662009ae78f21dd82fcd179","66620c7b55529e3640da8859","null","","null","","","","","","","","./tasks/HMM-beads/Images/WhiteBeadChoiceCorrect.png","","","","","","","","","",""
"image-keyboard-response","193","309756","0.0-3.0-6.0-1.0-0.19","5d6494874e9aae0019598b14","6662009ae78f21dd82fcd179","66620c7b55529e3640da8859","101","","j","","","","","","","","./tasks/HMM-beads/Images/NewTrialWC.png","lowH","1","19","1","1","1","1","true","",""
"image-keyboard-response","194","310067","0.0-3.0-6.0-1.0-1.19","5d6494874e9aae0019598b14","6662009ae78f21dd82fcd179","66620c7b55529e3640da8859","null","","null","","","","","","","","./tasks/HMM-beads/Images/WhiteBeadChoice.png","","","","","","","","","",""
"image-keyboard-response","195","310580","0.0-3.0-6.0-1.0-2.19","5d6494874e9aae0019598b14","6662009ae78f21dd82fcd179","66620c7b55529e3640da8859","null","","null","","","","","","","","./tasks/HMM-beads/Images/WhiteBeadChoiceCorrect.png","","","","","","","","","",""
"image-keyboard-response","196","310646","0.0-3.0-6.0-1.0-0.20","5d6494874e9aae0019598b14","6662009ae78f21dd82fcd179","66620c7b55529e3640da8859","65","","j","","","","","","","","./tasks/HMM-beads/Images/NewTrialWC.png","lowH","1","20","1","1","1","1","true","",""
"image-keyboard-response","197","310957","0.0-3.0-6.0-1.0-1.20","5d6494874e9aae0019598b14","6662009ae78f21dd82fcd179","66620c7b55529e3640da8859","null","","null","","","","","","","","./tasks/HMM-beads/Images/WhiteBeadChoice.png","","","","","","","","","",""
"image-keyboard-response","198","311464","0.0-3.0-6.0-1.0-2.20","5d6494874e9aae0019598b14","6662009ae78f21dd82fcd179","66620c7b55529e3640da8859","null","","null","","","","","","","","./tasks/HMM-beads/Images/WhiteBeadChoiceCorrect.png","","","","","","","","","",""
"image-keyboard-response","199","311509","0.0-3.0-6.0-1.0-0.21","5d6494874e9aae0019598b14","6662009ae78f21dd82fcd179","66620c7b55529e3640da8859","44","","j","","","","","","","","./tasks/HMM-beads/Images/NewTrialWC.png","lowH","1","21","1","1","1","1","true","",""
"image-keyboard-response","200","311810","0.0-3.0-6.0-1.0-1.21","5d6494874e9aae0019598b14","6662009ae78f21dd82fcd179","66620c7b55529e3640da8859","null","","null","","","","","","","","./tasks/HMM-beads/Images/WhiteBeadChoice.png","","","","","","","","","",""
"image-keyboard-response","201","312316","0.0-3.0-6.0-1.0-2.21","5d6494874e9aae0019598b14","6662009ae78f21dd82fcd179","66620c7b55529e3640da8859","null","","null","","","","","","","","./tasks/HMM-beads/Images/WhiteBeadChoiceCorrect.png","","","","","","","","","",""
"image-keyboard-response","202","312398","0.0-3.0-6.0-1.0-0.22","5d6494874e9aae0019598b14","6662009ae78f21dd82fcd179","66620c7b55529e3640da8859","82","","j","","","","","","","","./tasks/HMM-beads/Images/NewTrialWC.png","lowH","1","22","1","1","1","1","true","",""
"image-keyboard-response","203","312712","0.0-3.0-6.0-1.0-1.22","5d6494874e9aae0019598b14","6662009ae78f21dd82fcd179","66620c7b55529e3640da8859","null","","null","","","","","","","","./tasks/HMM-beads/Images/WhiteBeadChoice.png","","","","","","","","","",""
"image-keyboard-response","204","313220","0.0-3.0-6.0-1.0-2.22","5d6494874e9aae0019598b14","6662009ae78f21dd82fcd179","66620c7b55529e3640da8859","null","","null","","","","","","","","./tasks/HMM-beads/Images/WhiteBeadChoiceCorrect.png","","","","","","","","","",""
"image-keyboard-response","205","313644","0.0-3.0-6.0-1.0-0.23","5d6494874e9aae0019598b14","6662009ae78f21dd82fcd179","66620c7b55529e3640da8859","424","","j","","","","","","","","./tasks/HMM-beads/Images/NewTrialWC.png","lowH","1","23","1","1","1","1","true","",""
"image-keyboard-response","206","313948","0.0-3.0-6.0-1.0-1.23","5d6494874e9aae0019598b14","6662009ae78f21dd82fcd179","66620c7b55529e3640da8859","null","","null","","","","","","","","./tasks/HMM-beads/Images/WhiteBeadChoice.png","","","","","","","","","",""
"image-keyboard-response","207","314450","0.0-3.0-6.0-1.0-2.23","5d6494874e9aae0019598b14","6662009ae78f21dd82fcd179","66620c7b55529e3640da8859","null","","null","","","","","","","","./tasks/HMM-beads/Images/WhiteBeadChoiceCorrect.png","","","","","","","","","",""
"image-keyboard-response","208","314652","0.0-3.0-6.0-1.0-0.24","5d6494874e9aae0019598b14","6662009ae78f21dd82fcd179","66620c7b55529e3640da8859","201","","j","","","","","","","","./tasks/HMM-beads/Images/NewTrialWC.png","lowH","1","24","1","0","1","1","false","",""
"image-keyboard-response","209","314962","0.0-3.0-6.0-1.0-1.24","5d6494874e9aae0019598b14","6662009ae78f21dd82fcd179","66620c7b55529e3640da8859","null","","null","","","","","","","","./tasks/HMM-beads/Images/WhiteBeadChoice.png","","","","","","","","","",""
"image-keyboard-response","210","315472","0.0-3.0-6.0-1.0-2.24","5d6494874e9aae0019598b14","6662009ae78f21dd82fcd179","66620c7b55529e3640da8859","null","","null","","","","","","","","./tasks/HMM-beads/Images/WhiteBeadChoiceWrong.png","","","","","","","","","",""
"image-keyboard-response","211","316300","0.0-3.0-6.0-1.0-0.25","5d6494874e9aae0019598b14","6662009ae78f21dd82fcd179","66620c7b55529e3640da8859","827","","j","","","","","","","","./tasks/HMM-beads/Images/NewTrialBC.png","lowH","1","25","1","1","0","1","true","",""
"image-keyboard-response","212","316617","0.0-3.0-6.0-1.0-1.25","5d6494874e9aae0019598b14","6662009ae78f21dd82fcd179","66620c7b55529e3640da8859","null","","null","","","","","","","","./tasks/HMM-beads/Images/WhiteBeadChoice.png","","","","","","","","","",""
"image-keyboard-response","213","317122","0.0-3.0-6.0-1.0-2.25","5d6494874e9aae0019598b14","6662009ae78f21dd82fcd179","66620c7b55529e3640da8859","null","","null","","","","","","","","./tasks/HMM-beads/Images/WhiteBeadChoiceCorrect.png","","","","","","","","","",""
"image-keyboard-response","214","317228","0.0-3.0-6.0-1.0-0.26","5d6494874e9aae0019598b14","6662009ae78f21dd82fcd179","66620c7b55529e3640da8859","106","","j","","","","","","","","./tasks/HMM-beads/Images/NewTrialWC.png","lowH","1","26","1","0","1","1","false","",""
"image-keyboard-response","215","317532","0.0-3.0-6.0-1.0-1.26","5d6494874e9aae0019598b14","6662009ae78f21dd82fcd179","66620c7b55529e3640da8859","null","","null","","","","","","","","./tasks/HMM-beads/Images/WhiteBeadChoice.png","","","","","","","","","",""
"image-keyboard-response","216","318047","0.0-3.0-6.0-1.0-2.26","5d6494874e9aae0019598b14","6662009ae78f21dd82fcd179","66620c7b55529e3640da8859","null","","null","","","","","","","","./tasks/HMM-beads/Images/WhiteBeadChoiceWrong.png","","","","","","","","","",""
"image-keyboard-response","217","318140","0.0-3.0-6.0-1.0-0.27","5d6494874e9aae0019598b14","6662009ae78f21dd82fcd179","66620c7b55529e3640da8859","93","","j","","","","","","","","./tasks/HMM-beads/Images/NewTrialBC.png","lowH","1","27","1","1","0","1","true","",""
"image-keyboard-response","218","318451","0.0-3.0-6.0-1.0-1.27","5d6494874e9aae0019598b14","6662009ae78f21dd82fcd179","66620c7b55529e3640da8859","null","","null","","","","","","","","./tasks/HMM-beads/Images/WhiteBeadChoice.png","","","","","","","","","",""
"image-keyboard-response","219","318965","0.0-3.0-6.0-1.0-2.27","5d6494874e9aae0019598b14","6662009ae78f21dd82fcd179","66620c7b55529e3640da8859","null","","null","","","","","","","","./tasks/HMM-beads/Images/WhiteBeadChoiceCorrect.png","","","","","","","","","",""
"image-keyboard-response","220","319116","0.0-3.0-6.0-1.0-0.28","5d6494874e9aae0019598b14","6662009ae78f21dd82fcd179","66620c7b55529e3640da8859","151","","j","","","","","","","","./tasks/HMM-beads/Images/NewTrialWC.png","lowH","1","28","1","1","1","1","true","",""
"image-keyboard-response","221","319424","0.0-3.0-6.0-1.0-1.28","5d6494874e9aae0019598b14","6662009ae78f21dd82fcd179","66620c7b55529e3640da8859","null","","null","","","","","","","","./tasks/HMM-beads/Images/WhiteBeadChoice.png","","","","","","","","","",""
"image-keyboard-response","222","319925","0.0-3.0-6.0-1.0-2.28","5d6494874e9aae0019598b14","6662009ae78f21dd82fcd179","66620c7b55529e3640da8859","null","","null","","","","","","","","./tasks/HMM-beads/Images/WhiteBeadChoiceCorrect.png","","","","","","","","","",""
"image-keyboard-response","223","320028","0.0-3.0-6.0-1.0-0.29","5d6494874e9aae0019598b14","6662009ae78f21dd82fcd179","66620c7b55529e3640da8859","102","","j","","","","","","","","./tasks/HMM-beads/Images/NewTrialWC.png","lowH","1","29","1","1","1","1","true","",""
"image-keyboard-response","224","320338","0.0-3.0-6.0-1.0-1.29","5d6494874e9aae0019598b14","6662009ae78f21dd82fcd179","66620c7b55529e3640da8859","null","","null","","","","","","","","./tasks/HMM-beads/Images/WhiteBeadChoice.png","","","","","","","","","",""
"image-keyboard-response","225","320845","0.0-3.0-6.0-1.0-2.29","5d6494874e9aae0019598b14","6662009ae78f21dd82fcd179","66620c7b55529e3640da8859","null","","null","","","","","","","","./tasks/HMM-beads/Images/WhiteBeadChoiceCorrect.png","","","","","","","","","",""
"image-keyboard-response","226","320972","0.0-3.0-6.0-1.0-0.30","5d6494874e9aae0019598b14","6662009ae78f21dd82fcd179","66620c7b55529e3640da8859","127","","j","","","","","","","","./tasks/HMM-beads/Images/NewTrialWC.png","lowH","1","30","1","1","1","1","true","",""
"image-keyboard-response","227","321287","0.0-3.0-6.0-1.0-1.30","5d6494874e9aae0019598b14","6662009ae78f21dd82fcd179","66620c7b55529e3640da8859","null","","null","","","","","","","","./tasks/HMM-beads/Images/WhiteBeadChoice.png","","","","","","","","","",""
"image-keyboard-response","228","321794","0.0-3.0-6.0-1.0-2.30","5d6494874e9aae0019598b14","6662009ae78f21dd82fcd179","66620c7b55529e3640da8859","null","","null","","","","","","","","./tasks/HMM-beads/Images/WhiteBeadChoiceCorrect.png","","","","","","","","","",""
"image-keyboard-response","229","321924","0.0-3.0-6.0-1.0-0.31","5d6494874e9aae0019598b14","6662009ae78f21dd82fcd179","66620c7b55529e3640da8859","129","","j","","","","","","","","./tasks/HMM-beads/Images/NewTrialWC.png","lowH","1","31","1","1","1","1","true","",""
"image-keyboard-response","230","322231","0.0-3.0-6.0-1.0-1.31","5d6494874e9aae0019598b14","6662009ae78f21dd82fcd179","66620c7b55529e3640da8859","null","","null","","","","","","","","./tasks/HMM-beads/Images/WhiteBeadChoice.png","","","","","","","","","",""
"image-keyboard-response","231","322743","0.0-3.0-6.0-1.0-2.31","5d6494874e9aae0019598b14","6662009ae78f21dd82fcd179","66620c7b55529e3640da8859","null","","null","","","","","","","","./tasks/HMM-beads/Images/WhiteBeadChoiceCorrect.png","","","","","","","","","",""
"image-keyboard-response","232","327997","0.0-3.0-6.0-1.0-0.32","5d6494874e9aae0019598b14","6662009ae78f21dd82fcd179","66620c7b55529e3640da8859","5253","","j","","","","","","","","./tasks/HMM-beads/Images/NewTrialWC.png","lowH","1","32","1","1","1","1","true","",""
"image-keyboard-response","233","328302","0.0-3.0-6.0-1.0-1.32","5d6494874e9aae0019598b14","6662009ae78f21dd82fcd179","66620c7b55529e3640da8859","null","","null","","","","","","","","./tasks/HMM-beads/Images/WhiteBeadChoice.png","","","","","","","","","",""
"image-keyboard-response","234","328809","0.0-3.0-6.0-1.0-2.32","5d6494874e9aae0019598b14","6662009ae78f21dd82fcd179","66620c7b55529e3640da8859","null","","null","","","","","","","","./tasks/HMM-beads/Images/WhiteBeadChoiceCorrect.png","","","","","","","","","",""
"image-keyboard-response","235","329067","0.0-3.0-6.0-1.0-0.33","5d6494874e9aae0019598b14","6662009ae78f21dd82fcd179","66620c7b55529e3640da8859","258","","j","","","","","","","","./tasks/HMM-beads/Images/NewTrialWC.png","lowH","1","33","1","1","1","1","true","",""
"image-keyboard-response","236","329380","0.0-3.0-6.0-1.0-1.33","5d6494874e9aae0019598b14","6662009ae78f21dd82fcd179","66620c7b55529e3640da8859","null","","null","","","","","","","","./tasks/HMM-beads/Images/WhiteBeadChoice.png","","","","","","","","","",""
"image-keyboard-response","237","329890","0.0-3.0-6.0-1.0-2.33","5d6494874e9aae0019598b14","6662009ae78f21dd82fcd179","66620c7b55529e3640da8859","null","","null","","","","","","","","./tasks/HMM-beads/Images/WhiteBeadChoiceCorrect.png","","","","","","","","","",""
"image-keyboard-response","238","330140","0.0-3.0-6.0-1.0-0.34","5d6494874e9aae0019598b14","6662009ae78f21dd82fcd179","66620c7b55529e3640da8859","249","","j","","","","","","","","./tasks/HMM-beads/Images/NewTrialWC.png","lowH","1","34","1","1","1","1","true","",""
"image-keyboard-response","239","330456","0.0-3.0-6.0-1.0-1.34","5d6494874e9aae0019598b14","6662009ae78f21dd82fcd179","66620c7b55529e3640da8859","null","","null","","","","","","","","./tasks/HMM-beads/Images/WhiteBeadChoice.png","","","","","","","","","",""
"image-keyboard-response","240","330964","0.0-3.0-6.0-1.0-2.34","5d6494874e9aae0019598b14","6662009ae78f21dd82fcd179","66620c7b55529e3640da8859","null","","null","","","","","","","","./tasks/HMM-beads/Images/WhiteBeadChoiceCorrect.png","","","","","","","","","",""
"image-keyboard-response","241","331060","0.0-3.0-6.0-1.0-0.35","5d6494874e9aae0019598b14","6662009ae78f21dd82fcd179","66620c7b55529e3640da8859","95","","j","","","","","","","","./tasks/HMM-beads/Images/NewTrialWC.png","lowH","1","35","1","1","1","1","true","",""
"image-keyboard-response","242","331373","0.0-3.0-6.0-1.0-1.35","5d6494874e9aae0019598b14","6662009ae78f21dd82fcd179","66620c7b55529e3640da8859","null","","null","","","","","","","","./tasks/HMM-beads/Images/WhiteBeadChoice.png","","","","","","","","","",""
"image-keyboard-response","243","331877","0.0-3.0-6.0-1.0-2.35","5d6494874e9aae0019598b14","6662009ae78f21dd82fcd179","66620c7b55529e3640da8859","null","","null","","","","","","","","./tasks/HMM-beads/Images/WhiteBeadChoiceCorrect.png","","","","","","","","","",""
"image-keyboard-response","244","332021","0.0-3.0-6.0-1.0-0.36","5d6494874e9aae0019598b14","6662009ae78f21dd82fcd179","66620c7b55529e3640da8859","143","","j","","","","","","","","./tasks/HMM-beads/Images/NewTrialWC.png","lowH","1","36","1","1","1","1","true","",""
"image-keyboard-response","245","332333","0.0-3.0-6.0-1.0-1.36","5d6494874e9aae0019598b14","6662009ae78f21dd82fcd179","66620c7b55529e3640da8859","null","","null","","","","","","","","./tasks/HMM-beads/Images/WhiteBeadChoice.png","","","","","","","","","",""
"image-keyboard-response","246","332843","0.0-3.0-6.0-1.0-2.36","5d6494874e9aae0019598b14","6662009ae78f21dd82fcd179","66620c7b55529e3640da8859","null","","null","","","","","","","","./tasks/HMM-beads/Images/WhiteBeadChoiceCorrect.png","","","","","","","","","",""
"image-keyboard-response","247","333005","0.0-3.0-6.0-1.0-0.37","5d6494874e9aae0019598b14","6662009ae78f21dd82fcd179","66620c7b55529e3640da8859","161","","j","","","","","","","","./tasks/HMM-beads/Images/NewTrialWC.png","lowH","1","37","1","1","1","1","true","",""
"image-keyboard-response","248","333318","0.0-3.0-6.0-1.0-1.37","5d6494874e9aae0019598b14","6662009ae78f21dd82fcd179","66620c7b55529e3640da8859","null","","null","","","","","","","","./tasks/HMM-beads/Images/WhiteBeadChoice.png","","","","","","","","","",""
"image-keyboard-response","249","333822","0.0-3.0-6.0-1.0-2.37","5d6494874e9aae0019598b14","6662009ae78f21dd82fcd179","66620c7b55529e3640da8859","null","","null","","","","","","","","./tasks/HMM-beads/Images/WhiteBeadChoiceCorrect.png","","","","","","","","","",""
"image-keyboard-response","250","333956","0.0-3.0-6.0-1.0-0.38","5d6494874e9aae0019598b14","6662009ae78f21dd82fcd179","66620c7b55529e3640da8859","133","","j","","","","","","","","./tasks/HMM-beads/Images/NewTrialWC.png","lowH","1","38","1","1","1","1","true","",""
"image-keyboard-response","251","334264","0.0-3.0-6.0-1.0-1.38","5d6494874e9aae0019598b14","6662009ae78f21dd82fcd179","66620c7b55529e3640da8859","null","","null","","","","","","","","./tasks/HMM-beads/Images/WhiteBeadChoice.png","","","","","","","","","",""
"image-keyboard-response","252","334773","0.0-3.0-6.0-1.0-2.38","5d6494874e9aae0019598b14","6662009ae78f21dd82fcd179","66620c7b55529e3640da8859","null","","null","","","","","","","","./tasks/HMM-beads/Images/WhiteBeadChoiceCorrect.png","","","","","","","","","",""
"image-keyboard-response","253","334917","0.0-3.0-6.0-1.0-0.39","5d6494874e9aae0019598b14","6662009ae78f21dd82fcd179","66620c7b55529e3640da8859","143","","j","","","","","","","","./tasks/HMM-beads/Images/NewTrialWC.png","lowH","1","39","1","1","1","1","true","",""
"image-keyboard-response","254","335233","0.0-3.0-6.0-1.0-1.39","5d6494874e9aae0019598b14","6662009ae78f21dd82fcd179","66620c7b55529e3640da8859","null","","null","","","","","","","","./tasks/HMM-beads/Images/WhiteBeadChoice.png","","","","","","","","","",""
"image-keyboard-response","255","335739","0.0-3.0-6.0-1.0-2.39","5d6494874e9aae0019598b14","6662009ae78f21dd82fcd179","66620c7b55529e3640da8859","null","","null","","","","","","","","./tasks/HMM-beads/Images/WhiteBeadChoiceCorrect.png","","","","","","","","","",""
"image-keyboard-response","256","335884","0.0-3.0-6.0-1.0-0.40","5d6494874e9aae0019598b14","6662009ae78f21dd82fcd179","66620c7b55529e3640da8859","145","","j","","","","","","","","./tasks/HMM-beads/Images/NewTrialWC.png","lowH","1","40","1","1","1","1","true","",""
"image-keyboard-response","257","336200","0.0-3.0-6.0-1.0-1.40","5d6494874e9aae0019598b14","6662009ae78f21dd82fcd179","66620c7b55529e3640da8859","null","","null","","","","","","","","./tasks/HMM-beads/Images/WhiteBeadChoice.png","","","","","","","","","",""
"image-keyboard-response","258","336708","0.0-3.0-6.0-1.0-2.40","5d6494874e9aae0019598b14","6662009ae78f21dd82fcd179","66620c7b55529e3640da8859","null","","null","","","","","","","","./tasks/HMM-beads/Images/WhiteBeadChoiceCorrect.png","","","","","","","","","",""
"image-keyboard-response","259","336758","0.0-3.0-6.0-1.0-0.41","5d6494874e9aae0019598b14","6662009ae78f21dd82fcd179","66620c7b55529e3640da8859","49","","j","","","","","","","","./tasks/HMM-beads/Images/NewTrialWC.png","lowH","1","41","1","1","1","1","true","",""
"image-keyboard-response","260","337073","0.0-3.0-6.0-1.0-1.41","5d6494874e9aae0019598b14","6662009ae78f21dd82fcd179","66620c7b55529e3640da8859","null","","null","","","","","","","","./tasks/HMM-beads/Images/WhiteBeadChoice.png","","","","","","","","","",""
"image-keyboard-response","261","337582","0.0-3.0-6.0-1.0-2.41","5d6494874e9aae0019598b14","6662009ae78f21dd82fcd179","66620c7b55529e3640da8859","null","","null","","","","","","","","./tasks/HMM-beads/Images/WhiteBeadChoiceCorrect.png","","","","","","","","","",""
"image-keyboard-response","262","337668","0.0-3.0-6.0-1.0-0.42","5d6494874e9aae0019598b14","6662009ae78f21dd82fcd179","66620c7b55529e3640da8859","85","","j","","","","","","","","./tasks/HMM-beads/Images/NewTrialWC.png","lowH","1","42","1","1","1","1","true","",""
"image-keyboard-response","263","337970","0.0-3.0-6.0-1.0-1.42","5d6494874e9aae0019598b14","6662009ae78f21dd82fcd179","66620c7b55529e3640da8859","null","","null","","","","","","","","./tasks/HMM-beads/Images/WhiteBeadChoice.png","","","","","","","","","",""
"image-keyboard-response","264","338485","0.0-3.0-6.0-1.0-2.42","5d6494874e9aae0019598b14","6662009ae78f21dd82fcd179","66620c7b55529e3640da8859","null","","null","","","","","","","","./tasks/HMM-beads/Images/WhiteBeadChoiceCorrect.png","","","","","","","","","",""
"image-keyboard-response","265","338669","0.0-3.0-6.0-1.0-0.43","5d6494874e9aae0019598b14","6662009ae78f21dd82fcd179","66620c7b55529e3640da8859","182","","j","","","","","","","","./tasks/HMM-beads/Images/NewTrialWC.png","lowH","1","43","1","1","1","1","true","",""
"image-keyboard-response","266","338979","0.0-3.0-6.0-1.0-1.43","5d6494874e9aae0019598b14","6662009ae78f21dd82fcd179","66620c7b55529e3640da8859","null","","null","","","","","","","","./tasks/HMM-beads/Images/WhiteBeadChoice.png","","","","","","","","","",""
"image-keyboard-response","267","339482","0.0-3.0-6.0-1.0-2.43","5d6494874e9aae0019598b14","6662009ae78f21dd82fcd179","66620c7b55529e3640da8859","null","","null","","","","","","","","./tasks/HMM-beads/Images/WhiteBeadChoiceCorrect.png","","","","","","","","","",""
"image-keyboard-response","268","339604","0.0-3.0-6.0-1.0-0.44","5d6494874e9aae0019598b14","6662009ae78f21dd82fcd179","66620c7b55529e3640da8859","122","","j","","","","","","","","./tasks/HMM-beads/Images/NewTrialWC.png","lowH","1","44","1","1","1","1","true","",""
"image-keyboard-response","269","339906","0.0-3.0-6.0-1.0-1.44","5d6494874e9aae0019598b14","6662009ae78f21dd82fcd179","66620c7b55529e3640da8859","null","","null","","","","","","","","./tasks/HMM-beads/Images/WhiteBeadChoice.png","","","","","","","","","",""
"image-keyboard-response","270","340409","0.0-3.0-6.0-1.0-2.44","5d6494874e9aae0019598b14","6662009ae78f21dd82fcd179","66620c7b55529e3640da8859","null","","null","","","","","","","","./tasks/HMM-beads/Images/WhiteBeadChoiceCorrect.png","","","","","","","","","",""
"image-keyboard-response","271","340572","0.0-3.0-6.0-1.0-0.45","5d6494874e9aae0019598b14","6662009ae78f21dd82fcd179","66620c7b55529e3640da8859","162","","j","","","","","","","","./tasks/HMM-beads/Images/NewTrialWC.png","lowH","1","45","1","1","1","1","true","",""
"image-keyboard-response","272","340884","0.0-3.0-6.0-1.0-1.45","5d6494874e9aae0019598b14","6662009ae78f21dd82fcd179","66620c7b55529e3640da8859","null","","null","","","","","","","","./tasks/HMM-beads/Images/WhiteBeadChoice.png","","","","","","","","","",""
"image-keyboard-response","273","341396","0.0-3.0-6.0-1.0-2.45","5d6494874e9aae0019598b14","6662009ae78f21dd82fcd179","66620c7b55529e3640da8859","null","","null","","","","","","","","./tasks/HMM-beads/Images/WhiteBeadChoiceCorrect.png","","","","","","","","","",""
"image-keyboard-response","274","341485","0.0-3.0-6.0-1.0-0.46","5d6494874e9aae0019598b14","6662009ae78f21dd82fcd179","66620c7b55529e3640da8859","89","","j","","","","","","","","./tasks/HMM-beads/Images/NewTrialWC.png","lowH","1","46","1","1","1","1","true","",""
"image-keyboard-response","275","341800","0.0-3.0-6.0-1.0-1.46","5d6494874e9aae0019598b14","6662009ae78f21dd82fcd179","66620c7b55529e3640da8859","null","","null","","","","","","","","./tasks/HMM-beads/Images/WhiteBeadChoice.png","","","","","","","","","",""
"image-keyboard-response","276","342310","0.0-3.0-6.0-1.0-2.46","5d6494874e9aae0019598b14","6662009ae78f21dd82fcd179","66620c7b55529e3640da8859","null","","null","","","","","","","","./tasks/HMM-beads/Images/WhiteBeadChoiceCorrect.png","","","","","","","","","",""
"image-keyboard-response","277","342452","0.0-3.0-6.0-1.0-0.47","5d6494874e9aae0019598b14","6662009ae78f21dd82fcd179","66620c7b55529e3640da8859","141","","j","","","","","","","","./tasks/HMM-beads/Images/NewTrialWC.png","lowH","1","47","1","0","1","1","false","",""
"image-keyboard-response","278","342758","0.0-3.0-6.0-1.0-1.47","5d6494874e9aae0019598b14","6662009ae78f21dd82fcd179","66620c7b55529e3640da8859","null","","null","","","","","","","","./tasks/HMM-beads/Images/WhiteBeadChoice.png","","","","","","","","","",""
"image-keyboard-response","279","343265","0.0-3.0-6.0-1.0-2.47","5d6494874e9aae0019598b14","6662009ae78f21dd82fcd179","66620c7b55529e3640da8859","null","","null","","","","","","","","./tasks/HMM-beads/Images/WhiteBeadChoiceWrong.png","","","","","","","","","",""
"image-keyboard-response","280","343453","0.0-3.0-6.0-1.0-0.48","5d6494874e9aae0019598b14","6662009ae78f21dd82fcd179","66620c7b55529e3640da8859","186","","j","","","","","","","","./tasks/HMM-beads/Images/NewTrialBC.png","lowH","1","48","1","0","0","1","false","",""
"image-keyboard-response","281","343760","0.0-3.0-6.0-1.0-1.48","5d6494874e9aae0019598b14","6662009ae78f21dd82fcd179","66620c7b55529e3640da8859","null","","null","","","","","","","","./tasks/HMM-beads/Images/WhiteBeadChoice.png","","","","","","","","","",""
"image-keyboard-response","282","344275","0.0-3.0-6.0-1.0-2.48","5d6494874e9aae0019598b14","6662009ae78f21dd82fcd179","66620c7b55529e3640da8859","null","","null","","","","","","","","./tasks/HMM-beads/Images/WhiteBeadChoiceWrong.png","","","","","","","","","",""
"image-keyboard-response","283","344741","0.0-3.0-6.0-1.0-0.49","5d6494874e9aae0019598b14","6662009ae78f21dd82fcd179","66620c7b55529e3640da8859","465","","f","","","","","","","","./tasks/HMM-beads/Images/NewTrialBC.png","lowH","1","49","1","0","0","0","true","",""
"image-keyboard-response","284","345056","0.0-3.0-6.0-1.0-1.49","5d6494874e9aae0019598b14","6662009ae78f21dd82fcd179","66620c7b55529e3640da8859","null","","null","","","","","","","","./tasks/HMM-beads/Images/BlackBeadChoice.png","","","","","","","","","",""
"image-keyboard-response","285","345560","0.0-3.0-6.0-1.0-2.49","5d6494874e9aae0019598b14","6662009ae78f21dd82fcd179","66620c7b55529e3640da8859","null","","null","","","","","","","","./tasks/HMM-beads/Images/BlackBeadChoiceCorrect.png","","","","","","","","","",""
"image-keyboard-response","286","345740","0.0-3.0-6.0-1.0-0.50","5d6494874e9aae0019598b14","6662009ae78f21dd82fcd179","66620c7b55529e3640da8859","179","","f","","","","","","","","./tasks/HMM-beads/Images/NewTrialBC.png","lowH","1","50","1","1","0","0","false","",""
"image-keyboard-response","287","346048","0.0-3.0-6.0-1.0-1.50","5d6494874e9aae0019598b14","6662009ae78f21dd82fcd179","66620c7b55529e3640da8859","null","","null","","","","","","","","./tasks/HMM-beads/Images/BlackBeadChoice.png","","","","","","","","","",""
"image-keyboard-response","288","346559","0.0-3.0-6.0-1.0-2.50","5d6494874e9aae0019598b14","6662009ae78f21dd82fcd179","66620c7b55529e3640da8859","null","","null","","","","","","","","./tasks/HMM-beads/Images/BlackBeadChoiceWrong.png","","","","","","","","","",""
"image-keyboard-response","289","346724","0.0-3.0-6.0-1.0-0.51","5d6494874e9aae0019598b14","6662009ae78f21dd82fcd179","66620c7b55529e3640da8859","164","","f","","","","","","","","./tasks/HMM-beads/Images/NewTrialWC.png","lowH","1","51","1","1","1","0","false","",""
"image-keyboard-response","290","347031","0.0-3.0-6.0-1.0-1.51","5d6494874e9aae0019598b14","6662009ae78f21dd82fcd179","66620c7b55529e3640da8859","null","","null","","","","","","","","./tasks/HMM-beads/Images/BlackBeadChoice.png","","","","","","","","","",""
"image-keyboard-response","291","347535","0.0-3.0-6.0-1.0-2.51","5d6494874e9aae0019598b14","6662009ae78f21dd82fcd179","66620c7b55529e3640da8859","null","","null","","","","","","","","./tasks/HMM-beads/Images/BlackBeadChoiceWrong.png","","","","","","","","","",""
"image-keyboard-response","292","347653","0.0-3.0-6.0-1.0-0.52","5d6494874e9aae0019598b14","6662009ae78f21dd82fcd179","66620c7b55529e3640da8859","117","","j","","","","","","","","./tasks/HMM-beads/Images/NewTrialWC.png","lowH","1","52","1","1","1","1","true","",""
"image-keyboard-response","293","347965","0.0-3.0-6.0-1.0-1.52","5d6494874e9aae0019598b14","6662009ae78f21dd82fcd179","66620c7b55529e3640da8859","null","","null","","","","","","","","./tasks/HMM-beads/Images/WhiteBeadChoice.png","","","","","","","","","",""
"image-keyboard-response","294","348473","0.0-3.0-6.0-1.0-2.52","5d6494874e9aae0019598b14","6662009ae78f21dd82fcd179","66620c7b55529e3640da8859","null","","null","","","","","","","","./tasks/HMM-beads/Images/WhiteBeadChoiceCorrect.png","","","","","","","","","",""
"image-keyboard-response","295","348621","0.0-3.0-6.0-1.0-0.53","5d6494874e9aae0019598b14","6662009ae78f21dd82fcd179","66620c7b55529e3640da8859","146","","j","","","","","","","","./tasks/HMM-beads/Images/NewTrialWC.png","lowH","1","53","1","1","1","1","true","",""
"image-keyboard-response","296","348932","0.0-3.0-6.0-1.0-1.53","5d6494874e9aae0019598b14","6662009ae78f21dd82fcd179","66620c7b55529e3640da8859","null","","null","","","","","","","","./tasks/HMM-beads/Images/WhiteBeadChoice.png","","","","","","","","","",""
"image-keyboard-response","297","349444","0.0-3.0-6.0-1.0-2.53","5d6494874e9aae0019598b14","6662009ae78f21dd82fcd179","66620c7b55529e3640da8859","null","","null","","","","","","","","./tasks/HMM-beads/Images/WhiteBeadChoiceCorrect.png","","","","","","","","","",""
"image-keyboard-response","298","349524","0.0-3.0-6.0-1.0-0.54","5d6494874e9aae0019598b14","6662009ae78f21dd82fcd179","66620c7b55529e3640da8859","80","","j","","","","","","","","./tasks/HMM-beads/Images/NewTrialWC.png","lowH","1","54","1","1","1","1","true","",""
"image-keyboard-response","299","349830","0.0-3.0-6.0-1.0-1.54","5d6494874e9aae0019598b14","6662009ae78f21dd82fcd179","66620c7b55529e3640da8859","null","","null","","","","","","","","./tasks/HMM-beads/Images/WhiteBeadChoice.png","","","","","","","","","",""
"image-keyboard-response","300","350339","0.0-3.0-6.0-1.0-2.54","5d6494874e9aae0019598b14","6662009ae78f21dd82fcd179","66620c7b55529e3640da8859","null","","null","","","","","","","","./tasks/HMM-beads/Images/WhiteBeadChoiceCorrect.png","","","","","","","","","",""
"image-keyboard-response","301","350484","0.0-3.0-6.0-1.0-0.55","5d6494874e9aae0019598b14","6662009ae78f21dd82fcd179","66620c7b55529e3640da8859","144","","j","","","","","","","","./tasks/HMM-beads/Images/NewTrialWC.png","lowH","1","55","1","1","1","1","true","",""
"image-keyboard-response","302","350786","0.0-3.0-6.0-1.0-1.55","5d6494874e9aae0019598b14","6662009ae78f21dd82fcd179","66620c7b55529e3640da8859","null","","null","","","","","","","","./tasks/HMM-beads/Images/WhiteBeadChoice.png","","","","","","","","","",""
"image-keyboard-response","303","351297","0.0-3.0-6.0-1.0-2.55","5d6494874e9aae0019598b14","6662009ae78f21dd82fcd179","66620c7b55529e3640da8859","null","","null","","","","","","","","./tasks/HMM-beads/Images/WhiteBeadChoiceCorrect.png","","","","","","","","","",""
"image-keyboard-response","304","351492","0.0-3.0-6.0-1.0-0.56","5d6494874e9aae0019598b14","6662009ae78f21dd82fcd179","66620c7b55529e3640da8859","194","","j","","","","","","","","./tasks/HMM-beads/Images/NewTrialWC.png","lowH","1","56","1","1","1","1","true","",""
"image-keyboard-response","305","351798","0.0-3.0-6.0-1.0-1.56","5d6494874e9aae0019598b14","6662009ae78f21dd82fcd179","66620c7b55529e3640da8859","null","","null","","","","","","","","./tasks/HMM-beads/Images/WhiteBeadChoice.png","","","","","","","","","",""
"image-keyboard-response","306","352302","0.0-3.0-6.0-1.0-2.56","5d6494874e9aae0019598b14","6662009ae78f21dd82fcd179","66620c7b55529e3640da8859","null","","null","","","","","","","","./tasks/HMM-beads/Images/WhiteBeadChoiceCorrect.png","","","","","","","","","",""
"image-keyboard-response","307","362373","0.0-3.0-6.0-1.0-0.57","5d6494874e9aae0019598b14","6662009ae78f21dd82fcd179","66620c7b55529e3640da8859","10070","","j","","","","","","","","./tasks/HMM-beads/Images/NewTrialWC.png","lowH","1","57","1","1","1","1","true","",""
"image-keyboard-response","308","362678","0.0-3.0-6.0-1.0-1.57","5d6494874e9aae0019598b14","6662009ae78f21dd82fcd179","66620c7b55529e3640da8859","null","","null","","","","","","","","./tasks/HMM-beads/Images/WhiteBeadChoice.png","","","","","","","","","",""
"image-keyboard-response","309","363190","0.0-3.0-6.0-1.0-2.57","5d6494874e9aae0019598b14","6662009ae78f21dd82fcd179","66620c7b55529e3640da8859","null","","null","","","","","","","","./tasks/HMM-beads/Images/WhiteBeadChoiceCorrect.png","","","","","","","","","",""
"image-keyboard-response","310","363252","0.0-3.0-6.0-1.0-0.58","5d6494874e9aae0019598b14","6662009ae78f21dd82fcd179","66620c7b55529e3640da8859","61","","j","","","","","","","","./tasks/HMM-beads/Images/NewTrialWC.png","lowH","1","58","1","1","1","1","true","",""
"image-keyboard-response","311","363555","0.0-3.0-6.0-1.0-1.58","5d6494874e9aae0019598b14","6662009ae78f21dd82fcd179","66620c7b55529e3640da8859","null","","null","","","","","","","","./tasks/HMM-beads/Images/WhiteBeadChoice.png","","","","","","","","","",""
"image-keyboard-response","312","364068","0.0-3.0-6.0-1.0-2.58","5d6494874e9aae0019598b14","6662009ae78f21dd82fcd179","66620c7b55529e3640da8859","null","","null","","","","","","","","./tasks/HMM-beads/Images/WhiteBeadChoiceCorrect.png","","","","","","","","","",""
"image-keyboard-response","313","364172","0.0-3.0-6.0-1.0-0.59","5d6494874e9aae0019598b14","6662009ae78f21dd82fcd179","66620c7b55529e3640da8859","104","","j","","","","","","","","./tasks/HMM-beads/Images/NewTrialWC.png","lowH","1","59","1","0","1","1","false","",""
"image-keyboard-response","314","364479","0.0-3.0-6.0-1.0-1.59","5d6494874e9aae0019598b14","6662009ae78f21dd82fcd179","66620c7b55529e3640da8859","null","","null","","","","","","","","./tasks/HMM-beads/Images/WhiteBeadChoice.png","","","","","","","","","",""
"image-keyboard-response","315","364988","0.0-3.0-6.0-1.0-2.59","5d6494874e9aae0019598b14","6662009ae78f21dd82fcd179","66620c7b55529e3640da8859","null","","null","","","","","","","","./tasks/HMM-beads/Images/WhiteBeadChoiceWrong.png","","","","","","","","","",""
"image-keyboard-response","316","365348","0.0-3.0-6.0-1.0-0.60","5d6494874e9aae0019598b14","6662009ae78f21dd82fcd179","66620c7b55529e3640da8859","359","","j","","","","","","","","./tasks/HMM-beads/Images/NewTrialBC.png","lowH","1","60","1","1","0","1","true","",""
"image-keyboard-response","317","365657","0.0-3.0-6.0-1.0-1.60","5d6494874e9aae0019598b14","6662009ae78f21dd82fcd179","66620c7b55529e3640da8859","null","","null","","","","","","","","./tasks/HMM-beads/Images/WhiteBeadChoice.png","","","","","","","","","",""
"image-keyboard-response","318","366166","0.0-3.0-6.0-1.0-2.60","5d6494874e9aae0019598b14","6662009ae78f21dd82fcd179","66620c7b55529e3640da8859","null","","null","","","","","","","","./tasks/HMM-beads/Images/WhiteBeadChoiceCorrect.png","","","","","","","","","",""
"image-keyboard-response","319","366180","0.0-3.0-6.0-1.0-0.61","5d6494874e9aae0019598b14","6662009ae78f21dd82fcd179","66620c7b55529e3640da8859","13","","j","","","","","","","","./tasks/HMM-beads/Images/NewTrialWC.png","lowH","1","61","1","1","1","1","true","",""
"image-keyboard-response","320","366496","0.0-3.0-6.0-1.0-1.61","5d6494874e9aae0019598b14","6662009ae78f21dd82fcd179","66620c7b55529e3640da8859","null","","null","","","","","","","","./tasks/HMM-beads/Images/WhiteBeadChoice.png","","","","","","","","","",""
"image-keyboard-response","321","366998","0.0-3.0-6.0-1.0-2.61","5d6494874e9aae0019598b14","6662009ae78f21dd82fcd179","66620c7b55529e3640da8859","null","","null","","","","","","","","./tasks/HMM-beads/Images/WhiteBeadChoiceCorrect.png","","","","","","","","","",""
"image-keyboard-response","322","367109","0.0-3.0-6.0-1.0-0.62","5d6494874e9aae0019598b14","6662009ae78f21dd82fcd179","66620c7b55529e3640da8859","111","","j","","","","","","","","./tasks/HMM-beads/Images/NewTrialWC.png","lowH","1","62","1","0","1","1","false","",""
"image-keyboard-response","323","367424","0.0-3.0-6.0-1.0-1.62","5d6494874e9aae0019598b14","6662009ae78f21dd82fcd179","66620c7b55529e3640da8859","null","","null","","","","","","","","./tasks/HMM-beads/Images/WhiteBeadChoice.png","","","","","","","","","",""
"image-keyboard-response","324","367933","0.0-3.0-6.0-1.0-2.62","5d6494874e9aae0019598b14","6662009ae78f21dd82fcd179","66620c7b55529e3640da8859","null","","null","","","","","","","","./tasks/HMM-beads/Images/WhiteBeadChoiceWrong.png","","","","","","","","","",""
"image-keyboard-response","325","368965","0.0-3.0-6.0-1.0-0.63","5d6494874e9aae0019598b14","6662009ae78f21dd82fcd179","66620c7b55529e3640da8859","1031","","j","","","","","","","","./tasks/HMM-beads/Images/NewTrialBC.png","lowH","1","63","1","1","0","1","true","",""
"image-keyboard-response","326","369280","0.0-3.0-6.0-1.0-1.63","5d6494874e9aae0019598b14","6662009ae78f21dd82fcd179","66620c7b55529e3640da8859","null","","null","","","","","","","","./tasks/HMM-beads/Images/WhiteBeadChoice.png","","","","","","","","","",""
"image-keyboard-response","327","369787","0.0-3.0-6.0-1.0-2.63","5d6494874e9aae0019598b14","6662009ae78f21dd82fcd179","66620c7b55529e3640da8859","null","","null","","","","","","","","./tasks/HMM-beads/Images/WhiteBeadChoiceCorrect.png","","","","","","","","","",""
"image-keyboard-response","328","369956","0.0-3.0-6.0-1.0-0.64","5d6494874e9aae0019598b14","6662009ae78f21dd82fcd179","66620c7b55529e3640da8859","169","","j","","","","","","","","./tasks/HMM-beads/Images/NewTrialWC.png","lowH","1","64","1","1","1","1","true","",""
"image-keyboard-response","329","370258","0.0-3.0-6.0-1.0-1.64","5d6494874e9aae0019598b14","6662009ae78f21dd82fcd179","66620c7b55529e3640da8859","null","","null","","","","","","","","./tasks/HMM-beads/Images/WhiteBeadChoice.png","","","","","","","","","",""
"image-keyboard-response","330","370767","0.0-3.0-6.0-1.0-2.64","5d6494874e9aae0019598b14","6662009ae78f21dd82fcd179","66620c7b55529e3640da8859","null","","null","","","","","","","","./tasks/HMM-beads/Images/WhiteBeadChoiceCorrect.png","","","","","","","","","",""
"image-keyboard-response","331","370949","0.0-3.0-6.0-1.0-0.65","5d6494874e9aae0019598b14","6662009ae78f21dd82fcd179","66620c7b55529e3640da8859","180","","j","","","","","","","","./tasks/HMM-beads/Images/NewTrialWC.png","lowH","1","65","1","1","1","1","true","",""
"image-keyboard-response","332","371260","0.0-3.0-6.0-1.0-1.65","5d6494874e9aae0019598b14","6662009ae78f21dd82fcd179","66620c7b55529e3640da8859","null","","null","","","","","","","","./tasks/HMM-beads/Images/WhiteBeadChoice.png","","","","","","","","","",""
"image-keyboard-response","333","371765","0.0-3.0-6.0-1.0-2.65","5d6494874e9aae0019598b14","6662009ae78f21dd82fcd179","66620c7b55529e3640da8859","null","","null","","","","","","","","./tasks/HMM-beads/Images/WhiteBeadChoiceCorrect.png","","","","","","","","","",""
"image-keyboard-response","334","371933","0.0-3.0-6.0-1.0-0.66","5d6494874e9aae0019598b14","6662009ae78f21dd82fcd179","66620c7b55529e3640da8859","167","","j","","","","","","","","./tasks/HMM-beads/Images/NewTrialWC.png","lowH","1","66","1","1","1","1","true","",""
"image-keyboard-response","335","372233","0.0-3.0-6.0-1.0-1.66","5d6494874e9aae0019598b14","6662009ae78f21dd82fcd179","66620c7b55529e3640da8859","null","","null","","","","","","","","./tasks/HMM-beads/Images/WhiteBeadChoice.png","","","","","","","","","",""
"image-keyboard-response","336","372738","0.0-3.0-6.0-1.0-2.66","5d6494874e9aae0019598b14","6662009ae78f21dd82fcd179","66620c7b55529e3640da8859","null","","null","","","","","","","","./tasks/HMM-beads/Images/WhiteBeadChoiceCorrect.png","","","","","","","","","",""
"image-keyboard-response","337","372853","0.0-3.0-6.0-1.0-0.67","5d6494874e9aae0019598b14","6662009ae78f21dd82fcd179","66620c7b55529e3640da8859","114","","j","","","","","","","","./tasks/HMM-beads/Images/NewTrialWC.png","lowH","1","67","1","0","1","1","false","",""
"image-keyboard-response","338","373166","0.0-3.0-6.0-1.0-1.67","5d6494874e9aae0019598b14","6662009ae78f21dd82fcd179","66620c7b55529e3640da8859","null","","null","","","","","","","","./tasks/HMM-beads/Images/WhiteBeadChoice.png","","","","","","","","","",""
"image-keyboard-response","339","373683","0.0-3.0-6.0-1.0-2.67","5d6494874e9aae0019598b14","6662009ae78f21dd82fcd179","66620c7b55529e3640da8859","null","","null","","","","","","","","./tasks/HMM-beads/Images/WhiteBeadChoiceWrong.png","","","","","","","","","",""
"image-keyboard-response","340","374092","0.0-3.0-6.0-1.0-0.68","5d6494874e9aae0019598b14","6662009ae78f21dd82fcd179","66620c7b55529e3640da8859","404","","j","","","","","","","","./tasks/HMM-beads/Images/NewTrialBC.png","lowH","1","68","1","1","0","1","true","",""
"image-keyboard-response","341","374401","0.0-3.0-6.0-1.0-1.68","5d6494874e9aae0019598b14","6662009ae78f21dd82fcd179","66620c7b55529e3640da8859","null","","null","","","","","","","","./tasks/HMM-beads/Images/WhiteBeadChoice.png","","","","","","","","","",""
"image-keyboard-response","342","374917","0.0-3.0-6.0-1.0-2.68","5d6494874e9aae0019598b14","6662009ae78f21dd82fcd179","66620c7b55529e3640da8859","null","","null","","","","","","","","./tasks/HMM-beads/Images/WhiteBeadChoiceCorrect.png","","","","","","","","","",""
"image-keyboard-response","343","374948","0.0-3.0-6.0-1.0-0.69","5d6494874e9aae0019598b14","6662009ae78f21dd82fcd179","66620c7b55529e3640da8859","30","","j","","","","","","","","./tasks/HMM-beads/Images/NewTrialWC.png","lowH","1","69","0","1","1","1","true","",""
"image-keyboard-response","344","375263","0.0-3.0-6.0-1.0-1.69","5d6494874e9aae0019598b14","6662009ae78f21dd82fcd179","66620c7b55529e3640da8859","null","","null","","","","","","","","./tasks/HMM-beads/Images/WhiteBeadChoice.png","","","","","","","","","",""
"image-keyboard-response","345","375767","0.0-3.0-6.0-1.0-2.69","5d6494874e9aae0019598b14","6662009ae78f21dd82fcd179","66620c7b55529e3640da8859","null","","null","","","","","","","","./tasks/HMM-beads/Images/WhiteBeadChoiceCorrect.png","","","","","","","","","",""
"image-keyboard-response","346","375901","0.0-3.0-6.0-1.0-0.70","5d6494874e9aae0019598b14","6662009ae78f21dd82fcd179","66620c7b55529e3640da8859","133","","j","","","","","","","","./tasks/HMM-beads/Images/NewTrialWC.png","lowH","1","70","0","1","1","1","true","",""
"image-keyboard-response","347","376209","0.0-3.0-6.0-1.0-1.70","5d6494874e9aae0019598b14","6662009ae78f21dd82fcd179","66620c7b55529e3640da8859","null","","null","","","","","","","","./tasks/HMM-beads/Images/WhiteBeadChoice.png","","","","","","","","","",""
"image-keyboard-response","348","376715","0.0-3.0-6.0-1.0-2.70","5d6494874e9aae0019598b14","6662009ae78f21dd82fcd179","66620c7b55529e3640da8859","null","","null","","","","","","","","./tasks/HMM-beads/Images/WhiteBeadChoiceCorrect.png","","","","","","","","","",""
"image-keyboard-response","349","376756","0.0-3.0-6.0-1.0-0.71","5d6494874e9aae0019598b14","6662009ae78f21dd82fcd179","66620c7b55529e3640da8859","40","","j","","","","","","","","./tasks/HMM-beads/Images/NewTrialWC.png","lowH","1","71","0","0","1","1","false","",""
"image-keyboard-response","350","377063","0.0-3.0-6.0-1.0-1.71","5d6494874e9aae0019598b14","6662009ae78f21dd82fcd179","66620c7b55529e3640da8859","null","","null","","","","","","","","./tasks/HMM-beads/Images/WhiteBeadChoice.png","","","","","","","","","",""
"image-keyboard-response","351","377572","0.0-3.0-6.0-1.0-2.71","5d6494874e9aae0019598b14","6662009ae78f21dd82fcd179","66620c7b55529e3640da8859","null","","null","","","","","","","","./tasks/HMM-beads/Images/WhiteBeadChoiceWrong.png","","","","","","","","","",""
"image-keyboard-response","352","377621","0.0-3.0-6.0-1.0-0.72","5d6494874e9aae0019598b14","6662009ae78f21dd82fcd179","66620c7b55529e3640da8859","48","","j","","","","","","","","./tasks/HMM-beads/Images/NewTrialBC.png","lowH","1","72","0","0","0","1","false","",""
"image-keyboard-response","353","377932","0.0-3.0-6.0-1.0-1.72","5d6494874e9aae0019598b14","6662009ae78f21dd82fcd179","66620c7b55529e3640da8859","null","","null","","","","","","","","./tasks/HMM-beads/Images/WhiteBeadChoice.png","","","","","","","","","",""
"image-keyboard-response","354","378435","0.0-3.0-6.0-1.0-2.72","5d6494874e9aae0019598b14","6662009ae78f21dd82fcd179","66620c7b55529e3640da8859","null","","null","","","","","","","","./tasks/HMM-beads/Images/WhiteBeadChoiceWrong.png","","","","","","","","","",""
"image-keyboard-response","355","379188","0.0-3.0-6.0-1.0-0.73","5d6494874e9aae0019598b14","6662009ae78f21dd82fcd179","66620c7b55529e3640da8859","752","","j","","","","","","","","./tasks/HMM-beads/Images/NewTrialBC.png","lowH","1","73","0","1","0","1","true","",""
"image-keyboard-response","356","379501","0.0-3.0-6.0-1.0-1.73","5d6494874e9aae0019598b14","6662009ae78f21dd82fcd179","66620c7b55529e3640da8859","null","","null","","","","","","","","./tasks/HMM-beads/Images/WhiteBeadChoice.png","","","","","","","","","",""
"image-keyboard-response","357","380004","0.0-3.0-6.0-1.0-2.73","5d6494874e9aae0019598b14","6662009ae78f21dd82fcd179","66620c7b55529e3640da8859","null","","null","","","","","","","","./tasks/HMM-beads/Images/WhiteBeadChoiceCorrect.png","","","","","","","","","",""
"image-keyboard-response","358","380061","0.0-3.0-6.0-1.0-0.74","5d6494874e9aae0019598b14","6662009ae78f21dd82fcd179","66620c7b55529e3640da8859","56","","j","","","","","","","","./tasks/HMM-beads/Images/NewTrialWC.png","lowH","1","74","0","0","1","1","false","",""
"image-keyboard-response","359","380366","0.0-3.0-6.0-1.0-1.74","5d6494874e9aae0019598b14","6662009ae78f21dd82fcd179","66620c7b55529e3640da8859","null","","null","","","","","","","","./tasks/HMM-beads/Images/WhiteBeadChoice.png","","","","","","","","","",""
"image-keyboard-response","360","380876","0.0-3.0-6.0-1.0-2.74","5d6494874e9aae0019598b14","6662009ae78f21dd82fcd179","66620c7b55529e3640da8859","null","","null","","","","","","","","./tasks/HMM-beads/Images/WhiteBeadChoiceWrong.png","","","","","","","","","",""
"image-keyboard-response","361","380957","0.0-3.0-6.0-1.0-0.75","5d6494874e9aae0019598b14","6662009ae78f21dd82fcd179","66620c7b55529e3640da8859","80","","j","","","","","","","","./tasks/HMM-beads/Images/NewTrialBC.png","lowH","1","75","0","1","0","1","true","",""
"image-keyboard-response","362","381270","0.0-3.0-6.0-1.0-1.75","5d6494874e9aae0019598b14","6662009ae78f21dd82fcd179","66620c7b55529e3640da8859","null","","null","","","","","","","","./tasks/HMM-beads/Images/WhiteBeadChoice.png","","","","","","","","","",""
"image-keyboard-response","363","381780","0.0-3.0-6.0-1.0-2.75","5d6494874e9aae0019598b14","6662009ae78f21dd82fcd179","66620c7b55529e3640da8859","null","","null","","","","","","","","./tasks/HMM-beads/Images/WhiteBeadChoiceCorrect.png","","","","","","","","","",""
"image-keyboard-response","364","381797","0.0-3.0-6.0-1.0-0.76","5d6494874e9aae0019598b14","6662009ae78f21dd82fcd179","66620c7b55529e3640da8859","17","","j","","","","","","","","./tasks/HMM-beads/Images/NewTrialWC.png","lowH","1","76","0","1","1","1","true","",""
"image-keyboard-response","365","382112","0.0-3.0-6.0-1.0-1.76","5d6494874e9aae0019598b14","6662009ae78f21dd82fcd179","66620c7b55529e3640da8859","null","","null","","","","","","","","./tasks/HMM-beads/Images/WhiteBeadChoice.png","","","","","","","","","",""
"image-keyboard-response","366","382632","0.0-3.0-6.0-1.0-2.76","5d6494874e9aae0019598b14","6662009ae78f21dd82fcd179","66620c7b55529e3640da8859","null","","null","","","","","","","","./tasks/HMM-beads/Images/WhiteBeadChoiceCorrect.png","","","","","","","","","",""
"image-keyboard-response","367","382717","0.0-3.0-6.0-1.0-0.77","5d6494874e9aae0019598b14","6662009ae78f21dd82fcd179","66620c7b55529e3640da8859","84","","j","","","","","","","","./tasks/HMM-beads/Images/NewTrialWC.png","lowH","1","77","0","0","1","1","false","",""
"image-keyboard-response","368","383026","0.0-3.0-6.0-1.0-1.77","5d6494874e9aae0019598b14","6662009ae78f21dd82fcd179","66620c7b55529e3640da8859","null","","null","","","","","","","","./tasks/HMM-beads/Images/WhiteBeadChoice.png","","","","","","","","","",""
"image-keyboard-response","369","383535","0.0-3.0-6.0-1.0-2.77","5d6494874e9aae0019598b14","6662009ae78f21dd82fcd179","66620c7b55529e3640da8859","null","","null","","","","","","","","./tasks/HMM-beads/Images/WhiteBeadChoiceWrong.png","","","","","","","","","",""
"image-keyboard-response","370","383564","0.0-3.0-6.0-1.0-0.78","5d6494874e9aae0019598b14","6662009ae78f21dd82fcd179","66620c7b55529e3640da8859","28","","j","","","","","","","","./tasks/HMM-beads/Images/NewTrialBC.png","lowH","1","78","0","0","0","1","false","",""
"image-keyboard-response","371","383866","0.0-3.0-6.0-1.0-1.78","5d6494874e9aae0019598b14","6662009ae78f21dd82fcd179","66620c7b55529e3640da8859","null","","null","","","","","","","","./tasks/HMM-beads/Images/WhiteBeadChoice.png","","","","","","","","","",""
"image-keyboard-response","372","384378","0.0-3.0-6.0-1.0-2.78","5d6494874e9aae0019598b14","6662009ae78f21dd82fcd179","66620c7b55529e3640da8859","null","","null","","","","","","","","./tasks/HMM-beads/Images/WhiteBeadChoiceWrong.png","","","","","","","","","",""
"image-keyboard-response","373","384405","0.0-3.0-6.0-1.0-0.79","5d6494874e9aae0019598b14","6662009ae78f21dd82fcd179","66620c7b55529e3640da8859","26","","j","","","","","","","","./tasks/HMM-beads/Images/NewTrialBC.png","lowH","1","79","0","0","0","1","false","",""
"image-keyboard-response","374","384712","0.0-3.0-6.0-1.0-1.79","5d6494874e9aae0019598b14","6662009ae78f21dd82fcd179","66620c7b55529e3640da8859","null","","null","","","","","","","","./tasks/HMM-beads/Images/WhiteBeadChoice.png","","","","","","","","","",""
