"trial_type","trial_index","time_elapsed","internal_node_id","subject_id","study_id","session_id","rt","url","response","question_order","view_history","success","timeout","failed_images","failed_audio","failed_video","stimulus","block","block_rep","trial_number","jar","bead","previous_bead","choice","correct","lowH_score","total_bonus"
"pavlovia","0","1210","0.0-0.0","5edcadb5e81cb9000c4b07e0","6662009ae78f21dd82fcd179","66620a1bacf5a186eab742dc","","","","","","","","","","","","","","","","","","","","",""
"external-html","1","69693","0.0-1.0-0.0","5edcadb5e81cb9000c4b07e0","6662009ae78f21dd82fcd179","66620a1bacf5a186eab742dc","68331","new_consent.html","","","","","","","","","","","","","","","","","","",""
"survey-multi-choice","2","106442","0.0-1.0-1.0","5edcadb5e81cb9000c4b07e0","6662009ae78f21dd82fcd179","66620a1bacf5a186eab742dc","36747","","{""Q0"":""Gender not listed"",""Q1"":""Other""}","[0,1]","","","","","","","","","","","","","","","","",""
"survey-text","3","109902","0.0-1.0-2.0","5edcadb5e81cb9000c4b07e0","6662009ae78f21dd82fcd179","66620a1bacf5a186eab742dc","3458","","{""Q0"":""22""}","","","","","","","","","","","","","","","","","",""
"instructions","4","111353","0.0-2.0","5edcadb5e81cb9000c4b07e0","6662009ae78f21dd82fcd179","66620a1bacf5a186eab742dc","1349","","","","[{""page_index"":0,""viewing_time"":1349}]","","","","","","","","","","","","","","","",""
"preload","5","112685","0.0-3.0-0.0","5edcadb5e81cb9000c4b07e0","6662009ae78f21dd82fcd179","66620a1bacf5a186eab742dc","","","","","","true","false","[]","[]","[]","","","","","","","","","","",""
"instructions","6","342924","0.0-3.0-1.0","5edcadb5e81cb9000c4b07e0","6662009ae78f21dd82fcd179","66620a1bacf5a186eab742dc","230238","","","","[{""page_index"":0,""viewing_time"":67170},{""page_index"":1,""viewing_time"":16572},{""page_index"":2,""viewing_time"":3378},{""page_index"":3,""viewing_time"":5434},{""page_index"":4,""viewing_time"":7981},{""page_index"":5,""viewing_time"":25292},{""page_index"":6,""viewing_time"":50195},{""page_index"":7,""viewing_time"":7466},{""page_index"":6,""viewing_time"":4062},{""page_index"":7,""viewing_time"":2745},{""page_index"":8,""viewing_time"":3991},{""page_index"":9,""viewing_time"":3541},{""page_index"":10,""viewing_time"":11365},{""page_index"":11,""viewing_time"":21047}]","","","","","","","","","","","","","","","",""
"html-button-response","7","345280","0.0-3.0-2.0-0.0-0.0","5edcadb5e81cb9000c4b07e0","6662009ae78f21dd82fcd179","66620a1bacf5a186eab742dc","2356","","1","","","","","","","","<div align=center>Your goal is to predict…?<br><br></div>","","","","","","","","","",""
"html-button-response","8","391790","0.0-3.0-2.0-1.0-0.0","5edcadb5e81cb9000c4b07e0","6662009ae78f21dd82fcd179","66620a1bacf5a186eab742dc","44635","","2","","","","","","","","<div align=center>In the jar with mostly white beads, there are ___% white beads and ___% black beads?<br><br></div>","","","","","","","","","",""
"html-button-response","9","402212","0.0-3.0-2.0-2.0-0.0","5edcadb5e81cb9000c4b07e0","6662009ae78f21dd82fcd179","66620a1bacf5a186eab742dc","9138","","0","","","","","","","","<div align=center>When there is a 1% probability that the jars will switch, the next bead will most likely be drawn from the…<br><br></div>","","","","","","","","","",""
"html-button-response","10","420909","0.0-3.0-2.0-3.0-0.0","5edcadb5e81cb9000c4b07e0","6662009ae78f21dd82fcd179","66620a1bacf5a186eab742dc","17393","","1","","","","","","","","<div align=center>When there is a 99% probability that the jars will switch, the next bead will most likely be drawn from the…<br><br></div>","","","","","","","","","",""
"instructions","11","466137","0.0-3.0-3.0","5edcadb5e81cb9000c4b07e0","6662009ae78f21dd82fcd179","66620a1bacf5a186eab742dc","43950","","","","[{""page_index"":0,""viewing_time"":43949}]","","","","","","","","","","","","","","","",""
"html-keyboard-response","12","474845","0.0-3.0-4.0-0.0","5edcadb5e81cb9000c4b07e0","6662009ae78f21dd82fcd179","66620a1bacf5a186eab742dc","8707",""," ","","","","","","","","<div align=center>In this practice block, there will be a <b>1% chance</b> that the jar on the next trial will be different from the jar on the current trial.<br><br></div>","","","","","","","","","",""
"image-keyboard-response","13","478524","0.0-3.0-4.0-1.0-0.0","5edcadb5e81cb9000c4b07e0","6662009ae78f21dd82fcd179","66620a1bacf5a186eab742dc","3678","","f","","","","","","","","./tasks/HMM-beads/Images/NoChoice.png","practice","0","0","0","0","9","0","true","",""
"image-keyboard-response","14","478840","0.0-3.0-4.0-1.0-1.0","5edcadb5e81cb9000c4b07e0","6662009ae78f21dd82fcd179","66620a1bacf5a186eab742dc","null","","null","","","","","","","","./tasks/HMM-beads/Images/BlackBeadChoice.png","","","","","","","","","",""
"image-keyboard-response","15","479348","0.0-3.0-4.0-1.0-2.0","5edcadb5e81cb9000c4b07e0","6662009ae78f21dd82fcd179","66620a1bacf5a186eab742dc","null","","null","","","","","","","","./tasks/HMM-beads/Images/BlackBeadChoiceCorrect.png","","","","","","","","","",""
"image-keyboard-response","16","480404","0.0-3.0-4.0-1.0-0.1","5edcadb5e81cb9000c4b07e0","6662009ae78f21dd82fcd179","66620a1bacf5a186eab742dc","1055","","f","","","","","","","","./tasks/HMM-beads/Images/NewTrialBC.png","practice","0","1","0","0","0","0","true","",""
"image-keyboard-response","17","480719","0.0-3.0-4.0-1.0-1.1","5edcadb5e81cb9000c4b07e0","6662009ae78f21dd82fcd179","66620a1bacf5a186eab742dc","null","","null","","","","","","","","./tasks/HMM-beads/Images/BlackBeadChoice.png","","","","","","","","","",""
"image-keyboard-response","18","481221","0.0-3.0-4.0-1.0-2.1","5edcadb5e81cb9000c4b07e0","6662009ae78f21dd82fcd179","66620a1bacf5a186eab742dc","null","","null","","","","","","","","./tasks/HMM-beads/Images/BlackBeadChoiceCorrect.png","","","","","","","","","",""
"image-keyboard-response","19","482156","0.0-3.0-4.0-1.0-0.2","5edcadb5e81cb9000c4b07e0","6662009ae78f21dd82fcd179","66620a1bacf5a186eab742dc","935","","f","","","","","","","","./tasks/HMM-beads/Images/NewTrialBC.png","practice","0","2","0","1","0","0","false","",""
"image-keyboard-response","20","482464","0.0-3.0-4.0-1.0-1.2","5edcadb5e81cb9000c4b07e0","6662009ae78f21dd82fcd179","66620a1bacf5a186eab742dc","null","","null","","","","","","","","./tasks/HMM-beads/Images/BlackBeadChoice.png","","","","","","","","","",""
"image-keyboard-response","21","482972","0.0-3.0-4.0-1.0-2.2","5edcadb5e81cb9000c4b07e0","6662009ae78f21dd82fcd179","66620a1bacf5a186eab742dc","null","","null","","","","","","","","./tasks/HMM-beads/Images/BlackBeadChoiceWrong.png","","","","","","","","","",""
"image-keyboard-response","22","485772","0.0-3.0-4.0-1.0-0.3","5edcadb5e81cb9000c4b07e0","6662009ae78f21dd82fcd179","66620a1bacf5a186eab742dc","2799","","f","","","","","","","","./tasks/HMM-beads/Images/NewTrialWC.png","practice","0","3","0","0","1","0","true","",""
"image-keyboard-response","23","486088","0.0-3.0-4.0-1.0-1.3","5edcadb5e81cb9000c4b07e0","6662009ae78f21dd82fcd179","66620a1bacf5a186eab742dc","null","","null","","","","","","","","./tasks/HMM-beads/Images/BlackBeadChoice.png","","","","","","","","","",""
"image-keyboard-response","24","486598","0.0-3.0-4.0-1.0-2.3","5edcadb5e81cb9000c4b07e0","6662009ae78f21dd82fcd179","66620a1bacf5a186eab742dc","null","","null","","","","","","","","./tasks/HMM-beads/Images/BlackBeadChoiceCorrect.png","","","","","","","","","",""
"image-keyboard-response","25","487236","0.0-3.0-4.0-1.0-0.4","5edcadb5e81cb9000c4b07e0","6662009ae78f21dd82fcd179","66620a1bacf5a186eab742dc","638","","f","","","","","","","","./tasks/HMM-beads/Images/NewTrialBC.png","practice","0","4","0","0","0","0","true","",""
"image-keyboard-response","26","487545","0.0-3.0-4.0-1.0-1.4","5edcadb5e81cb9000c4b07e0","6662009ae78f21dd82fcd179","66620a1bacf5a186eab742dc","null","","null","","","","","","","","./tasks/HMM-beads/Images/BlackBeadChoice.png","","","","","","","","","",""
"image-keyboard-response","27","488055","0.0-3.0-4.0-1.0-2.4","5edcadb5e81cb9000c4b07e0","6662009ae78f21dd82fcd179","66620a1bacf5a186eab742dc","null","","null","","","","","","","","./tasks/HMM-beads/Images/BlackBeadChoiceCorrect.png","","","","","","","","","",""
"image-keyboard-response","28","488628","0.0-3.0-4.0-1.0-0.5","5edcadb5e81cb9000c4b07e0","6662009ae78f21dd82fcd179","66620a1bacf5a186eab742dc","572","","f","","","","","","","","./tasks/HMM-beads/Images/NewTrialBC.png","practice","0","5","0","1","0","0","false","",""
"image-keyboard-response","29","488941","0.0-3.0-4.0-1.0-1.5","5edcadb5e81cb9000c4b07e0","6662009ae78f21dd82fcd179","66620a1bacf5a186eab742dc","null","","null","","","","","","","","./tasks/HMM-beads/Images/BlackBeadChoice.png","","","","","","","","","",""
"image-keyboard-response","30","489454","0.0-3.0-4.0-1.0-2.5","5edcadb5e81cb9000c4b07e0","6662009ae78f21dd82fcd179","66620a1bacf5a186eab742dc","null","","null","","","","","","","","./tasks/HMM-beads/Images/BlackBeadChoiceWrong.png","","","","","","","","","",""
"image-keyboard-response","31","490108","0.0-3.0-4.0-1.0-0.6","5edcadb5e81cb9000c4b07e0","6662009ae78f21dd82fcd179","66620a1bacf5a186eab742dc","654","","f","","","","","","","","./tasks/HMM-beads/Images/NewTrialWC.png","practice","0","6","0","0","1","0","true","",""
"image-keyboard-response","32","490410","0.0-3.0-4.0-1.0-1.6","5edcadb5e81cb9000c4b07e0","6662009ae78f21dd82fcd179","66620a1bacf5a186eab742dc","null","","null","","","","","","","","./tasks/HMM-beads/Images/BlackBeadChoice.png","","","","","","","","","",""
"image-keyboard-response","33","490922","0.0-3.0-4.0-1.0-2.6","5edcadb5e81cb9000c4b07e0","6662009ae78f21dd82fcd179","66620a1bacf5a186eab742dc","null","","null","","","","","","","","./tasks/HMM-beads/Images/BlackBeadChoiceCorrect.png","","","","","","","","","",""
"image-keyboard-response","34","491452","0.0-3.0-4.0-1.0-0.7","5edcadb5e81cb9000c4b07e0","6662009ae78f21dd82fcd179","66620a1bacf5a186eab742dc","529","","f","","","","","","","","./tasks/HMM-beads/Images/NewTrialBC.png","practice","0","7","0","0","0","0","true","",""
"image-keyboard-response","35","491767","0.0-3.0-4.0-1.0-1.7","5edcadb5e81cb9000c4b07e0","6662009ae78f21dd82fcd179","66620a1bacf5a186eab742dc","null","","null","","","","","","","","./tasks/HMM-beads/Images/BlackBeadChoice.png","","","","","","","","","",""
"image-keyboard-response","36","492281","0.0-3.0-4.0-1.0-2.7","5edcadb5e81cb9000c4b07e0","6662009ae78f21dd82fcd179","66620a1bacf5a186eab742dc","null","","null","","","","","","","","./tasks/HMM-beads/Images/BlackBeadChoiceCorrect.png","","","","","","","","","",""
"image-keyboard-response","37","493428","0.0-3.0-4.0-1.0-0.8","5edcadb5e81cb9000c4b07e0","6662009ae78f21dd82fcd179","66620a1bacf5a186eab742dc","1147","","f","","","","","","","","./tasks/HMM-beads/Images/NewTrialBC.png","practice","0","8","0","0","0","0","true","",""
"image-keyboard-response","38","493737","0.0-3.0-4.0-1.0-1.8","5edcadb5e81cb9000c4b07e0","6662009ae78f21dd82fcd179","66620a1bacf5a186eab742dc","null","","null","","","","","","","","./tasks/HMM-beads/Images/BlackBeadChoice.png","","","","","","","","","",""
"image-keyboard-response","39","494248","0.0-3.0-4.0-1.0-2.8","5edcadb5e81cb9000c4b07e0","6662009ae78f21dd82fcd179","66620a1bacf5a186eab742dc","null","","null","","","","","","","","./tasks/HMM-beads/Images/BlackBeadChoiceCorrect.png","","","","","","","","","",""
"image-keyboard-response","40","494620","0.0-3.0-4.0-1.0-0.9","5edcadb5e81cb9000c4b07e0","6662009ae78f21dd82fcd179","66620a1bacf5a186eab742dc","371","","f","","","","","","","","./tasks/HMM-beads/Images/NewTrialBC.png","practice","0","9","0","1","0","0","false","",""
"image-keyboard-response","41","494936","0.0-3.0-4.0-1.0-1.9","5edcadb5e81cb9000c4b07e0","6662009ae78f21dd82fcd179","66620a1bacf5a186eab742dc","null","","null","","","","","","","","./tasks/HMM-beads/Images/BlackBeadChoice.png","","","","","","","","","",""
"image-keyboard-response","42","495449","0.0-3.0-4.0-1.0-2.9","5edcadb5e81cb9000c4b07e0","6662009ae78f21dd82fcd179","66620a1bacf5a186eab742dc","null","","null","","","","","","","","./tasks/HMM-beads/Images/BlackBeadChoiceWrong.png","","","","","","","","","",""
"image-keyboard-response","43","495964","0.0-3.0-4.0-1.0-0.10","5edcadb5e81cb9000c4b07e0","6662009ae78f21dd82fcd179","66620a1bacf5a186eab742dc","515","","f","","","","","","","","./tasks/HMM-beads/Images/NewTrialWC.png","practice","0","10","0","0","1","0","true","",""
"image-keyboard-response","44","496268","0.0-3.0-4.0-1.0-1.10","5edcadb5e81cb9000c4b07e0","6662009ae78f21dd82fcd179","66620a1bacf5a186eab742dc","null","","null","","","","","","","","./tasks/HMM-beads/Images/BlackBeadChoice.png","","","","","","","","","",""
"image-keyboard-response","45","496769","0.0-3.0-4.0-1.0-2.10","5edcadb5e81cb9000c4b07e0","6662009ae78f21dd82fcd179","66620a1bacf5a186eab742dc","null","","null","","","","","","","","./tasks/HMM-beads/Images/BlackBeadChoiceCorrect.png","","","","","","","","","",""
"image-keyboard-response","46","497116","0.0-3.0-4.0-1.0-0.11","5edcadb5e81cb9000c4b07e0","6662009ae78f21dd82fcd179","66620a1bacf5a186eab742dc","347","","f","","","","","","","","./tasks/HMM-beads/Images/NewTrialBC.png","practice","0","11","0","1","0","0","false","",""
"image-keyboard-response","47","497421","0.0-3.0-4.0-1.0-1.11","5edcadb5e81cb9000c4b07e0","6662009ae78f21dd82fcd179","66620a1bacf5a186eab742dc","null","","null","","","","","","","","./tasks/HMM-beads/Images/BlackBeadChoice.png","","","","","","","","","",""
"image-keyboard-response","48","497924","0.0-3.0-4.0-1.0-2.11","5edcadb5e81cb9000c4b07e0","6662009ae78f21dd82fcd179","66620a1bacf5a186eab742dc","null","","null","","","","","","","","./tasks/HMM-beads/Images/BlackBeadChoiceWrong.png","","","","","","","","","",""
"image-keyboard-response","49","499972","0.0-3.0-4.0-1.0-0.12","5edcadb5e81cb9000c4b07e0","6662009ae78f21dd82fcd179","66620a1bacf5a186eab742dc","2048","","f","","","","","","","","./tasks/HMM-beads/Images/NewTrialWC.png","practice","0","12","0","0","1","0","true","",""
"image-keyboard-response","50","500277","0.0-3.0-4.0-1.0-1.12","5edcadb5e81cb9000c4b07e0","6662009ae78f21dd82fcd179","66620a1bacf5a186eab742dc","null","","null","","","","","","","","./tasks/HMM-beads/Images/BlackBeadChoice.png","","","","","","","","","",""
"image-keyboard-response","51","500783","0.0-3.0-4.0-1.0-2.12","5edcadb5e81cb9000c4b07e0","6662009ae78f21dd82fcd179","66620a1bacf5a186eab742dc","null","","null","","","","","","","","./tasks/HMM-beads/Images/BlackBeadChoiceCorrect.png","","","","","","","","","",""
"image-keyboard-response","52","500980","0.0-3.0-4.0-1.0-0.13","5edcadb5e81cb9000c4b07e0","6662009ae78f21dd82fcd179","66620a1bacf5a186eab742dc","196","","f","","","","","","","","./tasks/HMM-beads/Images/NewTrialBC.png","practice","0","13","0","0","0","0","true","",""
"image-keyboard-response","53","501282","0.0-3.0-4.0-1.0-1.13","5edcadb5e81cb9000c4b07e0","6662009ae78f21dd82fcd179","66620a1bacf5a186eab742dc","null","","null","","","","","","","","./tasks/HMM-beads/Images/BlackBeadChoice.png","","","","","","","","","",""
"image-keyboard-response","54","501795","0.0-3.0-4.0-1.0-2.13","5edcadb5e81cb9000c4b07e0","6662009ae78f21dd82fcd179","66620a1bacf5a186eab742dc","null","","null","","","","","","","","./tasks/HMM-beads/Images/BlackBeadChoiceCorrect.png","","","","","","","","","",""
"image-keyboard-response","55","502124","0.0-3.0-4.0-1.0-0.14","5edcadb5e81cb9000c4b07e0","6662009ae78f21dd82fcd179","66620a1bacf5a186eab742dc","329","","f","","","","","","","","./tasks/HMM-beads/Images/NewTrialBC.png","practice","0","14","0","0","0","0","true","",""
"image-keyboard-response","56","502429","0.0-3.0-4.0-1.0-1.14","5edcadb5e81cb9000c4b07e0","6662009ae78f21dd82fcd179","66620a1bacf5a186eab742dc","null","","null","","","","","","","","./tasks/HMM-beads/Images/BlackBeadChoice.png","","","","","","","","","",""
"image-keyboard-response","57","502940","0.0-3.0-4.0-1.0-2.14","5edcadb5e81cb9000c4b07e0","6662009ae78f21dd82fcd179","66620a1bacf5a186eab742dc","null","","null","","","","","","","","./tasks/HMM-beads/Images/BlackBeadChoiceCorrect.png","","","","","","","","","",""
"image-keyboard-response","58","503284","0.0-3.0-4.0-1.0-0.15","5edcadb5e81cb9000c4b07e0","6662009ae78f21dd82fcd179","66620a1bacf5a186eab742dc","343","","f","","","","","","","","./tasks/HMM-beads/Images/NewTrialBC.png","practice","0","15","0","0","0","0","true","",""
"image-keyboard-response","59","503594","0.0-3.0-4.0-1.0-1.15","5edcadb5e81cb9000c4b07e0","6662009ae78f21dd82fcd179","66620a1bacf5a186eab742dc","null","","null","","","","","","","","./tasks/HMM-beads/Images/BlackBeadChoice.png","","","","","","","","","",""
"image-keyboard-response","60","504095","0.0-3.0-4.0-1.0-2.15","5edcadb5e81cb9000c4b07e0","6662009ae78f21dd82fcd179","66620a1bacf5a186eab742dc","null","","null","","","","","","","","./tasks/HMM-beads/Images/BlackBeadChoiceCorrect.png","","","","","","","","","",""
"image-keyboard-response","61","504452","0.0-3.0-4.0-1.0-0.16","5edcadb5e81cb9000c4b07e0","6662009ae78f21dd82fcd179","66620a1bacf5a186eab742dc","356","","f","","","","","","","","./tasks/HMM-beads/Images/NewTrialBC.png","practice","0","16","0","0","0","0","true","",""
"image-keyboard-response","62","504763","0.0-3.0-4.0-1.0-1.16","5edcadb5e81cb9000c4b07e0","6662009ae78f21dd82fcd179","66620a1bacf5a186eab742dc","null","","null","","","","","","","","./tasks/HMM-beads/Images/BlackBeadChoice.png","","","","","","","","","",""
"image-keyboard-response","63","505269","0.0-3.0-4.0-1.0-2.16","5edcadb5e81cb9000c4b07e0","6662009ae78f21dd82fcd179","66620a1bacf5a186eab742dc","null","","null","","","","","","","","./tasks/HMM-beads/Images/BlackBeadChoiceCorrect.png","","","","","","","","","",""
"image-keyboard-response","64","505492","0.0-3.0-4.0-1.0-0.17","5edcadb5e81cb9000c4b07e0","6662009ae78f21dd82fcd179","66620a1bacf5a186eab742dc","222","","f","","","","","","","","./tasks/HMM-beads/Images/NewTrialBC.png","practice","0","17","0","0","0","0","true","",""
"image-keyboard-response","65","505797","0.0-3.0-4.0-1.0-1.17","5edcadb5e81cb9000c4b07e0","6662009ae78f21dd82fcd179","66620a1bacf5a186eab742dc","null","","null","","","","","","","","./tasks/HMM-beads/Images/BlackBeadChoice.png","","","","","","","","","",""
"image-keyboard-response","66","506307","0.0-3.0-4.0-1.0-2.17","5edcadb5e81cb9000c4b07e0","6662009ae78f21dd82fcd179","66620a1bacf5a186eab742dc","null","","null","","","","","","","","./tasks/HMM-beads/Images/BlackBeadChoiceCorrect.png","","","","","","","","","",""
"image-keyboard-response","67","506700","0.0-3.0-4.0-1.0-0.18","5edcadb5e81cb9000c4b07e0","6662009ae78f21dd82fcd179","66620a1bacf5a186eab742dc","391","","f","","","","","","","","./tasks/HMM-beads/Images/NewTrialBC.png","practice","0","18","0","1","0","0","false","",""
"image-keyboard-response","68","507004","0.0-3.0-4.0-1.0-1.18","5edcadb5e81cb9000c4b07e0","6662009ae78f21dd82fcd179","66620a1bacf5a186eab742dc","null","","null","","","","","","","","./tasks/HMM-beads/Images/BlackBeadChoice.png","","","","","","","","","",""
"image-keyboard-response","69","507517","0.0-3.0-4.0-1.0-2.18","5edcadb5e81cb9000c4b07e0","6662009ae78f21dd82fcd179","66620a1bacf5a186eab742dc","null","","null","","","","","","","","./tasks/HMM-beads/Images/BlackBeadChoiceWrong.png","","","","","","","","","",""
"image-keyboard-response","70","507908","0.0-3.0-4.0-1.0-0.19","5edcadb5e81cb9000c4b07e0","6662009ae78f21dd82fcd179","66620a1bacf5a186eab742dc","391","","f","","","","","","","","./tasks/HMM-beads/Images/NewTrialWC.png","practice","0","19","0","0","1","0","true","",""
"image-keyboard-response","71","508218","0.0-3.0-4.0-1.0-1.19","5edcadb5e81cb9000c4b07e0","6662009ae78f21dd82fcd179","66620a1bacf5a186eab742dc","null","","null","","","","","","","","./tasks/HMM-beads/Images/BlackBeadChoice.png","","","","","","","","","",""
"image-keyboard-response","72","508732","0.0-3.0-4.0-1.0-2.19","5edcadb5e81cb9000c4b07e0","6662009ae78f21dd82fcd179","66620a1bacf5a186eab742dc","null","","null","","","","","","","","./tasks/HMM-beads/Images/BlackBeadChoiceCorrect.png","","","","","","","","","",""
"image-keyboard-response","73","509204","0.0-3.0-4.0-1.0-0.20","5edcadb5e81cb9000c4b07e0","6662009ae78f21dd82fcd179","66620a1bacf5a186eab742dc","471","","f","","","","","","","","./tasks/HMM-beads/Images/NewTrialBC.png","practice","0","20","0","0","0","0","true","",""
"image-keyboard-response","74","509510","0.0-3.0-4.0-1.0-1.20","5edcadb5e81cb9000c4b07e0","6662009ae78f21dd82fcd179","66620a1bacf5a186eab742dc","null","","null","","","","","","","","./tasks/HMM-beads/Images/BlackBeadChoice.png","","","","","","","","","",""
"image-keyboard-response","75","510018","0.0-3.0-4.0-1.0-2.20","5edcadb5e81cb9000c4b07e0","6662009ae78f21dd82fcd179","66620a1bacf5a186eab742dc","null","","null","","","","","","","","./tasks/HMM-beads/Images/BlackBeadChoiceCorrect.png","","","","","","","","","",""
"image-keyboard-response","76","510204","0.0-3.0-4.0-1.0-0.21","5edcadb5e81cb9000c4b07e0","6662009ae78f21dd82fcd179","66620a1bacf5a186eab742dc","186","","f","","","","","","","","./tasks/HMM-beads/Images/NewTrialBC.png","practice","0","21","0","1","0","0","false","",""
"image-keyboard-response","77","510513","0.0-3.0-4.0-1.0-1.21","5edcadb5e81cb9000c4b07e0","6662009ae78f21dd82fcd179","66620a1bacf5a186eab742dc","null","","null","","","","","","","","./tasks/HMM-beads/Images/BlackBeadChoice.png","","","","","","","","","",""
"image-keyboard-response","78","511028","0.0-3.0-4.0-1.0-2.21","5edcadb5e81cb9000c4b07e0","6662009ae78f21dd82fcd179","66620a1bacf5a186eab742dc","null","","null","","","","","","","","./tasks/HMM-beads/Images/BlackBeadChoiceWrong.png","","","","","","","","","",""
"image-keyboard-response","79","511348","0.0-3.0-4.0-1.0-0.22","5edcadb5e81cb9000c4b07e0","6662009ae78f21dd82fcd179","66620a1bacf5a186eab742dc","319","","f","","","","","","","","./tasks/HMM-beads/Images/NewTrialWC.png","practice","0","22","1","1","1","0","false","",""
"image-keyboard-response","80","511649","0.0-3.0-4.0-1.0-1.22","5edcadb5e81cb9000c4b07e0","6662009ae78f21dd82fcd179","66620a1bacf5a186eab742dc","null","","null","","","","","","","","./tasks/HMM-beads/Images/BlackBeadChoice.png","","","","","","","","","",""
"image-keyboard-response","81","512160","0.0-3.0-4.0-1.0-2.22","5edcadb5e81cb9000c4b07e0","6662009ae78f21dd82fcd179","66620a1bacf5a186eab742dc","null","","null","","","","","","","","./tasks/HMM-beads/Images/BlackBeadChoiceWrong.png","","","","","","","","","",""
"image-keyboard-response","82","512484","0.0-3.0-4.0-1.0-0.23","5edcadb5e81cb9000c4b07e0","6662009ae78f21dd82fcd179","66620a1bacf5a186eab742dc","323","","f","","","","","","","","./tasks/HMM-beads/Images/NewTrialWC.png","practice","0","23","1","0","1","0","true","",""
"image-keyboard-response","83","512799","0.0-3.0-4.0-1.0-1.23","5edcadb5e81cb9000c4b07e0","6662009ae78f21dd82fcd179","66620a1bacf5a186eab742dc","null","","null","","","","","","","","./tasks/HMM-beads/Images/BlackBeadChoice.png","","","","","","","","","",""
"image-keyboard-response","84","513313","0.0-3.0-4.0-1.0-2.23","5edcadb5e81cb9000c4b07e0","6662009ae78f21dd82fcd179","66620a1bacf5a186eab742dc","null","","null","","","","","","","","./tasks/HMM-beads/Images/BlackBeadChoiceCorrect.png","","","","","","","","","",""
"image-keyboard-response","85","513612","0.0-3.0-4.0-1.0-0.24","5edcadb5e81cb9000c4b07e0","6662009ae78f21dd82fcd179","66620a1bacf5a186eab742dc","298","","f","","","","","","","","./tasks/HMM-beads/Images/NewTrialBC.png","practice","0","24","1","1","0","0","false","",""
"image-keyboard-response","86","513919","0.0-3.0-4.0-1.0-1.24","5edcadb5e81cb9000c4b07e0","6662009ae78f21dd82fcd179","66620a1bacf5a186eab742dc","null","","null","","","","","","","","./tasks/HMM-beads/Images/BlackBeadChoice.png","","","","","","","","","",""
"image-keyboard-response","87","514429","0.0-3.0-4.0-1.0-2.24","5edcadb5e81cb9000c4b07e0","6662009ae78f21dd82fcd179","66620a1bacf5a186eab742dc","null","","null","","","","","","","","./tasks/HMM-beads/Images/BlackBeadChoiceWrong.png","","","","","","","","","",""
"image-keyboard-response","88","515116","0.0-3.0-4.0-1.0-0.25","5edcadb5e81cb9000c4b07e0","6662009ae78f21dd82fcd179","66620a1bacf5a186eab742dc","687","","f","","","","","","","","./tasks/HMM-beads/Images/NewTrialWC.png","practice","0","25","1","1","1","0","false","",""
"image-keyboard-response","89","515417","0.0-3.0-4.0-1.0-1.25","5edcadb5e81cb9000c4b07e0","6662009ae78f21dd82fcd179","66620a1bacf5a186eab742dc","null","","null","","","","","","","","./tasks/HMM-beads/Images/BlackBeadChoice.png","","","","","","","","","",""
"image-keyboard-response","90","515927","0.0-3.0-4.0-1.0-2.25","5edcadb5e81cb9000c4b07e0","6662009ae78f21dd82fcd179","66620a1bacf5a186eab742dc","null","","null","","","","","","","","./tasks/HMM-beads/Images/BlackBeadChoiceWrong.png","","","","","","","","","",""
"image-keyboard-response","91","516388","0.0-3.0-4.0-1.0-0.26","5edcadb5e81cb9000c4b07e0","6662009ae78f21dd82fcd179","66620a1bacf5a186eab742dc","461","","f","","","","","","","","./tasks/HMM-beads/Images/NewTrialWC.png","practice","0","26","1","1","1","0","false","",""
"image-keyboard-response","92","516701","0.0-3.0-4.0-1.0-1.26","5edcadb5e81cb9000c4b07e0","6662009ae78f21dd82fcd179","66620a1bacf5a186eab742dc","null","","null","","","","","","","","./tasks/HMM-beads/Images/BlackBeadChoice.png","","","","","","","","","",""
"image-keyboard-response","93","517214","0.0-3.0-4.0-1.0-2.26","5edcadb5e81cb9000c4b07e0","6662009ae78f21dd82fcd179","66620a1bacf5a186eab742dc","null","","null","","","","","","","","./tasks/HMM-beads/Images/BlackBeadChoiceWrong.png","","","","","","","","","",""
"image-keyboard-response","94","519164","0.0-3.0-4.0-1.0-0.27","5edcadb5e81cb9000c4b07e0","6662009ae78f21dd82fcd179","66620a1bacf5a186eab742dc","1950","","j","","","","","","","","./tasks/HMM-beads/Images/NewTrialWC.png","practice","0","27","1","1","1","1","true","",""
"image-keyboard-response","95","519474","0.0-3.0-4.0-1.0-1.27","5edcadb5e81cb9000c4b07e0","6662009ae78f21dd82fcd179","66620a1bacf5a186eab742dc","null","","null","","","","","","","","./tasks/HMM-beads/Images/WhiteBeadChoice.png","","","","","","","","","",""
"image-keyboard-response","96","519983","0.0-3.0-4.0-1.0-2.27","5edcadb5e81cb9000c4b07e0","6662009ae78f21dd82fcd179","66620a1bacf5a186eab742dc","null","","null","","","","","","","","./tasks/HMM-beads/Images/WhiteBeadChoiceCorrect.png","","","","","","","","","",""
"image-keyboard-response","97","520126","0.0-3.0-4.0-1.0-0.28","5edcadb5e81cb9000c4b07e0","6662009ae78f21dd82fcd179","66620a1bacf5a186eab742dc","142","","j","","","","","","","","./tasks/HMM-beads/Images/NewTrialWC.png","practice","0","28","1","0","1","1","false","",""
"image-keyboard-response","98","520434","0.0-3.0-4.0-1.0-1.28","5edcadb5e81cb9000c4b07e0","6662009ae78f21dd82fcd179","66620a1bacf5a186eab742dc","null","","null","","","","","","","","./tasks/HMM-beads/Images/WhiteBeadChoice.png","","","","","","","","","",""
"image-keyboard-response","99","520950","0.0-3.0-4.0-1.0-2.28","5edcadb5e81cb9000c4b07e0","6662009ae78f21dd82fcd179","66620a1bacf5a186eab742dc","null","","null","","","","","","","","./tasks/HMM-beads/Images/WhiteBeadChoiceWrong.png","","","","","","","","","",""
"image-keyboard-response","100","521260","0.0-3.0-4.0-1.0-0.29","5edcadb5e81cb9000c4b07e0","6662009ae78f21dd82fcd179","66620a1bacf5a186eab742dc","309","","j","","","","","","","","./tasks/HMM-beads/Images/NewTrialBC.png","practice","0","29","1","1","0","1","true","",""
"image-keyboard-response","101","521572","0.0-3.0-4.0-1.0-1.29","5edcadb5e81cb9000c4b07e0","6662009ae78f21dd82fcd179","66620a1bacf5a186eab742dc","null","","null","","","","","","","","./tasks/HMM-beads/Images/WhiteBeadChoice.png","","","","","","","","","",""
"image-keyboard-response","102","522076","0.0-3.0-4.0-1.0-2.29","5edcadb5e81cb9000c4b07e0","6662009ae78f21dd82fcd179","66620a1bacf5a186eab742dc","null","","null","","","","","","","","./tasks/HMM-beads/Images/WhiteBeadChoiceCorrect.png","","","","","","","","","",""
"image-keyboard-response","103","522348","0.0-3.0-4.0-1.0-0.30","5edcadb5e81cb9000c4b07e0","6662009ae78f21dd82fcd179","66620a1bacf5a186eab742dc","272","","j","","","","","","","","./tasks/HMM-beads/Images/NewTrialWC.png","practice","0","30","1","0","1","1","false","",""
"image-keyboard-response","104","522649","0.0-3.0-4.0-1.0-1.30","5edcadb5e81cb9000c4b07e0","6662009ae78f21dd82fcd179","66620a1bacf5a186eab742dc","null","","null","","","","","","","","./tasks/HMM-beads/Images/WhiteBeadChoice.png","","","","","","","","","",""
"image-keyboard-response","105","523161","0.0-3.0-4.0-1.0-2.30","5edcadb5e81cb9000c4b07e0","6662009ae78f21dd82fcd179","66620a1bacf5a186eab742dc","null","","null","","","","","","","","./tasks/HMM-beads/Images/WhiteBeadChoiceWrong.png","","","","","","","","","",""
"image-keyboard-response","106","523523","0.0-3.0-4.0-1.0-0.31","5edcadb5e81cb9000c4b07e0","6662009ae78f21dd82fcd179","66620a1bacf5a186eab742dc","362","","j","","","","","","","","./tasks/HMM-beads/Images/NewTrialBC.png","practice","0","31","1","1","0","1","true","",""
"image-keyboard-response","107","523825","0.0-3.0-4.0-1.0-1.31","5edcadb5e81cb9000c4b07e0","6662009ae78f21dd82fcd179","66620a1bacf5a186eab742dc","null","","null","","","","","","","","./tasks/HMM-beads/Images/WhiteBeadChoice.png","","","","","","","","","",""
"image-keyboard-response","108","524332","0.0-3.0-4.0-1.0-2.31","5edcadb5e81cb9000c4b07e0","6662009ae78f21dd82fcd179","66620a1bacf5a186eab742dc","null","","null","","","","","","","","./tasks/HMM-beads/Images/WhiteBeadChoiceCorrect.png","","","","","","","","","",""
"image-keyboard-response","109","524748","0.0-3.0-4.0-1.0-0.32","5edcadb5e81cb9000c4b07e0","6662009ae78f21dd82fcd179","66620a1bacf5a186eab742dc","416","","j","","","","","","","","./tasks/HMM-beads/Images/NewTrialWC.png","practice","0","32","1","1","1","1","true","",""
"image-keyboard-response","110","525050","0.0-3.0-4.0-1.0-1.32","5edcadb5e81cb9000c4b07e0","6662009ae78f21dd82fcd179","66620a1bacf5a186eab742dc","null","","null","","","","","","","","./tasks/HMM-beads/Images/WhiteBeadChoice.png","","","","","","","","","",""
"image-keyboard-response","111","525561","0.0-3.0-4.0-1.0-2.32","5edcadb5e81cb9000c4b07e0","6662009ae78f21dd82fcd179","66620a1bacf5a186eab742dc","null","","null","","","","","","","","./tasks/HMM-beads/Images/WhiteBeadChoiceCorrect.png","","","","","","","","","",""
"image-keyboard-response","112","525748","0.0-3.0-4.0-1.0-0.33","5edcadb5e81cb9000c4b07e0","6662009ae78f21dd82fcd179","66620a1bacf5a186eab742dc","186","","j","","","","","","","","./tasks/HMM-beads/Images/NewTrialWC.png","practice","0","33","1","1","1","1","true","",""
"image-keyboard-response","113","526058","0.0-3.0-4.0-1.0-1.33","5edcadb5e81cb9000c4b07e0","6662009ae78f21dd82fcd179","66620a1bacf5a186eab742dc","null","","null","","","","","","","","./tasks/HMM-beads/Images/WhiteBeadChoice.png","","","","","","","","","",""
"image-keyboard-response","114","526570","0.0-3.0-4.0-1.0-2.33","5edcadb5e81cb9000c4b07e0","6662009ae78f21dd82fcd179","66620a1bacf5a186eab742dc","null","","null","","","","","","","","./tasks/HMM-beads/Images/WhiteBeadChoiceCorrect.png","","","","","","","","","",""
"image-keyboard-response","115","527147","0.0-3.0-4.0-1.0-0.34","5edcadb5e81cb9000c4b07e0","6662009ae78f21dd82fcd179","66620a1bacf5a186eab742dc","577","","j","","","","","","","","./tasks/HMM-beads/Images/NewTrialWC.png","practice","0","34","1","1","1","1","true","",""
"image-keyboard-response","116","527455","0.0-3.0-4.0-1.0-1.34","5edcadb5e81cb9000c4b07e0","6662009ae78f21dd82fcd179","66620a1bacf5a186eab742dc","null","","null","","","","","","","","./tasks/HMM-beads/Images/WhiteBeadChoice.png","","","","","","","","","",""
"image-keyboard-response","117","527968","0.0-3.0-4.0-1.0-2.34","5edcadb5e81cb9000c4b07e0","6662009ae78f21dd82fcd179","66620a1bacf5a186eab742dc","null","","null","","","","","","","","./tasks/HMM-beads/Images/WhiteBeadChoiceCorrect.png","","","","","","","","","",""
"image-keyboard-response","118","528452","0.0-3.0-4.0-1.0-0.35","5edcadb5e81cb9000c4b07e0","6662009ae78f21dd82fcd179","66620a1bacf5a186eab742dc","483","","j","","","","","","","","./tasks/HMM-beads/Images/NewTrialWC.png","practice","0","35","1","1","1","1","true","",""
"image-keyboard-response","119","528760","0.0-3.0-4.0-1.0-1.35","5edcadb5e81cb9000c4b07e0","6662009ae78f21dd82fcd179","66620a1bacf5a186eab742dc","null","","null","","","","","","","","./tasks/HMM-beads/Images/WhiteBeadChoice.png","","","","","","","","","",""
"image-keyboard-response","120","529275","0.0-3.0-4.0-1.0-2.35","5edcadb5e81cb9000c4b07e0","6662009ae78f21dd82fcd179","66620a1bacf5a186eab742dc","null","","null","","","","","","","","./tasks/HMM-beads/Images/WhiteBeadChoiceCorrect.png","","","","","","","","","",""
"image-keyboard-response","121","529500","0.0-3.0-4.0-1.0-0.36","5edcadb5e81cb9000c4b07e0","6662009ae78f21dd82fcd179","66620a1bacf5a186eab742dc","224","","j","","","","","","","","./tasks/HMM-beads/Images/NewTrialWC.png","practice","0","36","1","0","1","1","false","",""
"image-keyboard-response","122","529816","0.0-3.0-4.0-1.0-1.36","5edcadb5e81cb9000c4b07e0","6662009ae78f21dd82fcd179","66620a1bacf5a186eab742dc","null","","null","","","","","","","","./tasks/HMM-beads/Images/WhiteBeadChoice.png","","","","","","","","","",""
"image-keyboard-response","123","530328","0.0-3.0-4.0-1.0-2.36","5edcadb5e81cb9000c4b07e0","6662009ae78f21dd82fcd179","66620a1bacf5a186eab742dc","null","","null","","","","","","","","./tasks/HMM-beads/Images/WhiteBeadChoiceWrong.png","","","","","","","","","",""
"image-keyboard-response","124","531148","0.0-3.0-4.0-1.0-0.37","5edcadb5e81cb9000c4b07e0","6662009ae78f21dd82fcd179","66620a1bacf5a186eab742dc","819","","j","","","","","","","","./tasks/HMM-beads/Images/NewTrialBC.png","practice","0","37","1","1","0","1","true","",""
"image-keyboard-response","125","531463","0.0-3.0-4.0-1.0-1.37","5edcadb5e81cb9000c4b07e0","6662009ae78f21dd82fcd179","66620a1bacf5a186eab742dc","null","","null","","","","","","","","./tasks/HMM-beads/Images/WhiteBeadChoice.png","","","","","","","","","",""
"image-keyboard-response","126","531965","0.0-3.0-4.0-1.0-2.37","5edcadb5e81cb9000c4b07e0","6662009ae78f21dd82fcd179","66620a1bacf5a186eab742dc","null","","null","","","","","","","","./tasks/HMM-beads/Images/WhiteBeadChoiceCorrect.png","","","","","","","","","",""
"image-keyboard-response","127","532284","0.0-3.0-4.0-1.0-0.38","5edcadb5e81cb9000c4b07e0","6662009ae78f21dd82fcd179","66620a1bacf5a186eab742dc","319","","j","","","","","","","","./tasks/HMM-beads/Images/NewTrialWC.png","practice","0","38","1","1","1","1","true","",""
"image-keyboard-response","128","532588","0.0-3.0-4.0-1.0-1.38","5edcadb5e81cb9000c4b07e0","6662009ae78f21dd82fcd179","66620a1bacf5a186eab742dc","null","","null","","","","","","","","./tasks/HMM-beads/Images/WhiteBeadChoice.png","","","","","","","","","",""
"image-keyboard-response","129","533102","0.0-3.0-4.0-1.0-2.38","5edcadb5e81cb9000c4b07e0","6662009ae78f21dd82fcd179","66620a1bacf5a186eab742dc","null","","null","","","","","","","","./tasks/HMM-beads/Images/WhiteBeadChoiceCorrect.png","","","","","","","","","",""
"image-keyboard-response","130","533396","0.0-3.0-4.0-1.0-0.39","5edcadb5e81cb9000c4b07e0","6662009ae78f21dd82fcd179","66620a1bacf5a186eab742dc","293","","j","","","","","","","","./tasks/HMM-beads/Images/NewTrialWC.png","practice","0","39","1","1","1","1","true","",""
"image-keyboard-response","131","533703","0.0-3.0-4.0-1.0-1.39","5edcadb5e81cb9000c4b07e0","6662009ae78f21dd82fcd179","66620a1bacf5a186eab742dc","null","","null","","","","","","","","./tasks/HMM-beads/Images/WhiteBeadChoice.png","","","","","","","","","",""
"image-keyboard-response","132","534213","0.0-3.0-4.0-1.0-2.39","5edcadb5e81cb9000c4b07e0","6662009ae78f21dd82fcd179","66620a1bacf5a186eab742dc","null","","null","","","","","","","","./tasks/HMM-beads/Images/WhiteBeadChoiceCorrect.png","","","","","","","","","",""
"html-keyboard-response","133","540324","0.0-3.0-4.0-2.0","5edcadb5e81cb9000c4b07e0","6662009ae78f21dd82fcd179","66620a1bacf5a186eab742dc","6111",""," ","","","","","","","","","","","","","","","","","",""
"instructions","134","555369","0.0-3.0-5.0","5edcadb5e81cb9000c4b07e0","6662009ae78f21dd82fcd179","66620a1bacf5a186eab742dc","15044","","","","[{""page_index"":0,""viewing_time"":9587},{""page_index"":1,""viewing_time"":5457}]","","","","","","","","","","","","","","","",""
"html-keyboard-response","135","557750","0.0-3.0-6.0-0.0","5edcadb5e81cb9000c4b07e0","6662009ae78f21dd82fcd179","66620a1bacf5a186eab742dc","2381",""," ","","","","","","","","<div align=center>In this block, there will be a <b>1% chance</b> that the jar on the next trial will be different from the jar on the current trial.<br><br></div>","","","","","","","","","",""
"image-keyboard-response","136","559428","0.0-3.0-6.0-1.0-0.0","5edcadb5e81cb9000c4b07e0","6662009ae78f21dd82fcd179","66620a1bacf5a186eab742dc","1678","","f","","","","","","","","./tasks/HMM-beads/Images/NoChoice.png","lowH","1","0","1","0","9","0","true","",""
"image-keyboard-response","137","559739","0.0-3.0-6.0-1.0-1.0","5edcadb5e81cb9000c4b07e0","6662009ae78f21dd82fcd179","66620a1bacf5a186eab742dc","null","","null","","","","","","","","./tasks/HMM-beads/Images/BlackBeadChoice.png","","","","","","","","","",""
"image-keyboard-response","138","560251","0.0-3.0-6.0-1.0-2.0","5edcadb5e81cb9000c4b07e0","6662009ae78f21dd82fcd179","66620a1bacf5a186eab742dc","null","","null","","","","","","","","./tasks/HMM-beads/Images/BlackBeadChoiceCorrect.png","","","","","","","","","",""
"image-keyboard-response","139","560652","0.0-3.0-6.0-1.0-0.1","5edcadb5e81cb9000c4b07e0","6662009ae78f21dd82fcd179","66620a1bacf5a186eab742dc","400","","f","","","","","","","","./tasks/HMM-beads/Images/NewTrialBC.png","lowH","1","1","1","1","0","0","false","",""
"image-keyboard-response","140","560967","0.0-3.0-6.0-1.0-1.1","5edcadb5e81cb9000c4b07e0","6662009ae78f21dd82fcd179","66620a1bacf5a186eab742dc","null","","null","","","","","","","","./tasks/HMM-beads/Images/BlackBeadChoice.png","","","","","","","","","",""
"image-keyboard-response","141","561480","0.0-3.0-6.0-1.0-2.1","5edcadb5e81cb9000c4b07e0","6662009ae78f21dd82fcd179","66620a1bacf5a186eab742dc","null","","null","","","","","","","","./tasks/HMM-beads/Images/BlackBeadChoiceWrong.png","","","","","","","","","",""
"image-keyboard-response","142","564332","0.0-3.0-6.0-1.0-0.2","5edcadb5e81cb9000c4b07e0","6662009ae78f21dd82fcd179","66620a1bacf5a186eab742dc","2852","","j","","","","","","","","./tasks/HMM-beads/Images/NewTrialWC.png","lowH","1","2","1","1","1","1","true","",""
"image-keyboard-response","143","564641","0.0-3.0-6.0-1.0-1.2","5edcadb5e81cb9000c4b07e0","6662009ae78f21dd82fcd179","66620a1bacf5a186eab742dc","null","","null","","","","","","","","./tasks/HMM-beads/Images/WhiteBeadChoice.png","","","","","","","","","",""
"image-keyboard-response","144","565154","0.0-3.0-6.0-1.0-2.2","5edcadb5e81cb9000c4b07e0","6662009ae78f21dd82fcd179","66620a1bacf5a186eab742dc","null","","null","","","","","","","","./tasks/HMM-beads/Images/WhiteBeadChoiceCorrect.png","","","","","","","","","",""
"image-keyboard-response","145","565980","0.0-3.0-6.0-1.0-0.3","5edcadb5e81cb9000c4b07e0","6662009ae78f21dd82fcd179","66620a1bacf5a186eab742dc","826","","j","","","","","","","","./tasks/HMM-beads/Images/NewTrialWC.png","lowH","1","3","1","1","1","1","true","",""
"image-keyboard-response","146","566296","0.0-3.0-6.0-1.0-1.3","5edcadb5e81cb9000c4b07e0","6662009ae78f21dd82fcd179","66620a1bacf5a186eab742dc","null","","null","","","","","","","","./tasks/HMM-beads/Images/WhiteBeadChoice.png","","","","","","","","","",""
"image-keyboard-response","147","566808","0.0-3.0-6.0-1.0-2.3","5edcadb5e81cb9000c4b07e0","6662009ae78f21dd82fcd179","66620a1bacf5a186eab742dc","null","","null","","","","","","","","./tasks/HMM-beads/Images/WhiteBeadChoiceCorrect.png","","","","","","","","","",""
"image-keyboard-response","148","566868","0.0-3.0-6.0-1.0-0.4","5edcadb5e81cb9000c4b07e0","6662009ae78f21dd82fcd179","66620a1bacf5a186eab742dc","59","","j","","","","","","","","./tasks/HMM-beads/Images/NewTrialWC.png","lowH","1","4","1","1","1","1","true","",""
"image-keyboard-response","149","567180","0.0-3.0-6.0-1.0-1.4","5edcadb5e81cb9000c4b07e0","6662009ae78f21dd82fcd179","66620a1bacf5a186eab742dc","null","","null","","","","","","","","./tasks/HMM-beads/Images/WhiteBeadChoice.png","","","","","","","","","",""
"image-keyboard-response","150","567688","0.0-3.0-6.0-1.0-2.4","5edcadb5e81cb9000c4b07e0","6662009ae78f21dd82fcd179","66620a1bacf5a186eab742dc","null","","null","","","","","","","","./tasks/HMM-beads/Images/WhiteBeadChoiceCorrect.png","","","","","","","","","",""
"image-keyboard-response","151","567884","0.0-3.0-6.0-1.0-0.5","5edcadb5e81cb9000c4b07e0","6662009ae78f21dd82fcd179","66620a1bacf5a186eab742dc","195","","j","","","","","","","","./tasks/HMM-beads/Images/NewTrialWC.png","lowH","1","5","1","1","1","1","true","",""
"image-keyboard-response","152","568200","0.0-3.0-6.0-1.0-1.5","5edcadb5e81cb9000c4b07e0","6662009ae78f21dd82fcd179","66620a1bacf5a186eab742dc","null","","null","","","","","","","","./tasks/HMM-beads/Images/WhiteBeadChoice.png","","","","","","","","","",""
"image-keyboard-response","153","568707","0.0-3.0-6.0-1.0-2.5","5edcadb5e81cb9000c4b07e0","6662009ae78f21dd82fcd179","66620a1bacf5a186eab742dc","null","","null","","","","","","","","./tasks/HMM-beads/Images/WhiteBeadChoiceCorrect.png","","","","","","","","","",""
"image-keyboard-response","154","569676","0.0-3.0-6.0-1.0-0.6","5edcadb5e81cb9000c4b07e0","6662009ae78f21dd82fcd179","66620a1bacf5a186eab742dc","968","","j","","","","","","","","./tasks/HMM-beads/Images/NewTrialWC.png","lowH","1","6","1","0","1","1","false","",""
"image-keyboard-response","155","569990","0.0-3.0-6.0-1.0-1.6","5edcadb5e81cb9000c4b07e0","6662009ae78f21dd82fcd179","66620a1bacf5a186eab742dc","null","","null","","","","","","","","./tasks/HMM-beads/Images/WhiteBeadChoice.png","","","","","","","","","",""
"image-keyboard-response","156","570502","0.0-3.0-6.0-1.0-2.6","5edcadb5e81cb9000c4b07e0","6662009ae78f21dd82fcd179","66620a1bacf5a186eab742dc","null","","null","","","","","","","","./tasks/HMM-beads/Images/WhiteBeadChoiceWrong.png","","","","","","","","","",""
"image-keyboard-response","157","572764","0.0-3.0-6.0-1.0-0.7","5edcadb5e81cb9000c4b07e0","6662009ae78f21dd82fcd179","66620a1bacf5a186eab742dc","2261","","j","","","","","","","","./tasks/HMM-beads/Images/NewTrialBC.png","lowH","1","7","1","1","0","1","true","",""
"image-keyboard-response","158","573078","0.0-3.0-6.0-1.0-1.7","5edcadb5e81cb9000c4b07e0","6662009ae78f21dd82fcd179","66620a1bacf5a186eab742dc","null","","null","","","","","","","","./tasks/HMM-beads/Images/WhiteBeadChoice.png","","","","","","","","","",""
"image-keyboard-response","159","573588","0.0-3.0-6.0-1.0-2.7","5edcadb5e81cb9000c4b07e0","6662009ae78f21dd82fcd179","66620a1bacf5a186eab742dc","null","","null","","","","","","","","./tasks/HMM-beads/Images/WhiteBeadChoiceCorrect.png","","","","","","","","","",""
"image-keyboard-response","160","573852","0.0-3.0-6.0-1.0-0.8","5edcadb5e81cb9000c4b07e0","6662009ae78f21dd82fcd179","66620a1bacf5a186eab742dc","263","","j","","","","","","","","./tasks/HMM-beads/Images/NewTrialWC.png","lowH","1","8","1","1","1","1","true","",""
"image-keyboard-response","161","574160","0.0-3.0-6.0-1.0-1.8","5edcadb5e81cb9000c4b07e0","6662009ae78f21dd82fcd179","66620a1bacf5a186eab742dc","null","","null","","","","","","","","./tasks/HMM-beads/Images/WhiteBeadChoice.png","","","","","","","","","",""
"image-keyboard-response","162","574674","0.0-3.0-6.0-1.0-2.8","5edcadb5e81cb9000c4b07e0","6662009ae78f21dd82fcd179","66620a1bacf5a186eab742dc","null","","null","","","","","","","","./tasks/HMM-beads/Images/WhiteBeadChoiceCorrect.png","","","","","","","","","",""
"image-keyboard-response","163","574908","0.0-3.0-6.0-1.0-0.9","5edcadb5e81cb9000c4b07e0","6662009ae78f21dd82fcd179","66620a1bacf5a186eab742dc","234","","j","","","","","","","","./tasks/HMM-beads/Images/NewTrialWC.png","lowH","1","9","1","1","1","1","true","",""
"image-keyboard-response","164","575221","0.0-3.0-6.0-1.0-1.9","5edcadb5e81cb9000c4b07e0","6662009ae78f21dd82fcd179","66620a1bacf5a186eab742dc","null","","null","","","","","","","","./tasks/HMM-beads/Images/WhiteBeadChoice.png","","","","","","","","","",""
"image-keyboard-response","165","575725","0.0-3.0-6.0-1.0-2.9","5edcadb5e81cb9000c4b07e0","6662009ae78f21dd82fcd179","66620a1bacf5a186eab742dc","null","","null","","","","","","","","./tasks/HMM-beads/Images/WhiteBeadChoiceCorrect.png","","","","","","","","","",""
"image-keyboard-response","166","575996","0.0-3.0-6.0-1.0-0.10","5edcadb5e81cb9000c4b07e0","6662009ae78f21dd82fcd179","66620a1bacf5a186eab742dc","270","","j","","","","","","","","./tasks/HMM-beads/Images/NewTrialWC.png","lowH","1","10","1","1","1","1","true","",""
"image-keyboard-response","167","576311","0.0-3.0-6.0-1.0-1.10","5edcadb5e81cb9000c4b07e0","6662009ae78f21dd82fcd179","66620a1bacf5a186eab742dc","null","","null","","","","","","","","./tasks/HMM-beads/Images/WhiteBeadChoice.png","","","","","","","","","",""
"image-keyboard-response","168","576819","0.0-3.0-6.0-1.0-2.10","5edcadb5e81cb9000c4b07e0","6662009ae78f21dd82fcd179","66620a1bacf5a186eab742dc","null","","null","","","","","","","","./tasks/HMM-beads/Images/WhiteBeadChoiceCorrect.png","","","","","","","","","",""
"image-keyboard-response","169","577108","0.0-3.0-6.0-1.0-0.11","5edcadb5e81cb9000c4b07e0","6662009ae78f21dd82fcd179","66620a1bacf5a186eab742dc","289","","j","","","","","","","","./tasks/HMM-beads/Images/NewTrialWC.png","lowH","1","11","1","1","1","1","true","",""
"image-keyboard-response","170","577421","0.0-3.0-6.0-1.0-1.11","5edcadb5e81cb9000c4b07e0","6662009ae78f21dd82fcd179","66620a1bacf5a186eab742dc","null","","null","","","","","","","","./tasks/HMM-beads/Images/WhiteBeadChoice.png","","","","","","","","","",""
"image-keyboard-response","171","577931","0.0-3.0-6.0-1.0-2.11","5edcadb5e81cb9000c4b07e0","6662009ae78f21dd82fcd179","66620a1bacf5a186eab742dc","null","","null","","","","","","","","./tasks/HMM-beads/Images/WhiteBeadChoiceCorrect.png","","","","","","","","","",""
"image-keyboard-response","172","578228","0.0-3.0-6.0-1.0-0.12","5edcadb5e81cb9000c4b07e0","6662009ae78f21dd82fcd179","66620a1bacf5a186eab742dc","296","","j","","","","","","","","./tasks/HMM-beads/Images/NewTrialWC.png","lowH","1","12","1","1","1","1","true","",""
"image-keyboard-response","173","578535","0.0-3.0-6.0-1.0-1.12","5edcadb5e81cb9000c4b07e0","6662009ae78f21dd82fcd179","66620a1bacf5a186eab742dc","null","","null","","","","","","","","./tasks/HMM-beads/Images/WhiteBeadChoice.png","","","","","","","","","",""
"image-keyboard-response","174","579048","0.0-3.0-6.0-1.0-2.12","5edcadb5e81cb9000c4b07e0","6662009ae78f21dd82fcd179","66620a1bacf5a186eab742dc","null","","null","","","","","","","","./tasks/HMM-beads/Images/WhiteBeadChoiceCorrect.png","","","","","","","","","",""
"image-keyboard-response","175","579332","0.0-3.0-6.0-1.0-0.13","5edcadb5e81cb9000c4b07e0","6662009ae78f21dd82fcd179","66620a1bacf5a186eab742dc","283","","j","","","","","","","","./tasks/HMM-beads/Images/NewTrialWC.png","lowH","1","13","1","0","1","1","false","",""
"image-keyboard-response","176","579639","0.0-3.0-6.0-1.0-1.13","5edcadb5e81cb9000c4b07e0","6662009ae78f21dd82fcd179","66620a1bacf5a186eab742dc","null","","null","","","","","","","","./tasks/HMM-beads/Images/WhiteBeadChoice.png","","","","","","","","","",""
"image-keyboard-response","177","580139","0.0-3.0-6.0-1.0-2.13","5edcadb5e81cb9000c4b07e0","6662009ae78f21dd82fcd179","66620a1bacf5a186eab742dc","null","","null","","","","","","","","./tasks/HMM-beads/Images/WhiteBeadChoiceWrong.png","","","","","","","","","",""
"image-keyboard-response","178","581260","0.0-3.0-6.0-1.0-0.14","5edcadb5e81cb9000c4b07e0","6662009ae78f21dd82fcd179","66620a1bacf5a186eab742dc","1120","","j","","","","","","","","./tasks/HMM-beads/Images/NewTrialBC.png","lowH","1","14","1","0","0","1","false","",""
"image-keyboard-response","179","581573","0.0-3.0-6.0-1.0-1.14","5edcadb5e81cb9000c4b07e0","6662009ae78f21dd82fcd179","66620a1bacf5a186eab742dc","null","","null","","","","","","","","./tasks/HMM-beads/Images/WhiteBeadChoice.png","","","","","","","","","",""
"image-keyboard-response","180","582086","0.0-3.0-6.0-1.0-2.14","5edcadb5e81cb9000c4b07e0","6662009ae78f21dd82fcd179","66620a1bacf5a186eab742dc","null","","null","","","","","","","","./tasks/HMM-beads/Images/WhiteBeadChoiceWrong.png","","","","","","","","","",""
"image-keyboard-response","181","582292","0.0-3.0-6.0-1.0-0.15","5edcadb5e81cb9000c4b07e0","6662009ae78f21dd82fcd179","66620a1bacf5a186eab742dc","205","","f","","","","","","","","./tasks/HMM-beads/Images/NewTrialBC.png","lowH","1","15","1","1","0","0","false","",""
"image-keyboard-response","182","582596","0.0-3.0-6.0-1.0-1.15","5edcadb5e81cb9000c4b07e0","6662009ae78f21dd82fcd179","66620a1bacf5a186eab742dc","null","","null","","","","","","","","./tasks/HMM-beads/Images/BlackBeadChoice.png","","","","","","","","","",""
"image-keyboard-response","183","583106","0.0-3.0-6.0-1.0-2.15","5edcadb5e81cb9000c4b07e0","6662009ae78f21dd82fcd179","66620a1bacf5a186eab742dc","null","","null","","","","","","","","./tasks/HMM-beads/Images/BlackBeadChoiceWrong.png","","","","","","","","","",""
"image-keyboard-response","184","584180","0.0-3.0-6.0-1.0-0.16","5edcadb5e81cb9000c4b07e0","6662009ae78f21dd82fcd179","66620a1bacf5a186eab742dc","1073","","j","","","","","","","","./tasks/HMM-beads/Images/NewTrialWC.png","lowH","1","16","1","1","1","1","true","",""
"image-keyboard-response","185","584492","0.0-3.0-6.0-1.0-1.16","5edcadb5e81cb9000c4b07e0","6662009ae78f21dd82fcd179","66620a1bacf5a186eab742dc","null","","null","","","","","","","","./tasks/HMM-beads/Images/WhiteBeadChoice.png","","","","","","","","","",""
"image-keyboard-response","186","585003","0.0-3.0-6.0-1.0-2.16","5edcadb5e81cb9000c4b07e0","6662009ae78f21dd82fcd179","66620a1bacf5a186eab742dc","null","","null","","","","","","","","./tasks/HMM-beads/Images/WhiteBeadChoiceCorrect.png","","","","","","","","","",""
"image-keyboard-response","187","585212","0.0-3.0-6.0-1.0-0.17","5edcadb5e81cb9000c4b07e0","6662009ae78f21dd82fcd179","66620a1bacf5a186eab742dc","209","","j","","","","","","","","./tasks/HMM-beads/Images/NewTrialWC.png","lowH","1","17","1","1","1","1","true","",""
"image-keyboard-response","188","585515","0.0-3.0-6.0-1.0-1.17","5edcadb5e81cb9000c4b07e0","6662009ae78f21dd82fcd179","66620a1bacf5a186eab742dc","null","","null","","","","","","","","./tasks/HMM-beads/Images/WhiteBeadChoice.png","","","","","","","","","",""
"image-keyboard-response","189","586017","0.0-3.0-6.0-1.0-2.17","5edcadb5e81cb9000c4b07e0","6662009ae78f21dd82fcd179","66620a1bacf5a186eab742dc","null","","null","","","","","","","","./tasks/HMM-beads/Images/WhiteBeadChoiceCorrect.png","","","","","","","","","",""
"image-keyboard-response","190","586252","0.0-3.0-6.0-1.0-0.18","5edcadb5e81cb9000c4b07e0","6662009ae78f21dd82fcd179","66620a1bacf5a186eab742dc","234","","j","","","","","","","","./tasks/HMM-beads/Images/NewTrialWC.png","lowH","1","18","1","1","1","1","true","",""
"image-keyboard-response","191","586557","0.0-3.0-6.0-1.0-1.18","5edcadb5e81cb9000c4b07e0","6662009ae78f21dd82fcd179","66620a1bacf5a186eab742dc","null","","null","","","","","","","","./tasks/HMM-beads/Images/WhiteBeadChoice.png","","","","","","","","","",""
"image-keyboard-response","192","587073","0.0-3.0-6.0-1.0-2.18","5edcadb5e81cb9000c4b07e0","6662009ae78f21dd82fcd179","66620a1bacf5a186eab742dc","null","","null","","","","","","","","./tasks/HMM-beads/Images/WhiteBeadChoiceCorrect.png","","","","","","","","","",""
"image-keyboard-response","193","587324","0.0-3.0-6.0-1.0-0.19","5edcadb5e81cb9000c4b07e0","6662009ae78f21dd82fcd179","66620a1bacf5a186eab742dc","251","","j","","","","","","","","./tasks/HMM-beads/Images/NewTrialWC.png","lowH","1","19","1","1","1","1","true","",""
"image-keyboard-response","194","587628","0.0-3.0-6.0-1.0-1.19","5edcadb5e81cb9000c4b07e0","6662009ae78f21dd82fcd179","66620a1bacf5a186eab742dc","null","","null","","","","","","","","./tasks/HMM-beads/Images/WhiteBeadChoice.png","","","","","","","","","",""
"image-keyboard-response","195","588136","0.0-3.0-6.0-1.0-2.19","5edcadb5e81cb9000c4b07e0","6662009ae78f21dd82fcd179","66620a1bacf5a186eab742dc","null","","null","","","","","","","","./tasks/HMM-beads/Images/WhiteBeadChoiceCorrect.png","","","","","","","","","",""
"image-keyboard-response","196","588228","0.0-3.0-6.0-1.0-0.20","5edcadb5e81cb9000c4b07e0","6662009ae78f21dd82fcd179","66620a1bacf5a186eab742dc","91","","j","","","","","","","","./tasks/HMM-beads/Images/NewTrialWC.png","lowH","1","20","1","1","1","1","true","",""
"image-keyboard-response","197","588541","0.0-3.0-6.0-1.0-1.20","5edcadb5e81cb9000c4b07e0","6662009ae78f21dd82fcd179","66620a1bacf5a186eab742dc","null","","null","","","","","","","","./tasks/HMM-beads/Images/WhiteBeadChoice.png","","","","","","","","","",""
"image-keyboard-response","198","589052","0.0-3.0-6.0-1.0-2.20","5edcadb5e81cb9000c4b07e0","6662009ae78f21dd82fcd179","66620a1bacf5a186eab742dc","null","","null","","","","","","","","./tasks/HMM-beads/Images/WhiteBeadChoiceCorrect.png","","","","","","","","","",""
"image-keyboard-response","199","589252","0.0-3.0-6.0-1.0-0.21","5edcadb5e81cb9000c4b07e0","6662009ae78f21dd82fcd179","66620a1bacf5a186eab742dc","199","","j","","","","","","","","./tasks/HMM-beads/Images/NewTrialWC.png","lowH","1","21","1","1","1","1","true","",""
"image-keyboard-response","200","589567","0.0-3.0-6.0-1.0-1.21","5edcadb5e81cb9000c4b07e0","6662009ae78f21dd82fcd179","66620a1bacf5a186eab742dc","null","","null","","","","","","","","./tasks/HMM-beads/Images/WhiteBeadChoice.png","","","","","","","","","",""
"image-keyboard-response","201","590079","0.0-3.0-6.0-1.0-2.21","5edcadb5e81cb9000c4b07e0","6662009ae78f21dd82fcd179","66620a1bacf5a186eab742dc","null","","null","","","","","","","","./tasks/HMM-beads/Images/WhiteBeadChoiceCorrect.png","","","","","","","","","",""
"image-keyboard-response","202","590276","0.0-3.0-6.0-1.0-0.22","5edcadb5e81cb9000c4b07e0","6662009ae78f21dd82fcd179","66620a1bacf5a186eab742dc","196","","j","","","","","","","","./tasks/HMM-beads/Images/NewTrialWC.png","lowH","1","22","1","1","1","1","true","",""
"image-keyboard-response","203","590579","0.0-3.0-6.0-1.0-1.22","5edcadb5e81cb9000c4b07e0","6662009ae78f21dd82fcd179","66620a1bacf5a186eab742dc","null","","null","","","","","","","","./tasks/HMM-beads/Images/WhiteBeadChoice.png","","","","","","","","","",""
"image-keyboard-response","204","591094","0.0-3.0-6.0-1.0-2.22","5edcadb5e81cb9000c4b07e0","6662009ae78f21dd82fcd179","66620a1bacf5a186eab742dc","null","","null","","","","","","","","./tasks/HMM-beads/Images/WhiteBeadChoiceCorrect.png","","","","","","","","","",""
"image-keyboard-response","205","591348","0.0-3.0-6.0-1.0-0.23","5edcadb5e81cb9000c4b07e0","6662009ae78f21dd82fcd179","66620a1bacf5a186eab742dc","254","","j","","","","","","","","./tasks/HMM-beads/Images/NewTrialWC.png","lowH","1","23","1","1","1","1","true","",""
"image-keyboard-response","206","591654","0.0-3.0-6.0-1.0-1.23","5edcadb5e81cb9000c4b07e0","6662009ae78f21dd82fcd179","66620a1bacf5a186eab742dc","null","","null","","","","","","","","./tasks/HMM-beads/Images/WhiteBeadChoice.png","","","","","","","","","",""
"image-keyboard-response","207","592166","0.0-3.0-6.0-1.0-2.23","5edcadb5e81cb9000c4b07e0","6662009ae78f21dd82fcd179","66620a1bacf5a186eab742dc","null","","null","","","","","","","","./tasks/HMM-beads/Images/WhiteBeadChoiceCorrect.png","","","","","","","","","",""
"image-keyboard-response","208","592476","0.0-3.0-6.0-1.0-0.24","5edcadb5e81cb9000c4b07e0","6662009ae78f21dd82fcd179","66620a1bacf5a186eab742dc","310","","j","","","","","","","","./tasks/HMM-beads/Images/NewTrialWC.png","lowH","1","24","1","0","1","1","false","",""
"image-keyboard-response","209","592792","0.0-3.0-6.0-1.0-1.24","5edcadb5e81cb9000c4b07e0","6662009ae78f21dd82fcd179","66620a1bacf5a186eab742dc","null","","null","","","","","","","","./tasks/HMM-beads/Images/WhiteBeadChoice.png","","","","","","","","","",""
"image-keyboard-response","210","593303","0.0-3.0-6.0-1.0-2.24","5edcadb5e81cb9000c4b07e0","6662009ae78f21dd82fcd179","66620a1bacf5a186eab742dc","null","","null","","","","","","","","./tasks/HMM-beads/Images/WhiteBeadChoiceWrong.png","","","","","","","","","",""
"image-keyboard-response","211","594452","0.0-3.0-6.0-1.0-0.25","5edcadb5e81cb9000c4b07e0","6662009ae78f21dd82fcd179","66620a1bacf5a186eab742dc","1149","","j","","","","","","","","./tasks/HMM-beads/Images/NewTrialBC.png","lowH","1","25","1","1","0","1","true","",""
"image-keyboard-response","212","594764","0.0-3.0-6.0-1.0-1.25","5edcadb5e81cb9000c4b07e0","6662009ae78f21dd82fcd179","66620a1bacf5a186eab742dc","null","","null","","","","","","","","./tasks/HMM-beads/Images/WhiteBeadChoice.png","","","","","","","","","",""
"image-keyboard-response","213","595280","0.0-3.0-6.0-1.0-2.25","5edcadb5e81cb9000c4b07e0","6662009ae78f21dd82fcd179","66620a1bacf5a186eab742dc","null","","null","","","","","","","","./tasks/HMM-beads/Images/WhiteBeadChoiceCorrect.png","","","","","","","","","",""
"image-keyboard-response","214","595564","0.0-3.0-6.0-1.0-0.26","5edcadb5e81cb9000c4b07e0","6662009ae78f21dd82fcd179","66620a1bacf5a186eab742dc","284","","j","","","","","","","","./tasks/HMM-beads/Images/NewTrialWC.png","lowH","1","26","1","0","1","1","false","",""
"image-keyboard-response","215","595868","0.0-3.0-6.0-1.0-1.26","5edcadb5e81cb9000c4b07e0","6662009ae78f21dd82fcd179","66620a1bacf5a186eab742dc","null","","null","","","","","","","","./tasks/HMM-beads/Images/WhiteBeadChoice.png","","","","","","","","","",""
"image-keyboard-response","216","596380","0.0-3.0-6.0-1.0-2.26","5edcadb5e81cb9000c4b07e0","6662009ae78f21dd82fcd179","66620a1bacf5a186eab742dc","null","","null","","","","","","","","./tasks/HMM-beads/Images/WhiteBeadChoiceWrong.png","","","","","","","","","",""
"image-keyboard-response","217","598764","0.0-3.0-6.0-1.0-0.27","5edcadb5e81cb9000c4b07e0","6662009ae78f21dd82fcd179","66620a1bacf5a186eab742dc","2384","","f","","","","","","","","./tasks/HMM-beads/Images/NewTrialBC.png","lowH","1","27","1","1","0","0","false","",""
"image-keyboard-response","218","599078","0.0-3.0-6.0-1.0-1.27","5edcadb5e81cb9000c4b07e0","6662009ae78f21dd82fcd179","66620a1bacf5a186eab742dc","null","","null","","","","","","","","./tasks/HMM-beads/Images/BlackBeadChoice.png","","","","","","","","","",""
"image-keyboard-response","219","599589","0.0-3.0-6.0-1.0-2.27","5edcadb5e81cb9000c4b07e0","6662009ae78f21dd82fcd179","66620a1bacf5a186eab742dc","null","","null","","","","","","","","./tasks/HMM-beads/Images/BlackBeadChoiceWrong.png","","","","","","","","","",""
"image-keyboard-response","220","599868","0.0-3.0-6.0-1.0-0.28","5edcadb5e81cb9000c4b07e0","6662009ae78f21dd82fcd179","66620a1bacf5a186eab742dc","278","","j","","","","","","","","./tasks/HMM-beads/Images/NewTrialWC.png","lowH","1","28","1","1","1","1","true","",""
"image-keyboard-response","221","600175","0.0-3.0-6.0-1.0-1.28","5edcadb5e81cb9000c4b07e0","6662009ae78f21dd82fcd179","66620a1bacf5a186eab742dc","null","","null","","","","","","","","./tasks/HMM-beads/Images/WhiteBeadChoice.png","","","","","","","","","",""
"image-keyboard-response","222","600689","0.0-3.0-6.0-1.0-2.28","5edcadb5e81cb9000c4b07e0","6662009ae78f21dd82fcd179","66620a1bacf5a186eab742dc","null","","null","","","","","","","","./tasks/HMM-beads/Images/WhiteBeadChoiceCorrect.png","","","","","","","","","",""
"image-keyboard-response","223","600916","0.0-3.0-6.0-1.0-0.29","5edcadb5e81cb9000c4b07e0","6662009ae78f21dd82fcd179","66620a1bacf5a186eab742dc","227","","j","","","","","","","","./tasks/HMM-beads/Images/NewTrialWC.png","lowH","1","29","1","1","1","1","true","",""
"image-keyboard-response","224","601229","0.0-3.0-6.0-1.0-1.29","5edcadb5e81cb9000c4b07e0","6662009ae78f21dd82fcd179","66620a1bacf5a186eab742dc","null","","null","","","","","","","","./tasks/HMM-beads/Images/WhiteBeadChoice.png","","","","","","","","","",""
"image-keyboard-response","225","601730","0.0-3.0-6.0-1.0-2.29","5edcadb5e81cb9000c4b07e0","6662009ae78f21dd82fcd179","66620a1bacf5a186eab742dc","null","","null","","","","","","","","./tasks/HMM-beads/Images/WhiteBeadChoiceCorrect.png","","","","","","","","","",""
"image-keyboard-response","226","601836","0.0-3.0-6.0-1.0-0.30","5edcadb5e81cb9000c4b07e0","6662009ae78f21dd82fcd179","66620a1bacf5a186eab742dc","105","","j","","","","","","","","./tasks/HMM-beads/Images/NewTrialWC.png","lowH","1","30","1","1","1","1","true","",""
"image-keyboard-response","227","602147","0.0-3.0-6.0-1.0-1.30","5edcadb5e81cb9000c4b07e0","6662009ae78f21dd82fcd179","66620a1bacf5a186eab742dc","null","","null","","","","","","","","./tasks/HMM-beads/Images/WhiteBeadChoice.png","","","","","","","","","",""
"image-keyboard-response","228","602660","0.0-3.0-6.0-1.0-2.30","5edcadb5e81cb9000c4b07e0","6662009ae78f21dd82fcd179","66620a1bacf5a186eab742dc","null","","null","","","","","","","","./tasks/HMM-beads/Images/WhiteBeadChoiceCorrect.png","","","","","","","","","",""
"image-keyboard-response","229","602852","0.0-3.0-6.0-1.0-0.31","5edcadb5e81cb9000c4b07e0","6662009ae78f21dd82fcd179","66620a1bacf5a186eab742dc","191","","j","","","","","","","","./tasks/HMM-beads/Images/NewTrialWC.png","lowH","1","31","1","1","1","1","true","",""
"image-keyboard-response","230","603157","0.0-3.0-6.0-1.0-1.31","5edcadb5e81cb9000c4b07e0","6662009ae78f21dd82fcd179","66620a1bacf5a186eab742dc","null","","null","","","","","","","","./tasks/HMM-beads/Images/WhiteBeadChoice.png","","","","","","","","","",""
"image-keyboard-response","231","603667","0.0-3.0-6.0-1.0-2.31","5edcadb5e81cb9000c4b07e0","6662009ae78f21dd82fcd179","66620a1bacf5a186eab742dc","null","","null","","","","","","","","./tasks/HMM-beads/Images/WhiteBeadChoiceCorrect.png","","","","","","","","","",""
"image-keyboard-response","232","603868","0.0-3.0-6.0-1.0-0.32","5edcadb5e81cb9000c4b07e0","6662009ae78f21dd82fcd179","66620a1bacf5a186eab742dc","201","","j","","","","","","","","./tasks/HMM-beads/Images/NewTrialWC.png","lowH","1","32","1","1","1","1","true","",""
"image-keyboard-response","233","604174","0.0-3.0-6.0-1.0-1.32","5edcadb5e81cb9000c4b07e0","6662009ae78f21dd82fcd179","66620a1bacf5a186eab742dc","null","","null","","","","","","","","./tasks/HMM-beads/Images/WhiteBeadChoice.png","","","","","","","","","",""
"image-keyboard-response","234","604690","0.0-3.0-6.0-1.0-2.32","5edcadb5e81cb9000c4b07e0","6662009ae78f21dd82fcd179","66620a1bacf5a186eab742dc","null","","null","","","","","","","","./tasks/HMM-beads/Images/WhiteBeadChoiceCorrect.png","","","","","","","","","",""
"image-keyboard-response","235","604852","0.0-3.0-6.0-1.0-0.33","5edcadb5e81cb9000c4b07e0","6662009ae78f21dd82fcd179","66620a1bacf5a186eab742dc","162","","j","","","","","","","","./tasks/HMM-beads/Images/NewTrialWC.png","lowH","1","33","1","1","1","1","true","",""
"image-keyboard-response","236","605159","0.0-3.0-6.0-1.0-1.33","5edcadb5e81cb9000c4b07e0","6662009ae78f21dd82fcd179","66620a1bacf5a186eab742dc","null","","null","","","","","","","","./tasks/HMM-beads/Images/WhiteBeadChoice.png","","","","","","","","","",""
"image-keyboard-response","237","605673","0.0-3.0-6.0-1.0-2.33","5edcadb5e81cb9000c4b07e0","6662009ae78f21dd82fcd179","66620a1bacf5a186eab742dc","null","","null","","","","","","","","./tasks/HMM-beads/Images/WhiteBeadChoiceCorrect.png","","","","","","","","","",""
"image-keyboard-response","238","605860","0.0-3.0-6.0-1.0-0.34","5edcadb5e81cb9000c4b07e0","6662009ae78f21dd82fcd179","66620a1bacf5a186eab742dc","187","","j","","","","","","","","./tasks/HMM-beads/Images/NewTrialWC.png","lowH","1","34","1","1","1","1","true","",""
"image-keyboard-response","239","606174","0.0-3.0-6.0-1.0-1.34","5edcadb5e81cb9000c4b07e0","6662009ae78f21dd82fcd179","66620a1bacf5a186eab742dc","null","","null","","","","","","","","./tasks/HMM-beads/Images/WhiteBeadChoice.png","","","","","","","","","",""
"image-keyboard-response","240","606687","0.0-3.0-6.0-1.0-2.34","5edcadb5e81cb9000c4b07e0","6662009ae78f21dd82fcd179","66620a1bacf5a186eab742dc","null","","null","","","","","","","","./tasks/HMM-beads/Images/WhiteBeadChoiceCorrect.png","","","","","","","","","",""
"image-keyboard-response","241","606812","0.0-3.0-6.0-1.0-0.35","5edcadb5e81cb9000c4b07e0","6662009ae78f21dd82fcd179","66620a1bacf5a186eab742dc","124","","j","","","","","","","","./tasks/HMM-beads/Images/NewTrialWC.png","lowH","1","35","1","1","1","1","true","",""
"image-keyboard-response","242","607119","0.0-3.0-6.0-1.0-1.35","5edcadb5e81cb9000c4b07e0","6662009ae78f21dd82fcd179","66620a1bacf5a186eab742dc","null","","null","","","","","","","","./tasks/HMM-beads/Images/WhiteBeadChoice.png","","","","","","","","","",""
"image-keyboard-response","243","607634","0.0-3.0-6.0-1.0-2.35","5edcadb5e81cb9000c4b07e0","6662009ae78f21dd82fcd179","66620a1bacf5a186eab742dc","null","","null","","","","","","","","./tasks/HMM-beads/Images/WhiteBeadChoiceCorrect.png","","","","","","","","","",""
"image-keyboard-response","244","607878","0.0-3.0-6.0-1.0-0.36","5edcadb5e81cb9000c4b07e0","6662009ae78f21dd82fcd179","66620a1bacf5a186eab742dc","243","","j","","","","","","","","./tasks/HMM-beads/Images/NewTrialWC.png","lowH","1","36","1","1","1","1","true","",""
"image-keyboard-response","245","608192","0.0-3.0-6.0-1.0-1.36","5edcadb5e81cb9000c4b07e0","6662009ae78f21dd82fcd179","66620a1bacf5a186eab742dc","null","","null","","","","","","","","./tasks/HMM-beads/Images/WhiteBeadChoice.png","","","","","","","","","",""
"image-keyboard-response","246","608693","0.0-3.0-6.0-1.0-2.36","5edcadb5e81cb9000c4b07e0","6662009ae78f21dd82fcd179","66620a1bacf5a186eab742dc","null","","null","","","","","","","","./tasks/HMM-beads/Images/WhiteBeadChoiceCorrect.png","","","","","","","","","",""
"image-keyboard-response","247","608917","0.0-3.0-6.0-1.0-0.37","5edcadb5e81cb9000c4b07e0","6662009ae78f21dd82fcd179","66620a1bacf5a186eab742dc","223","","j","","","","","","","","./tasks/HMM-beads/Images/NewTrialWC.png","lowH","1","37","1","1","1","1","true","",""
"image-keyboard-response","248","609218","0.0-3.0-6.0-1.0-1.37","5edcadb5e81cb9000c4b07e0","6662009ae78f21dd82fcd179","66620a1bacf5a186eab742dc","null","","null","","","","","","","","./tasks/HMM-beads/Images/WhiteBeadChoice.png","","","","","","","","","",""
"image-keyboard-response","249","609732","0.0-3.0-6.0-1.0-2.37","5edcadb5e81cb9000c4b07e0","6662009ae78f21dd82fcd179","66620a1bacf5a186eab742dc","null","","null","","","","","","","","./tasks/HMM-beads/Images/WhiteBeadChoiceCorrect.png","","","","","","","","","",""
"image-keyboard-response","250","609948","0.0-3.0-6.0-1.0-0.38","5edcadb5e81cb9000c4b07e0","6662009ae78f21dd82fcd179","66620a1bacf5a186eab742dc","216","","j","","","","","","","","./tasks/HMM-beads/Images/NewTrialWC.png","lowH","1","38","1","1","1","1","true","",""
"image-keyboard-response","251","610257","0.0-3.0-6.0-1.0-1.38","5edcadb5e81cb9000c4b07e0","6662009ae78f21dd82fcd179","66620a1bacf5a186eab742dc","null","","null","","","","","","","","./tasks/HMM-beads/Images/WhiteBeadChoice.png","","","","","","","","","",""
"image-keyboard-response","252","610769","0.0-3.0-6.0-1.0-2.38","5edcadb5e81cb9000c4b07e0","6662009ae78f21dd82fcd179","66620a1bacf5a186eab742dc","null","","null","","","","","","","","./tasks/HMM-beads/Images/WhiteBeadChoiceCorrect.png","","","","","","","","","",""
"image-keyboard-response","253","610940","0.0-3.0-6.0-1.0-0.39","5edcadb5e81cb9000c4b07e0","6662009ae78f21dd82fcd179","66620a1bacf5a186eab742dc","171","","j","","","","","","","","./tasks/HMM-beads/Images/NewTrialWC.png","lowH","1","39","1","1","1","1","true","",""
"image-keyboard-response","254","611254","0.0-3.0-6.0-1.0-1.39","5edcadb5e81cb9000c4b07e0","6662009ae78f21dd82fcd179","66620a1bacf5a186eab742dc","null","","null","","","","","","","","./tasks/HMM-beads/Images/WhiteBeadChoice.png","","","","","","","","","",""
"image-keyboard-response","255","611765","0.0-3.0-6.0-1.0-2.39","5edcadb5e81cb9000c4b07e0","6662009ae78f21dd82fcd179","66620a1bacf5a186eab742dc","null","","null","","","","","","","","./tasks/HMM-beads/Images/WhiteBeadChoiceCorrect.png","","","","","","","","","",""
"image-keyboard-response","256","612004","0.0-3.0-6.0-1.0-0.40","5edcadb5e81cb9000c4b07e0","6662009ae78f21dd82fcd179","66620a1bacf5a186eab742dc","238","","j","","","","","","","","./tasks/HMM-beads/Images/NewTrialWC.png","lowH","1","40","1","1","1","1","true","",""
"image-keyboard-response","257","612319","0.0-3.0-6.0-1.0-1.40","5edcadb5e81cb9000c4b07e0","6662009ae78f21dd82fcd179","66620a1bacf5a186eab742dc","null","","null","","","","","","","","./tasks/HMM-beads/Images/WhiteBeadChoice.png","","","","","","","","","",""
"image-keyboard-response","258","612832","0.0-3.0-6.0-1.0-2.40","5edcadb5e81cb9000c4b07e0","6662009ae78f21dd82fcd179","66620a1bacf5a186eab742dc","null","","null","","","","","","","","./tasks/HMM-beads/Images/WhiteBeadChoiceCorrect.png","","","","","","","","","",""
"image-keyboard-response","259","613076","0.0-3.0-6.0-1.0-0.41","5edcadb5e81cb9000c4b07e0","6662009ae78f21dd82fcd179","66620a1bacf5a186eab742dc","243","","j","","","","","","","","./tasks/HMM-beads/Images/NewTrialWC.png","lowH","1","41","1","1","1","1","true","",""
"image-keyboard-response","260","613378","0.0-3.0-6.0-1.0-1.41","5edcadb5e81cb9000c4b07e0","6662009ae78f21dd82fcd179","66620a1bacf5a186eab742dc","null","","null","","","","","","","","./tasks/HMM-beads/Images/WhiteBeadChoice.png","","","","","","","","","",""
"image-keyboard-response","261","613888","0.0-3.0-6.0-1.0-2.41","5edcadb5e81cb9000c4b07e0","6662009ae78f21dd82fcd179","66620a1bacf5a186eab742dc","null","","null","","","","","","","","./tasks/HMM-beads/Images/WhiteBeadChoiceCorrect.png","","","","","","","","","",""
"image-keyboard-response","262","614116","0.0-3.0-6.0-1.0-0.42","5edcadb5e81cb9000c4b07e0","6662009ae78f21dd82fcd179","66620a1bacf5a186eab742dc","227","","j","","","","","","","","./tasks/HMM-beads/Images/NewTrialWC.png","lowH","1","42","1","1","1","1","true","",""
"image-keyboard-response","263","614420","0.0-3.0-6.0-1.0-1.42","5edcadb5e81cb9000c4b07e0","6662009ae78f21dd82fcd179","66620a1bacf5a186eab742dc","null","","null","","","","","","","","./tasks/HMM-beads/Images/WhiteBeadChoice.png","","","","","","","","","",""
"image-keyboard-response","264","614934","0.0-3.0-6.0-1.0-2.42","5edcadb5e81cb9000c4b07e0","6662009ae78f21dd82fcd179","66620a1bacf5a186eab742dc","null","","null","","","","","","","","./tasks/HMM-beads/Images/WhiteBeadChoiceCorrect.png","","","","","","","","","",""
"image-keyboard-response","265","615140","0.0-3.0-6.0-1.0-0.43","5edcadb5e81cb9000c4b07e0","6662009ae78f21dd82fcd179","66620a1bacf5a186eab742dc","205","","j","","","","","","","","./tasks/HMM-beads/Images/NewTrialWC.png","lowH","1","43","1","1","1","1","true","",""
"image-keyboard-response","266","615444","0.0-3.0-6.0-1.0-1.43","5edcadb5e81cb9000c4b07e0","6662009ae78f21dd82fcd179","66620a1bacf5a186eab742dc","null","","null","","","","","","","","./tasks/HMM-beads/Images/WhiteBeadChoice.png","","","","","","","","","",""
"image-keyboard-response","267","615955","0.0-3.0-6.0-1.0-2.43","5edcadb5e81cb9000c4b07e0","6662009ae78f21dd82fcd179","66620a1bacf5a186eab742dc","null","","null","","","","","","","","./tasks/HMM-beads/Images/WhiteBeadChoiceCorrect.png","","","","","","","","","",""
"image-keyboard-response","268","615988","0.0-3.0-6.0-1.0-0.44","5edcadb5e81cb9000c4b07e0","6662009ae78f21dd82fcd179","66620a1bacf5a186eab742dc","31","","j","","","","","","","","./tasks/HMM-beads/Images/NewTrialWC.png","lowH","1","44","1","1","1","1","true","",""
"image-keyboard-response","269","616295","0.0-3.0-6.0-1.0-1.44","5edcadb5e81cb9000c4b07e0","6662009ae78f21dd82fcd179","66620a1bacf5a186eab742dc","null","","null","","","","","","","","./tasks/HMM-beads/Images/WhiteBeadChoice.png","","","","","","","","","",""
"image-keyboard-response","270","616804","0.0-3.0-6.0-1.0-2.44","5edcadb5e81cb9000c4b07e0","6662009ae78f21dd82fcd179","66620a1bacf5a186eab742dc","null","","null","","","","","","","","./tasks/HMM-beads/Images/WhiteBeadChoiceCorrect.png","","","","","","","","","",""
"image-keyboard-response","271","616876","0.0-3.0-6.0-1.0-0.45","5edcadb5e81cb9000c4b07e0","6662009ae78f21dd82fcd179","66620a1bacf5a186eab742dc","71","","j","","","","","","","","./tasks/HMM-beads/Images/NewTrialWC.png","lowH","1","45","1","1","1","1","true","",""
"image-keyboard-response","272","617190","0.0-3.0-6.0-1.0-1.45","5edcadb5e81cb9000c4b07e0","6662009ae78f21dd82fcd179","66620a1bacf5a186eab742dc","null","","null","","","","","","","","./tasks/HMM-beads/Images/WhiteBeadChoice.png","","","","","","","","","",""
"image-keyboard-response","273","617692","0.0-3.0-6.0-1.0-2.45","5edcadb5e81cb9000c4b07e0","6662009ae78f21dd82fcd179","66620a1bacf5a186eab742dc","null","","null","","","","","","","","./tasks/HMM-beads/Images/WhiteBeadChoiceCorrect.png","","","","","","","","","",""
"image-keyboard-response","274","617700","0.0-3.0-6.0-1.0-0.46","5edcadb5e81cb9000c4b07e0","6662009ae78f21dd82fcd179","66620a1bacf5a186eab742dc","7","","j","","","","","","","","./tasks/HMM-beads/Images/NewTrialWC.png","lowH","1","46","1","1","1","1","true","",""
"image-keyboard-response","275","618001","0.0-3.0-6.0-1.0-1.46","5edcadb5e81cb9000c4b07e0","6662009ae78f21dd82fcd179","66620a1bacf5a186eab742dc","null","","null","","","","","","","","./tasks/HMM-beads/Images/WhiteBeadChoice.png","","","","","","","","","",""
"image-keyboard-response","276","618512","0.0-3.0-6.0-1.0-2.46","5edcadb5e81cb9000c4b07e0","6662009ae78f21dd82fcd179","66620a1bacf5a186eab742dc","null","","null","","","","","","","","./tasks/HMM-beads/Images/WhiteBeadChoiceCorrect.png","","","","","","","","","",""
"image-keyboard-response","277","618524","0.0-3.0-6.0-1.0-0.47","5edcadb5e81cb9000c4b07e0","6662009ae78f21dd82fcd179","66620a1bacf5a186eab742dc","12","","j","","","","","","","","./tasks/HMM-beads/Images/NewTrialWC.png","lowH","1","47","1","0","1","1","false","",""
"image-keyboard-response","278","618839","0.0-3.0-6.0-1.0-1.47","5edcadb5e81cb9000c4b07e0","6662009ae78f21dd82fcd179","66620a1bacf5a186eab742dc","null","","null","","","","","","","","./tasks/HMM-beads/Images/WhiteBeadChoice.png","","","","","","","","","",""
"image-keyboard-response","279","619352","0.0-3.0-6.0-1.0-2.47","5edcadb5e81cb9000c4b07e0","6662009ae78f21dd82fcd179","66620a1bacf5a186eab742dc","null","","null","","","","","","","","./tasks/HMM-beads/Images/WhiteBeadChoiceWrong.png","","","","","","","","","",""
"image-keyboard-response","280","619709","0.0-3.0-6.0-1.0-0.48","5edcadb5e81cb9000c4b07e0","6662009ae78f21dd82fcd179","66620a1bacf5a186eab742dc","356","","j","","","","","","","","./tasks/HMM-beads/Images/NewTrialBC.png","lowH","1","48","1","0","0","1","false","",""
"image-keyboard-response","281","620017","0.0-3.0-6.0-1.0-1.48","5edcadb5e81cb9000c4b07e0","6662009ae78f21dd82fcd179","66620a1bacf5a186eab742dc","null","","null","","","","","","","","./tasks/HMM-beads/Images/WhiteBeadChoice.png","","","","","","","","","",""
"image-keyboard-response","282","620533","0.0-3.0-6.0-1.0-2.48","5edcadb5e81cb9000c4b07e0","6662009ae78f21dd82fcd179","66620a1bacf5a186eab742dc","null","","null","","","","","","","","./tasks/HMM-beads/Images/WhiteBeadChoiceWrong.png","","","","","","","","","",""
"image-keyboard-response","283","621244","0.0-3.0-6.0-1.0-0.49","5edcadb5e81cb9000c4b07e0","6662009ae78f21dd82fcd179","66620a1bacf5a186eab742dc","711","","f","","","","","","","","./tasks/HMM-beads/Images/NewTrialBC.png","lowH","1","49","1","0","0","0","true","",""
"image-keyboard-response","284","621555","0.0-3.0-6.0-1.0-1.49","5edcadb5e81cb9000c4b07e0","6662009ae78f21dd82fcd179","66620a1bacf5a186eab742dc","null","","null","","","","","","","","./tasks/HMM-beads/Images/BlackBeadChoice.png","","","","","","","","","",""
"image-keyboard-response","285","622067","0.0-3.0-6.0-1.0-2.49","5edcadb5e81cb9000c4b07e0","6662009ae78f21dd82fcd179","66620a1bacf5a186eab742dc","null","","null","","","","","","","","./tasks/HMM-beads/Images/BlackBeadChoiceCorrect.png","","","","","","","","","",""
"image-keyboard-response","286","622332","0.0-3.0-6.0-1.0-0.50","5edcadb5e81cb9000c4b07e0","6662009ae78f21dd82fcd179","66620a1bacf5a186eab742dc","264","","f","","","","","","","","./tasks/HMM-beads/Images/NewTrialBC.png","lowH","1","50","1","1","0","0","false","",""
"image-keyboard-response","287","622642","0.0-3.0-6.0-1.0-1.50","5edcadb5e81cb9000c4b07e0","6662009ae78f21dd82fcd179","66620a1bacf5a186eab742dc","null","","null","","","","","","","","./tasks/HMM-beads/Images/BlackBeadChoice.png","","","","","","","","","",""
"image-keyboard-response","288","623154","0.0-3.0-6.0-1.0-2.50","5edcadb5e81cb9000c4b07e0","6662009ae78f21dd82fcd179","66620a1bacf5a186eab742dc","null","","null","","","","","","","","./tasks/HMM-beads/Images/BlackBeadChoiceWrong.png","","","","","","","","","",""
"image-keyboard-response","289","623580","0.0-3.0-6.0-1.0-0.51","5edcadb5e81cb9000c4b07e0","6662009ae78f21dd82fcd179","66620a1bacf5a186eab742dc","425","","f","","","","","","","","./tasks/HMM-beads/Images/NewTrialWC.png","lowH","1","51","1","1","1","0","false","",""
"image-keyboard-response","290","623891","0.0-3.0-6.0-1.0-1.51","5edcadb5e81cb9000c4b07e0","6662009ae78f21dd82fcd179","66620a1bacf5a186eab742dc","null","","null","","","","","","","","./tasks/HMM-beads/Images/BlackBeadChoice.png","","","","","","","","","",""
"image-keyboard-response","291","624399","0.0-3.0-6.0-1.0-2.51","5edcadb5e81cb9000c4b07e0","6662009ae78f21dd82fcd179","66620a1bacf5a186eab742dc","null","","null","","","","","","","","./tasks/HMM-beads/Images/BlackBeadChoiceWrong.png","","","","","","","","","",""
"image-keyboard-response","292","624572","0.0-3.0-6.0-1.0-0.52","5edcadb5e81cb9000c4b07e0","6662009ae78f21dd82fcd179","66620a1bacf5a186eab742dc","172","","j","","","","","","","","./tasks/HMM-beads/Images/NewTrialWC.png","lowH","1","52","1","1","1","1","true","",""
"image-keyboard-response","293","624884","0.0-3.0-6.0-1.0-1.52","5edcadb5e81cb9000c4b07e0","6662009ae78f21dd82fcd179","66620a1bacf5a186eab742dc","null","","null","","","","","","","","./tasks/HMM-beads/Images/WhiteBeadChoice.png","","","","","","","","","",""
"image-keyboard-response","294","625398","0.0-3.0-6.0-1.0-2.52","5edcadb5e81cb9000c4b07e0","6662009ae78f21dd82fcd179","66620a1bacf5a186eab742dc","null","","null","","","","","","","","./tasks/HMM-beads/Images/WhiteBeadChoiceCorrect.png","","","","","","","","","",""
"image-keyboard-response","295","625548","0.0-3.0-6.0-1.0-0.53","5edcadb5e81cb9000c4b07e0","6662009ae78f21dd82fcd179","66620a1bacf5a186eab742dc","149","","j","","","","","","","","./tasks/HMM-beads/Images/NewTrialWC.png","lowH","1","53","1","1","1","1","true","",""
"image-keyboard-response","296","625850","0.0-3.0-6.0-1.0-1.53","5edcadb5e81cb9000c4b07e0","6662009ae78f21dd82fcd179","66620a1bacf5a186eab742dc","null","","null","","","","","","","","./tasks/HMM-beads/Images/WhiteBeadChoice.png","","","","","","","","","",""
"image-keyboard-response","297","626360","0.0-3.0-6.0-1.0-2.53","5edcadb5e81cb9000c4b07e0","6662009ae78f21dd82fcd179","66620a1bacf5a186eab742dc","null","","null","","","","","","","","./tasks/HMM-beads/Images/WhiteBeadChoiceCorrect.png","","","","","","","","","",""
"image-keyboard-response","298","626580","0.0-3.0-6.0-1.0-0.54","5edcadb5e81cb9000c4b07e0","6662009ae78f21dd82fcd179","66620a1bacf5a186eab742dc","219","","j","","","","","","","","./tasks/HMM-beads/Images/NewTrialWC.png","lowH","1","54","1","1","1","1","true","",""
"image-keyboard-response","299","626893","0.0-3.0-6.0-1.0-1.54","5edcadb5e81cb9000c4b07e0","6662009ae78f21dd82fcd179","66620a1bacf5a186eab742dc","null","","null","","","","","","","","./tasks/HMM-beads/Images/WhiteBeadChoice.png","","","","","","","","","",""
"image-keyboard-response","300","627406","0.0-3.0-6.0-1.0-2.54","5edcadb5e81cb9000c4b07e0","6662009ae78f21dd82fcd179","66620a1bacf5a186eab742dc","null","","null","","","","","","","","./tasks/HMM-beads/Images/WhiteBeadChoiceCorrect.png","","","","","","","","","",""
"image-keyboard-response","301","627564","0.0-3.0-6.0-1.0-0.55","5edcadb5e81cb9000c4b07e0","6662009ae78f21dd82fcd179","66620a1bacf5a186eab742dc","158","","j","","","","","","","","./tasks/HMM-beads/Images/NewTrialWC.png","lowH","1","55","1","1","1","1","true","",""
"image-keyboard-response","302","627872","0.0-3.0-6.0-1.0-1.55","5edcadb5e81cb9000c4b07e0","6662009ae78f21dd82fcd179","66620a1bacf5a186eab742dc","null","","null","","","","","","","","./tasks/HMM-beads/Images/WhiteBeadChoice.png","","","","","","","","","",""
"image-keyboard-response","303","628374","0.0-3.0-6.0-1.0-2.55","5edcadb5e81cb9000c4b07e0","6662009ae78f21dd82fcd179","66620a1bacf5a186eab742dc","null","","null","","","","","","","","./tasks/HMM-beads/Images/WhiteBeadChoiceCorrect.png","","","","","","","","","",""
"image-keyboard-response","304","628572","0.0-3.0-6.0-1.0-0.56","5edcadb5e81cb9000c4b07e0","6662009ae78f21dd82fcd179","66620a1bacf5a186eab742dc","197","","j","","","","","","","","./tasks/HMM-beads/Images/NewTrialWC.png","lowH","1","56","1","1","1","1","true","",""
"image-keyboard-response","305","628885","0.0-3.0-6.0-1.0-1.56","5edcadb5e81cb9000c4b07e0","6662009ae78f21dd82fcd179","66620a1bacf5a186eab742dc","null","","null","","","","","","","","./tasks/HMM-beads/Images/WhiteBeadChoice.png","","","","","","","","","",""
"image-keyboard-response","306","629400","0.0-3.0-6.0-1.0-2.56","5edcadb5e81cb9000c4b07e0","6662009ae78f21dd82fcd179","66620a1bacf5a186eab742dc","null","","null","","","","","","","","./tasks/HMM-beads/Images/WhiteBeadChoiceCorrect.png","","","","","","","","","",""
"image-keyboard-response","307","629476","0.0-3.0-6.0-1.0-0.57","5edcadb5e81cb9000c4b07e0","6662009ae78f21dd82fcd179","66620a1bacf5a186eab742dc","76","","j","","","","","","","","./tasks/HMM-beads/Images/NewTrialWC.png","lowH","1","57","1","1","1","1","true","",""
"image-keyboard-response","308","629789","0.0-3.0-6.0-1.0-1.57","5edcadb5e81cb9000c4b07e0","6662009ae78f21dd82fcd179","66620a1bacf5a186eab742dc","null","","null","","","","","","","","./tasks/HMM-beads/Images/WhiteBeadChoice.png","","","","","","","","","",""
"image-keyboard-response","309","630298","0.0-3.0-6.0-1.0-2.57","5edcadb5e81cb9000c4b07e0","6662009ae78f21dd82fcd179","66620a1bacf5a186eab742dc","null","","null","","","","","","","","./tasks/HMM-beads/Images/WhiteBeadChoiceCorrect.png","","","","","","","","","",""
"image-keyboard-response","310","630836","0.0-3.0-6.0-1.0-0.58","5edcadb5e81cb9000c4b07e0","6662009ae78f21dd82fcd179","66620a1bacf5a186eab742dc","537","","j","","","","","","","","./tasks/HMM-beads/Images/NewTrialWC.png","lowH","1","58","1","1","1","1","true","",""
"image-keyboard-response","311","631145","0.0-3.0-6.0-1.0-1.58","5edcadb5e81cb9000c4b07e0","6662009ae78f21dd82fcd179","66620a1bacf5a186eab742dc","null","","null","","","","","","","","./tasks/HMM-beads/Images/WhiteBeadChoice.png","","","","","","","","","",""
"image-keyboard-response","312","631656","0.0-3.0-6.0-1.0-2.58","5edcadb5e81cb9000c4b07e0","6662009ae78f21dd82fcd179","66620a1bacf5a186eab742dc","null","","null","","","","","","","","./tasks/HMM-beads/Images/WhiteBeadChoiceCorrect.png","","","","","","","","","",""
"image-keyboard-response","313","631884","0.0-3.0-6.0-1.0-0.59","5edcadb5e81cb9000c4b07e0","6662009ae78f21dd82fcd179","66620a1bacf5a186eab742dc","227","","j","","","","","","","","./tasks/HMM-beads/Images/NewTrialWC.png","lowH","1","59","1","0","1","1","false","",""
"image-keyboard-response","314","632187","0.0-3.0-6.0-1.0-1.59","5edcadb5e81cb9000c4b07e0","6662009ae78f21dd82fcd179","66620a1bacf5a186eab742dc","null","","null","","","","","","","","./tasks/HMM-beads/Images/WhiteBeadChoice.png","","","","","","","","","",""
"image-keyboard-response","315","632696","0.0-3.0-6.0-1.0-2.59","5edcadb5e81cb9000c4b07e0","6662009ae78f21dd82fcd179","66620a1bacf5a186eab742dc","null","","null","","","","","","","","./tasks/HMM-beads/Images/WhiteBeadChoiceWrong.png","","","","","","","","","",""
"image-keyboard-response","316","633156","0.0-3.0-6.0-1.0-0.60","5edcadb5e81cb9000c4b07e0","6662009ae78f21dd82fcd179","66620a1bacf5a186eab742dc","459","","j","","","","","","","","./tasks/HMM-beads/Images/NewTrialBC.png","lowH","1","60","1","1","0","1","true","",""
"image-keyboard-response","317","633457","0.0-3.0-6.0-1.0-1.60","5edcadb5e81cb9000c4b07e0","6662009ae78f21dd82fcd179","66620a1bacf5a186eab742dc","null","","null","","","","","","","","./tasks/HMM-beads/Images/WhiteBeadChoice.png","","","","","","","","","",""
"image-keyboard-response","318","633964","0.0-3.0-6.0-1.0-2.60","5edcadb5e81cb9000c4b07e0","6662009ae78f21dd82fcd179","66620a1bacf5a186eab742dc","null","","null","","","","","","","","./tasks/HMM-beads/Images/WhiteBeadChoiceCorrect.png","","","","","","","","","",""
"image-keyboard-response","319","634220","0.0-3.0-6.0-1.0-0.61","5edcadb5e81cb9000c4b07e0","6662009ae78f21dd82fcd179","66620a1bacf5a186eab742dc","255","","j","","","","","","","","./tasks/HMM-beads/Images/NewTrialWC.png","lowH","1","61","1","1","1","1","true","",""
"image-keyboard-response","320","634524","0.0-3.0-6.0-1.0-1.61","5edcadb5e81cb9000c4b07e0","6662009ae78f21dd82fcd179","66620a1bacf5a186eab742dc","null","","null","","","","","","","","./tasks/HMM-beads/Images/WhiteBeadChoice.png","","","","","","","","","",""
"image-keyboard-response","321","635034","0.0-3.0-6.0-1.0-2.61","5edcadb5e81cb9000c4b07e0","6662009ae78f21dd82fcd179","66620a1bacf5a186eab742dc","null","","null","","","","","","","","./tasks/HMM-beads/Images/WhiteBeadChoiceCorrect.png","","","","","","","","","",""
"image-keyboard-response","322","635260","0.0-3.0-6.0-1.0-0.62","5edcadb5e81cb9000c4b07e0","6662009ae78f21dd82fcd179","66620a1bacf5a186eab742dc","225","","j","","","","","","","","./tasks/HMM-beads/Images/NewTrialWC.png","lowH","1","62","1","0","1","1","false","",""
"image-keyboard-response","323","635576","0.0-3.0-6.0-1.0-1.62","5edcadb5e81cb9000c4b07e0","6662009ae78f21dd82fcd179","66620a1bacf5a186eab742dc","null","","null","","","","","","","","./tasks/HMM-beads/Images/WhiteBeadChoice.png","","","","","","","","","",""
"image-keyboard-response","324","636089","0.0-3.0-6.0-1.0-2.62","5edcadb5e81cb9000c4b07e0","6662009ae78f21dd82fcd179","66620a1bacf5a186eab742dc","null","","null","","","","","","","","./tasks/HMM-beads/Images/WhiteBeadChoiceWrong.png","","","","","","","","","",""
"image-keyboard-response","325","636372","0.0-3.0-6.0-1.0-0.63","5edcadb5e81cb9000c4b07e0","6662009ae78f21dd82fcd179","66620a1bacf5a186eab742dc","282","","j","","","","","","","","./tasks/HMM-beads/Images/NewTrialBC.png","lowH","1","63","1","1","0","1","true","",""
"image-keyboard-response","326","636679","0.0-3.0-6.0-1.0-1.63","5edcadb5e81cb9000c4b07e0","6662009ae78f21dd82fcd179","66620a1bacf5a186eab742dc","null","","null","","","","","","","","./tasks/HMM-beads/Images/WhiteBeadChoice.png","","","","","","","","","",""
"image-keyboard-response","327","637191","0.0-3.0-6.0-1.0-2.63","5edcadb5e81cb9000c4b07e0","6662009ae78f21dd82fcd179","66620a1bacf5a186eab742dc","null","","null","","","","","","","","./tasks/HMM-beads/Images/WhiteBeadChoiceCorrect.png","","","","","","","","","",""
"image-keyboard-response","328","637428","0.0-3.0-6.0-1.0-0.64","5edcadb5e81cb9000c4b07e0","6662009ae78f21dd82fcd179","66620a1bacf5a186eab742dc","236","","j","","","","","","","","./tasks/HMM-beads/Images/NewTrialWC.png","lowH","1","64","1","1","1","1","true","",""
"image-keyboard-response","329","637734","0.0-3.0-6.0-1.0-1.64","5edcadb5e81cb9000c4b07e0","6662009ae78f21dd82fcd179","66620a1bacf5a186eab742dc","null","","null","","","","","","","","./tasks/HMM-beads/Images/WhiteBeadChoice.png","","","","","","","","","",""
"image-keyboard-response","330","638249","0.0-3.0-6.0-1.0-2.64","5edcadb5e81cb9000c4b07e0","6662009ae78f21dd82fcd179","66620a1bacf5a186eab742dc","null","","null","","","","","","","","./tasks/HMM-beads/Images/WhiteBeadChoiceCorrect.png","","","","","","","","","",""
"image-keyboard-response","331","638499","0.0-3.0-6.0-1.0-0.65","5edcadb5e81cb9000c4b07e0","6662009ae78f21dd82fcd179","66620a1bacf5a186eab742dc","250","","j","","","","","","","","./tasks/HMM-beads/Images/NewTrialWC.png","lowH","1","65","1","1","1","1","true","",""
"image-keyboard-response","332","638807","0.0-3.0-6.0-1.0-1.65","5edcadb5e81cb9000c4b07e0","6662009ae78f21dd82fcd179","66620a1bacf5a186eab742dc","null","","null","","","","","","","","./tasks/HMM-beads/Images/WhiteBeadChoice.png","","","","","","","","","",""
"image-keyboard-response","333","639320","0.0-3.0-6.0-1.0-2.65","5edcadb5e81cb9000c4b07e0","6662009ae78f21dd82fcd179","66620a1bacf5a186eab742dc","null","","null","","","","","","","","./tasks/HMM-beads/Images/WhiteBeadChoiceCorrect.png","","","","","","","","","",""
"image-keyboard-response","334","639627","0.0-3.0-6.0-1.0-0.66","5edcadb5e81cb9000c4b07e0","6662009ae78f21dd82fcd179","66620a1bacf5a186eab742dc","306","","j","","","","","","","","./tasks/HMM-beads/Images/NewTrialWC.png","lowH","1","66","1","1","1","1","true","",""
"image-keyboard-response","335","639941","0.0-3.0-6.0-1.0-1.66","5edcadb5e81cb9000c4b07e0","6662009ae78f21dd82fcd179","66620a1bacf5a186eab742dc","null","","null","","","","","","","","./tasks/HMM-beads/Images/WhiteBeadChoice.png","","","","","","","","","",""
"image-keyboard-response","336","640455","0.0-3.0-6.0-1.0-2.66","5edcadb5e81cb9000c4b07e0","6662009ae78f21dd82fcd179","66620a1bacf5a186eab742dc","null","","null","","","","","","","","./tasks/HMM-beads/Images/WhiteBeadChoiceCorrect.png","","","","","","","","","",""
"image-keyboard-response","337","640668","0.0-3.0-6.0-1.0-0.67","5edcadb5e81cb9000c4b07e0","6662009ae78f21dd82fcd179","66620a1bacf5a186eab742dc","212","","j","","","","","","","","./tasks/HMM-beads/Images/NewTrialWC.png","lowH","1","67","1","0","1","1","false","",""
"image-keyboard-response","338","640969","0.0-3.0-6.0-1.0-1.67","5edcadb5e81cb9000c4b07e0","6662009ae78f21dd82fcd179","66620a1bacf5a186eab742dc","null","","null","","","","","","","","./tasks/HMM-beads/Images/WhiteBeadChoice.png","","","","","","","","","",""
"image-keyboard-response","339","641484","0.0-3.0-6.0-1.0-2.67","5edcadb5e81cb9000c4b07e0","6662009ae78f21dd82fcd179","66620a1bacf5a186eab742dc","null","","null","","","","","","","","./tasks/HMM-beads/Images/WhiteBeadChoiceWrong.png","","","","","","","","","",""
"image-keyboard-response","340","641757","0.0-3.0-6.0-1.0-0.68","5edcadb5e81cb9000c4b07e0","6662009ae78f21dd82fcd179","66620a1bacf5a186eab742dc","273","","j","","","","","","","","./tasks/HMM-beads/Images/NewTrialBC.png","lowH","1","68","1","1","0","1","true","",""
"image-keyboard-response","341","642059","0.0-3.0-6.0-1.0-1.68","5edcadb5e81cb9000c4b07e0","6662009ae78f21dd82fcd179","66620a1bacf5a186eab742dc","null","","null","","","","","","","","./tasks/HMM-beads/Images/WhiteBeadChoice.png","","","","","","","","","",""
"image-keyboard-response","342","642569","0.0-3.0-6.0-1.0-2.68","5edcadb5e81cb9000c4b07e0","6662009ae78f21dd82fcd179","66620a1bacf5a186eab742dc","null","","null","","","","","","","","./tasks/HMM-beads/Images/WhiteBeadChoiceCorrect.png","","","","","","","","","",""
"image-keyboard-response","343","643028","0.0-3.0-6.0-1.0-0.69","5edcadb5e81cb9000c4b07e0","6662009ae78f21dd82fcd179","66620a1bacf5a186eab742dc","457","","j","","","","","","","","./tasks/HMM-beads/Images/NewTrialWC.png","lowH","1","69","0","1","1","1","true","",""
"image-keyboard-response","344","643329","0.0-3.0-6.0-1.0-1.69","5edcadb5e81cb9000c4b07e0","6662009ae78f21dd82fcd179","66620a1bacf5a186eab742dc","null","","null","","","","","","","","./tasks/HMM-beads/Images/WhiteBeadChoice.png","","","","","","","","","",""
"image-keyboard-response","345","643836","0.0-3.0-6.0-1.0-2.69","5edcadb5e81cb9000c4b07e0","6662009ae78f21dd82fcd179","66620a1bacf5a186eab742dc","null","","null","","","","","","","","./tasks/HMM-beads/Images/WhiteBeadChoiceCorrect.png","","","","","","","","","",""
"image-keyboard-response","346","644100","0.0-3.0-6.0-1.0-0.70","5edcadb5e81cb9000c4b07e0","6662009ae78f21dd82fcd179","66620a1bacf5a186eab742dc","264","","j","","","","","","","","./tasks/HMM-beads/Images/NewTrialWC.png","lowH","1","70","0","1","1","1","true","",""
"image-keyboard-response","347","644412","0.0-3.0-6.0-1.0-1.70","5edcadb5e81cb9000c4b07e0","6662009ae78f21dd82fcd179","66620a1bacf5a186eab742dc","null","","null","","","","","","","","./tasks/HMM-beads/Images/WhiteBeadChoice.png","","","","","","","","","",""
"image-keyboard-response","348","644924","0.0-3.0-6.0-1.0-2.70","5edcadb5e81cb9000c4b07e0","6662009ae78f21dd82fcd179","66620a1bacf5a186eab742dc","null","","null","","","","","","","","./tasks/HMM-beads/Images/WhiteBeadChoiceCorrect.png","","","","","","","","","",""
"image-keyboard-response","349","645388","0.0-3.0-6.0-1.0-0.71","5edcadb5e81cb9000c4b07e0","6662009ae78f21dd82fcd179","66620a1bacf5a186eab742dc","462","","j","","","","","","","","./tasks/HMM-beads/Images/NewTrialWC.png","lowH","1","71","0","0","1","1","false","",""
"image-keyboard-response","350","645689","0.0-3.0-6.0-1.0-1.71","5edcadb5e81cb9000c4b07e0","6662009ae78f21dd82fcd179","66620a1bacf5a186eab742dc","null","","null","","","","","","","","./tasks/HMM-beads/Images/WhiteBeadChoice.png","","","","","","","","","",""
"image-keyboard-response","351","646198","0.0-3.0-6.0-1.0-2.71","5edcadb5e81cb9000c4b07e0","6662009ae78f21dd82fcd179","66620a1bacf5a186eab742dc","null","","null","","","","","","","","./tasks/HMM-beads/Images/WhiteBeadChoiceWrong.png","","","","","","","","","",""
"image-keyboard-response","352","646476","0.0-3.0-6.0-1.0-0.72","5edcadb5e81cb9000c4b07e0","6662009ae78f21dd82fcd179","66620a1bacf5a186eab742dc","277","","j","","","","","","","","./tasks/HMM-beads/Images/NewTrialBC.png","lowH","1","72","0","0","0","1","false","",""
"image-keyboard-response","353","646784","0.0-3.0-6.0-1.0-1.72","5edcadb5e81cb9000c4b07e0","6662009ae78f21dd82fcd179","66620a1bacf5a186eab742dc","null","","null","","","","","","","","./tasks/HMM-beads/Images/WhiteBeadChoice.png","","","","","","","","","",""
"image-keyboard-response","354","647297","0.0-3.0-6.0-1.0-2.72","5edcadb5e81cb9000c4b07e0","6662009ae78f21dd82fcd179","66620a1bacf5a186eab742dc","null","","null","","","","","","","","./tasks/HMM-beads/Images/WhiteBeadChoiceWrong.png","","","","","","","","","",""
"image-keyboard-response","355","647628","0.0-3.0-6.0-1.0-0.73","5edcadb5e81cb9000c4b07e0","6662009ae78f21dd82fcd179","66620a1bacf5a186eab742dc","330","","j","","","","","","","","./tasks/HMM-beads/Images/NewTrialBC.png","lowH","1","73","0","1","0","1","true","",""
"image-keyboard-response","356","647937","0.0-3.0-6.0-1.0-1.73","5edcadb5e81cb9000c4b07e0","6662009ae78f21dd82fcd179","66620a1bacf5a186eab742dc","null","","null","","","","","","","","./tasks/HMM-beads/Images/WhiteBeadChoice.png","","","","","","","","","",""
"image-keyboard-response","357","648438","0.0-3.0-6.0-1.0-2.73","5edcadb5e81cb9000c4b07e0","6662009ae78f21dd82fcd179","66620a1bacf5a186eab742dc","null","","null","","","","","","","","./tasks/HMM-beads/Images/WhiteBeadChoiceCorrect.png","","","","","","","","","",""
"image-keyboard-response","358","648699","0.0-3.0-6.0-1.0-0.74","5edcadb5e81cb9000c4b07e0","6662009ae78f21dd82fcd179","66620a1bacf5a186eab742dc","261","","j","","","","","","","","./tasks/HMM-beads/Images/NewTrialWC.png","lowH","1","74","0","0","1","1","false","",""
"image-keyboard-response","359","649013","0.0-3.0-6.0-1.0-1.74","5edcadb5e81cb9000c4b07e0","6662009ae78f21dd82fcd179","66620a1bacf5a186eab742dc","null","","null","","","","","","","","./tasks/HMM-beads/Images/WhiteBeadChoice.png","","","","","","","","","",""
"image-keyboard-response","360","649529","0.0-3.0-6.0-1.0-2.74","5edcadb5e81cb9000c4b07e0","6662009ae78f21dd82fcd179","66620a1bacf5a186eab742dc","null","","null","","","","","","","","./tasks/HMM-beads/Images/WhiteBeadChoiceWrong.png","","","","","","","","","",""
"image-keyboard-response","361","649828","0.0-3.0-6.0-1.0-0.75","5edcadb5e81cb9000c4b07e0","6662009ae78f21dd82fcd179","66620a1bacf5a186eab742dc","298","","j","","","","","","","","./tasks/HMM-beads/Images/NewTrialBC.png","lowH","1","75","0","1","0","1","true","",""
"image-keyboard-response","362","650135","0.0-3.0-6.0-1.0-1.75","5edcadb5e81cb9000c4b07e0","6662009ae78f21dd82fcd179","66620a1bacf5a186eab742dc","null","","null","","","","","","","","./tasks/HMM-beads/Images/WhiteBeadChoice.png","","","","","","","","","",""
"image-keyboard-response","363","650644","0.0-3.0-6.0-1.0-2.75","5edcadb5e81cb9000c4b07e0","6662009ae78f21dd82fcd179","66620a1bacf5a186eab742dc","null","","null","","","","","","","","./tasks/HMM-beads/Images/WhiteBeadChoiceCorrect.png","","","","","","","","","",""
"image-keyboard-response","364","650916","0.0-3.0-6.0-1.0-0.76","5edcadb5e81cb9000c4b07e0","6662009ae78f21dd82fcd179","66620a1bacf5a186eab742dc","271","","j","","","","","","","","./tasks/HMM-beads/Images/NewTrialWC.png","lowH","1","76","0","1","1","1","true","",""
"image-keyboard-response","365","651232","0.0-3.0-6.0-1.0-1.76","5edcadb5e81cb9000c4b07e0","6662009ae78f21dd82fcd179","66620a1bacf5a186eab742dc","null","","null","","","","","","","","./tasks/HMM-beads/Images/WhiteBeadChoice.png","","","","","","","","","",""
"image-keyboard-response","366","651747","0.0-3.0-6.0-1.0-2.76","5edcadb5e81cb9000c4b07e0","6662009ae78f21dd82fcd179","66620a1bacf5a186eab742dc","null","","null","","","","","","","","./tasks/HMM-beads/Images/WhiteBeadChoiceCorrect.png","","","","","","","","","",""
"image-keyboard-response","367","652075","0.0-3.0-6.0-1.0-0.77","5edcadb5e81cb9000c4b07e0","6662009ae78f21dd82fcd179","66620a1bacf5a186eab742dc","328","","j","","","","","","","","./tasks/HMM-beads/Images/NewTrialWC.png","lowH","1","77","0","0","1","1","false","",""
"image-keyboard-response","368","652382","0.0-3.0-6.0-1.0-1.77","5edcadb5e81cb9000c4b07e0","6662009ae78f21dd82fcd179","66620a1bacf5a186eab742dc","null","","null","","","","","","","","./tasks/HMM-beads/Images/WhiteBeadChoice.png","","","","","","","","","",""
"image-keyboard-response","369","652895","0.0-3.0-6.0-1.0-2.77","5edcadb5e81cb9000c4b07e0","6662009ae78f21dd82fcd179","66620a1bacf5a186eab742dc","null","","null","","","","","","","","./tasks/HMM-beads/Images/WhiteBeadChoiceWrong.png","","","","","","","","","",""
"image-keyboard-response","370","653124","0.0-3.0-6.0-1.0-0.78","5edcadb5e81cb9000c4b07e0","6662009ae78f21dd82fcd179","66620a1bacf5a186eab742dc","228","","j","","","","","","","","./tasks/HMM-beads/Images/NewTrialBC.png","lowH","1","78","0","0","0","1","false","",""
"image-keyboard-response","371","653437","0.0-3.0-6.0-1.0-1.78","5edcadb5e81cb9000c4b07e0","6662009ae78f21dd82fcd179","66620a1bacf5a186eab742dc","null","","null","","","","","","","","./tasks/HMM-beads/Images/WhiteBeadChoice.png","","","","","","","","","",""
"image-keyboard-response","372","653950","0.0-3.0-6.0-1.0-2.78","5edcadb5e81cb9000c4b07e0","6662009ae78f21dd82fcd179","66620a1bacf5a186eab742dc","null","","null","","","","","","","","./tasks/HMM-beads/Images/WhiteBeadChoiceWrong.png","","","","","","","","","",""
"image-keyboard-response","373","654260","0.0-3.0-6.0-1.0-0.79","5edcadb5e81cb9000c4b07e0","6662009ae78f21dd82fcd179","66620a1bacf5a186eab742dc","309","","j","","","","","","","","./tasks/HMM-beads/Images/NewTrialBC.png","lowH","1","79","0","0","0","1","false","",""
"image-keyboard-response","374","654568","0.0-3.0-6.0-1.0-1.79","5edcadb5e81cb9000c4b07e0","6662009ae78f21dd82fcd179","66620a1bacf5a186eab742dc","null","","null","","","","","","","","./tasks/HMM-beads/Images/WhiteBeadChoice.png","","","","","","","","","",""
