"trial_type","trial_index","time_elapsed","internal_node_id","subject_id","study_id","session_id","rt","url","response","question_order","view_history","success","timeout","failed_images","failed_audio","failed_video","stimulus","block","block_rep","trial_number","jar","bead","previous_bead","choice","correct","lowH_score","total_bonus"
"pavlovia","0","1217","0.0-0.0","61103c2b7810420e5f23f437","6662009ae78f21dd82fcd179","66620a7196bb7dd754b9e5f6","","","","","","","","","","","","","","","","","","","","",""
"external-html","1","26847","0.0-1.0-0.0","61103c2b7810420e5f23f437","6662009ae78f21dd82fcd179","66620a7196bb7dd754b9e5f6","25495","new_consent.html","","","","","","","","","","","","","","","","","","",""
"survey-multi-choice","2","32692","0.0-1.0-1.0","61103c2b7810420e5f23f437","6662009ae78f21dd82fcd179","66620a7196bb7dd754b9e5f6","5842","","{""Q0"":""Non-binary"",""Q1"":""White""}","[0,1]","","","","","","","","","","","","","","","","",""
"survey-text","3","35920","0.0-1.0-2.0","61103c2b7810420e5f23f437","6662009ae78f21dd82fcd179","66620a7196bb7dd754b9e5f6","3225","","{""Q0"":""25""}","","","","","","","","","","","","","","","","","",""
"instructions","4","37544","0.0-2.0","61103c2b7810420e5f23f437","6662009ae78f21dd82fcd179","66620a7196bb7dd754b9e5f6","1518","","","","[{""page_index"":0,""viewing_time"":1518}]","","","","","","","","","","","","","","","",""
"preload","5","39185","0.0-3.0-0.0","61103c2b7810420e5f23f437","6662009ae78f21dd82fcd179","66620a7196bb7dd754b9e5f6","","","","","","true","false","[]","[]","[]","","","","","","","","","","",""
"instructions","6","116514","0.0-3.0-1.0","61103c2b7810420e5f23f437","6662009ae78f21dd82fcd179","66620a7196bb7dd754b9e5f6","77328","","","","[{""page_index"":0,""viewing_time"":11197},{""page_index"":1,""viewing_time"":6793},{""page_index"":2,""viewing_time"":3020},{""page_index"":3,""viewing_time"":2537},{""page_index"":4,""viewing_time"":4633},{""page_index"":5,""viewing_time"":17496},{""page_index"":6,""viewing_time"":7333},{""page_index"":7,""viewing_time"":3518},{""page_index"":8,""viewing_time"":6154},{""page_index"":9,""viewing_time"":3922},{""page_index"":10,""viewing_time"":8822},{""page_index"":11,""viewing_time"":1903}]","","","","","","","","","","","","","","","",""
"html-button-response","7","119236","0.0-3.0-2.0-0.0-0.0","61103c2b7810420e5f23f437","6662009ae78f21dd82fcd179","66620a7196bb7dd754b9e5f6","2720","","1","","","","","","","","<div align=center>Your goal is to predict…?<br><br></div>","","","","","","","","","",""
"html-button-response","8","125725","0.0-3.0-2.0-1.0-0.0","61103c2b7810420e5f23f437","6662009ae78f21dd82fcd179","66620a7196bb7dd754b9e5f6","4777","","2","","","","","","","","<div align=center>In the jar with mostly white beads, there are ___% white beads and ___% black beads?<br><br></div>","","","","","","","","","",""
"html-button-response","9","132182","0.0-3.0-2.0-2.0-0.0","61103c2b7810420e5f23f437","6662009ae78f21dd82fcd179","66620a7196bb7dd754b9e5f6","4981","","0","","","","","","","","<div align=center>When there is a 1% probability that the jars will switch, the next bead will most likely be drawn from the…<br><br></div>","","","","","","","","","",""
"html-button-response","10","136160","0.0-3.0-2.0-3.0-0.0","61103c2b7810420e5f23f437","6662009ae78f21dd82fcd179","66620a7196bb7dd754b9e5f6","2647","","1","","","","","","","","<div align=center>When there is a 99% probability that the jars will switch, the next bead will most likely be drawn from the…<br><br></div>","","","","","","","","","",""
"instructions","11","145994","0.0-3.0-3.0","61103c2b7810420e5f23f437","6662009ae78f21dd82fcd179","66620a7196bb7dd754b9e5f6","7240","","","","[{""page_index"":0,""viewing_time"":7240}]","","","","","","","","","","","","","","","",""
"html-keyboard-response","12","150987","0.0-3.0-4.0-0.0","61103c2b7810420e5f23f437","6662009ae78f21dd82fcd179","66620a7196bb7dd754b9e5f6","4991",""," ","","","","","","","","<div align=center>In this practice block, there will be a <b>1% chance</b> that the jar on the next trial will be different from the jar on the current trial.<br><br></div>","","","","","","","","","",""
"image-keyboard-response","13","155551","0.0-3.0-4.0-1.0-0.0","61103c2b7810420e5f23f437","6662009ae78f21dd82fcd179","66620a7196bb7dd754b9e5f6","4557","","f","","","","","","","","./tasks/HMM-beads/Images/NoChoice.png","practice","0","0","0","0","9","0","true","",""
"image-keyboard-response","14","155864","0.0-3.0-4.0-1.0-1.0","61103c2b7810420e5f23f437","6662009ae78f21dd82fcd179","66620a7196bb7dd754b9e5f6","null","","null","","","","","","","","./tasks/HMM-beads/Images/BlackBeadChoice.png","","","","","","","","","",""
"image-keyboard-response","15","156377","0.0-3.0-4.0-1.0-2.0","61103c2b7810420e5f23f437","6662009ae78f21dd82fcd179","66620a7196bb7dd754b9e5f6","null","","null","","","","","","","","./tasks/HMM-beads/Images/BlackBeadChoiceCorrect.png","","","","","","","","","",""
"image-keyboard-response","16","158923","0.0-3.0-4.0-1.0-0.1","61103c2b7810420e5f23f437","6662009ae78f21dd82fcd179","66620a7196bb7dd754b9e5f6","2537","","f","","","","","","","","./tasks/HMM-beads/Images/NewTrialBC.png","practice","0","1","0","0","0","0","true","",""
"image-keyboard-response","17","159226","0.0-3.0-4.0-1.0-1.1","61103c2b7810420e5f23f437","6662009ae78f21dd82fcd179","66620a7196bb7dd754b9e5f6","null","","null","","","","","","","","./tasks/HMM-beads/Images/BlackBeadChoice.png","","","","","","","","","",""
"image-keyboard-response","18","159728","0.0-3.0-4.0-1.0-2.1","61103c2b7810420e5f23f437","6662009ae78f21dd82fcd179","66620a7196bb7dd754b9e5f6","null","","null","","","","","","","","./tasks/HMM-beads/Images/BlackBeadChoiceCorrect.png","","","","","","","","","",""
"image-keyboard-response","19","160502","0.0-3.0-4.0-1.0-0.2","61103c2b7810420e5f23f437","6662009ae78f21dd82fcd179","66620a7196bb7dd754b9e5f6","773","","f","","","","","","","","./tasks/HMM-beads/Images/NewTrialBC.png","practice","0","2","0","1","0","0","false","",""
"image-keyboard-response","20","160833","0.0-3.0-4.0-1.0-1.2","61103c2b7810420e5f23f437","6662009ae78f21dd82fcd179","66620a7196bb7dd754b9e5f6","null","","null","","","","","","","","./tasks/HMM-beads/Images/BlackBeadChoice.png","","","","","","","","","",""
"image-keyboard-response","21","161347","0.0-3.0-4.0-1.0-2.2","61103c2b7810420e5f23f437","6662009ae78f21dd82fcd179","66620a7196bb7dd754b9e5f6","null","","null","","","","","","","","./tasks/HMM-beads/Images/BlackBeadChoiceWrong.png","","","","","","","","","",""
"image-keyboard-response","22","162856","0.0-3.0-4.0-1.0-0.3","61103c2b7810420e5f23f437","6662009ae78f21dd82fcd179","66620a7196bb7dd754b9e5f6","1500","","f","","","","","","","","./tasks/HMM-beads/Images/NewTrialWC.png","practice","0","3","0","0","1","0","true","",""
"image-keyboard-response","23","163159","0.0-3.0-4.0-1.0-1.3","61103c2b7810420e5f23f437","6662009ae78f21dd82fcd179","66620a7196bb7dd754b9e5f6","null","","null","","","","","","","","./tasks/HMM-beads/Images/BlackBeadChoice.png","","","","","","","","","",""
"image-keyboard-response","24","163665","0.0-3.0-4.0-1.0-2.3","61103c2b7810420e5f23f437","6662009ae78f21dd82fcd179","66620a7196bb7dd754b9e5f6","null","","null","","","","","","","","./tasks/HMM-beads/Images/BlackBeadChoiceCorrect.png","","","","","","","","","",""
"image-keyboard-response","25","164293","0.0-3.0-4.0-1.0-0.4","61103c2b7810420e5f23f437","6662009ae78f21dd82fcd179","66620a7196bb7dd754b9e5f6","627","","f","","","","","","","","./tasks/HMM-beads/Images/NewTrialBC.png","practice","0","4","0","0","0","0","true","",""
"image-keyboard-response","26","164624","0.0-3.0-4.0-1.0-1.4","61103c2b7810420e5f23f437","6662009ae78f21dd82fcd179","66620a7196bb7dd754b9e5f6","null","","null","","","","","","","","./tasks/HMM-beads/Images/BlackBeadChoice.png","","","","","","","","","",""
"image-keyboard-response","27","165130","0.0-3.0-4.0-1.0-2.4","61103c2b7810420e5f23f437","6662009ae78f21dd82fcd179","66620a7196bb7dd754b9e5f6","null","","null","","","","","","","","./tasks/HMM-beads/Images/BlackBeadChoiceCorrect.png","","","","","","","","","",""
"image-keyboard-response","28","166438","0.0-3.0-4.0-1.0-0.5","61103c2b7810420e5f23f437","6662009ae78f21dd82fcd179","66620a7196bb7dd754b9e5f6","1308","","f","","","","","","","","./tasks/HMM-beads/Images/NewTrialBC.png","practice","0","5","0","1","0","0","false","",""
"image-keyboard-response","29","166744","0.0-3.0-4.0-1.0-1.5","61103c2b7810420e5f23f437","6662009ae78f21dd82fcd179","66620a7196bb7dd754b9e5f6","null","","null","","","","","","","","./tasks/HMM-beads/Images/BlackBeadChoice.png","","","","","","","","","",""
"image-keyboard-response","30","167251","0.0-3.0-4.0-1.0-2.5","61103c2b7810420e5f23f437","6662009ae78f21dd82fcd179","66620a7196bb7dd754b9e5f6","null","","null","","","","","","","","./tasks/HMM-beads/Images/BlackBeadChoiceWrong.png","","","","","","","","","",""
"image-keyboard-response","31","167978","0.0-3.0-4.0-1.0-0.6","61103c2b7810420e5f23f437","6662009ae78f21dd82fcd179","66620a7196bb7dd754b9e5f6","727","","f","","","","","","","","./tasks/HMM-beads/Images/NewTrialWC.png","practice","0","6","0","0","1","0","true","",""
"image-keyboard-response","32","168284","0.0-3.0-4.0-1.0-1.6","61103c2b7810420e5f23f437","6662009ae78f21dd82fcd179","66620a7196bb7dd754b9e5f6","null","","null","","","","","","","","./tasks/HMM-beads/Images/BlackBeadChoice.png","","","","","","","","","",""
"image-keyboard-response","33","168789","0.0-3.0-4.0-1.0-2.6","61103c2b7810420e5f23f437","6662009ae78f21dd82fcd179","66620a7196bb7dd754b9e5f6","null","","null","","","","","","","","./tasks/HMM-beads/Images/BlackBeadChoiceCorrect.png","","","","","","","","","",""
"image-keyboard-response","34","170539","0.0-3.0-4.0-1.0-0.7","61103c2b7810420e5f23f437","6662009ae78f21dd82fcd179","66620a7196bb7dd754b9e5f6","1750","","f","","","","","","","","./tasks/HMM-beads/Images/NewTrialBC.png","practice","0","7","0","0","0","0","true","",""
"image-keyboard-response","35","170850","0.0-3.0-4.0-1.0-1.7","61103c2b7810420e5f23f437","6662009ae78f21dd82fcd179","66620a7196bb7dd754b9e5f6","null","","null","","","","","","","","./tasks/HMM-beads/Images/BlackBeadChoice.png","","","","","","","","","",""
"image-keyboard-response","36","171356","0.0-3.0-4.0-1.0-2.7","61103c2b7810420e5f23f437","6662009ae78f21dd82fcd179","66620a7196bb7dd754b9e5f6","null","","null","","","","","","","","./tasks/HMM-beads/Images/BlackBeadChoiceCorrect.png","","","","","","","","","",""
"image-keyboard-response","37","171716","0.0-3.0-4.0-1.0-0.8","61103c2b7810420e5f23f437","6662009ae78f21dd82fcd179","66620a7196bb7dd754b9e5f6","359","","f","","","","","","","","./tasks/HMM-beads/Images/NewTrialBC.png","practice","0","8","0","0","0","0","true","",""
"image-keyboard-response","38","172018","0.0-3.0-4.0-1.0-1.8","61103c2b7810420e5f23f437","6662009ae78f21dd82fcd179","66620a7196bb7dd754b9e5f6","null","","null","","","","","","","","./tasks/HMM-beads/Images/BlackBeadChoice.png","","","","","","","","","",""
"image-keyboard-response","39","172520","0.0-3.0-4.0-1.0-2.8","61103c2b7810420e5f23f437","6662009ae78f21dd82fcd179","66620a7196bb7dd754b9e5f6","null","","null","","","","","","","","./tasks/HMM-beads/Images/BlackBeadChoiceCorrect.png","","","","","","","","","",""
"image-keyboard-response","40","172956","0.0-3.0-4.0-1.0-0.9","61103c2b7810420e5f23f437","6662009ae78f21dd82fcd179","66620a7196bb7dd754b9e5f6","435","","f","","","","","","","","./tasks/HMM-beads/Images/NewTrialBC.png","practice","0","9","0","1","0","0","false","",""
"image-keyboard-response","41","173261","0.0-3.0-4.0-1.0-1.9","61103c2b7810420e5f23f437","6662009ae78f21dd82fcd179","66620a7196bb7dd754b9e5f6","null","","null","","","","","","","","./tasks/HMM-beads/Images/BlackBeadChoice.png","","","","","","","","","",""
"image-keyboard-response","42","173767","0.0-3.0-4.0-1.0-2.9","61103c2b7810420e5f23f437","6662009ae78f21dd82fcd179","66620a7196bb7dd754b9e5f6","null","","null","","","","","","","","./tasks/HMM-beads/Images/BlackBeadChoiceWrong.png","","","","","","","","","",""
"image-keyboard-response","43","174104","0.0-3.0-4.0-1.0-0.10","61103c2b7810420e5f23f437","6662009ae78f21dd82fcd179","66620a7196bb7dd754b9e5f6","336","","f","","","","","","","","./tasks/HMM-beads/Images/NewTrialWC.png","practice","0","10","0","0","1","0","true","",""
"image-keyboard-response","44","174404","0.0-3.0-4.0-1.0-1.10","61103c2b7810420e5f23f437","6662009ae78f21dd82fcd179","66620a7196bb7dd754b9e5f6","null","","null","","","","","","","","./tasks/HMM-beads/Images/BlackBeadChoice.png","","","","","","","","","",""
"image-keyboard-response","45","174911","0.0-3.0-4.0-1.0-2.10","61103c2b7810420e5f23f437","6662009ae78f21dd82fcd179","66620a7196bb7dd754b9e5f6","null","","null","","","","","","","","./tasks/HMM-beads/Images/BlackBeadChoiceCorrect.png","","","","","","","","","",""
"image-keyboard-response","46","175189","0.0-3.0-4.0-1.0-0.11","61103c2b7810420e5f23f437","6662009ae78f21dd82fcd179","66620a7196bb7dd754b9e5f6","275","","f","","","","","","","","./tasks/HMM-beads/Images/NewTrialBC.png","practice","0","11","0","1","0","0","false","",""
"image-keyboard-response","47","175494","0.0-3.0-4.0-1.0-1.11","61103c2b7810420e5f23f437","6662009ae78f21dd82fcd179","66620a7196bb7dd754b9e5f6","null","","null","","","","","","","","./tasks/HMM-beads/Images/BlackBeadChoice.png","","","","","","","","","",""
"image-keyboard-response","48","176000","0.0-3.0-4.0-1.0-2.11","61103c2b7810420e5f23f437","6662009ae78f21dd82fcd179","66620a7196bb7dd754b9e5f6","null","","null","","","","","","","","./tasks/HMM-beads/Images/BlackBeadChoiceWrong.png","","","","","","","","","",""
"image-keyboard-response","49","176253","0.0-3.0-4.0-1.0-0.12","61103c2b7810420e5f23f437","6662009ae78f21dd82fcd179","66620a7196bb7dd754b9e5f6","253","","f","","","","","","","","./tasks/HMM-beads/Images/NewTrialWC.png","practice","0","12","0","0","1","0","true","",""
"image-keyboard-response","50","176557","0.0-3.0-4.0-1.0-1.12","61103c2b7810420e5f23f437","6662009ae78f21dd82fcd179","66620a7196bb7dd754b9e5f6","null","","null","","","","","","","","./tasks/HMM-beads/Images/BlackBeadChoice.png","","","","","","","","","",""
"image-keyboard-response","51","177062","0.0-3.0-4.0-1.0-2.12","61103c2b7810420e5f23f437","6662009ae78f21dd82fcd179","66620a7196bb7dd754b9e5f6","null","","null","","","","","","","","./tasks/HMM-beads/Images/BlackBeadChoiceCorrect.png","","","","","","","","","",""
"image-keyboard-response","52","177758","0.0-3.0-4.0-1.0-0.13","61103c2b7810420e5f23f437","6662009ae78f21dd82fcd179","66620a7196bb7dd754b9e5f6","695","","f","","","","","","","","./tasks/HMM-beads/Images/NewTrialBC.png","practice","0","13","0","0","0","0","true","",""
"image-keyboard-response","53","178065","0.0-3.0-4.0-1.0-1.13","61103c2b7810420e5f23f437","6662009ae78f21dd82fcd179","66620a7196bb7dd754b9e5f6","null","","null","","","","","","","","./tasks/HMM-beads/Images/BlackBeadChoice.png","","","","","","","","","",""
"image-keyboard-response","54","178568","0.0-3.0-4.0-1.0-2.13","61103c2b7810420e5f23f437","6662009ae78f21dd82fcd179","66620a7196bb7dd754b9e5f6","null","","null","","","","","","","","./tasks/HMM-beads/Images/BlackBeadChoiceCorrect.png","","","","","","","","","",""
"image-keyboard-response","55","178857","0.0-3.0-4.0-1.0-0.14","61103c2b7810420e5f23f437","6662009ae78f21dd82fcd179","66620a7196bb7dd754b9e5f6","289","","j","","","","","","","","./tasks/HMM-beads/Images/NewTrialBC.png","practice","0","14","0","0","0","1","false","",""
"image-keyboard-response","56","179171","0.0-3.0-4.0-1.0-1.14","61103c2b7810420e5f23f437","6662009ae78f21dd82fcd179","66620a7196bb7dd754b9e5f6","null","","null","","","","","","","","./tasks/HMM-beads/Images/WhiteBeadChoice.png","","","","","","","","","",""
"image-keyboard-response","57","179682","0.0-3.0-4.0-1.0-2.14","61103c2b7810420e5f23f437","6662009ae78f21dd82fcd179","66620a7196bb7dd754b9e5f6","null","","null","","","","","","","","./tasks/HMM-beads/Images/WhiteBeadChoiceWrong.png","","","","","","","","","",""
"image-keyboard-response","58","180307","0.0-3.0-4.0-1.0-0.15","61103c2b7810420e5f23f437","6662009ae78f21dd82fcd179","66620a7196bb7dd754b9e5f6","625","","f","","","","","","","","./tasks/HMM-beads/Images/NewTrialBC.png","practice","0","15","0","0","0","0","true","",""
"image-keyboard-response","59","180612","0.0-3.0-4.0-1.0-1.15","61103c2b7810420e5f23f437","6662009ae78f21dd82fcd179","66620a7196bb7dd754b9e5f6","null","","null","","","","","","","","./tasks/HMM-beads/Images/BlackBeadChoice.png","","","","","","","","","",""
"image-keyboard-response","60","181119","0.0-3.0-4.0-1.0-2.15","61103c2b7810420e5f23f437","6662009ae78f21dd82fcd179","66620a7196bb7dd754b9e5f6","null","","null","","","","","","","","./tasks/HMM-beads/Images/BlackBeadChoiceCorrect.png","","","","","","","","","",""
"image-keyboard-response","61","181787","0.0-3.0-4.0-1.0-0.16","61103c2b7810420e5f23f437","6662009ae78f21dd82fcd179","66620a7196bb7dd754b9e5f6","667","","j","","","","","","","","./tasks/HMM-beads/Images/NewTrialBC.png","practice","0","16","0","0","0","1","false","",""
"image-keyboard-response","62","182092","0.0-3.0-4.0-1.0-1.16","61103c2b7810420e5f23f437","6662009ae78f21dd82fcd179","66620a7196bb7dd754b9e5f6","null","","null","","","","","","","","./tasks/HMM-beads/Images/WhiteBeadChoice.png","","","","","","","","","",""
"image-keyboard-response","63","182598","0.0-3.0-4.0-1.0-2.16","61103c2b7810420e5f23f437","6662009ae78f21dd82fcd179","66620a7196bb7dd754b9e5f6","null","","null","","","","","","","","./tasks/HMM-beads/Images/WhiteBeadChoiceWrong.png","","","","","","","","","",""
"image-keyboard-response","64","182962","0.0-3.0-4.0-1.0-0.17","61103c2b7810420e5f23f437","6662009ae78f21dd82fcd179","66620a7196bb7dd754b9e5f6","364","","f","","","","","","","","./tasks/HMM-beads/Images/NewTrialBC.png","practice","0","17","0","0","0","0","true","",""
"image-keyboard-response","65","183267","0.0-3.0-4.0-1.0-1.17","61103c2b7810420e5f23f437","6662009ae78f21dd82fcd179","66620a7196bb7dd754b9e5f6","null","","null","","","","","","","","./tasks/HMM-beads/Images/BlackBeadChoice.png","","","","","","","","","",""
"image-keyboard-response","66","183792","0.0-3.0-4.0-1.0-2.17","61103c2b7810420e5f23f437","6662009ae78f21dd82fcd179","66620a7196bb7dd754b9e5f6","null","","null","","","","","","","","./tasks/HMM-beads/Images/BlackBeadChoiceCorrect.png","","","","","","","","","",""
"image-keyboard-response","67","184473","0.0-3.0-4.0-1.0-0.18","61103c2b7810420e5f23f437","6662009ae78f21dd82fcd179","66620a7196bb7dd754b9e5f6","681","","f","","","","","","","","./tasks/HMM-beads/Images/NewTrialBC.png","practice","0","18","0","1","0","0","false","",""
"image-keyboard-response","68","184798","0.0-3.0-4.0-1.0-1.18","61103c2b7810420e5f23f437","6662009ae78f21dd82fcd179","66620a7196bb7dd754b9e5f6","null","","null","","","","","","","","./tasks/HMM-beads/Images/BlackBeadChoice.png","","","","","","","","","",""
"image-keyboard-response","69","185305","0.0-3.0-4.0-1.0-2.18","61103c2b7810420e5f23f437","6662009ae78f21dd82fcd179","66620a7196bb7dd754b9e5f6","null","","null","","","","","","","","./tasks/HMM-beads/Images/BlackBeadChoiceWrong.png","","","","","","","","","",""
"image-keyboard-response","70","186449","0.0-3.0-4.0-1.0-0.19","61103c2b7810420e5f23f437","6662009ae78f21dd82fcd179","66620a7196bb7dd754b9e5f6","1144","","f","","","","","","","","./tasks/HMM-beads/Images/NewTrialWC.png","practice","0","19","0","0","1","0","true","",""
"image-keyboard-response","71","186751","0.0-3.0-4.0-1.0-1.19","61103c2b7810420e5f23f437","6662009ae78f21dd82fcd179","66620a7196bb7dd754b9e5f6","null","","null","","","","","","","","./tasks/HMM-beads/Images/BlackBeadChoice.png","","","","","","","","","",""
"image-keyboard-response","72","187253","0.0-3.0-4.0-1.0-2.19","61103c2b7810420e5f23f437","6662009ae78f21dd82fcd179","66620a7196bb7dd754b9e5f6","null","","null","","","","","","","","./tasks/HMM-beads/Images/BlackBeadChoiceCorrect.png","","","","","","","","","",""
"image-keyboard-response","73","187830","0.0-3.0-4.0-1.0-0.20","61103c2b7810420e5f23f437","6662009ae78f21dd82fcd179","66620a7196bb7dd754b9e5f6","575","","f","","","","","","","","./tasks/HMM-beads/Images/NewTrialBC.png","practice","0","20","0","0","0","0","true","",""
"image-keyboard-response","74","188135","0.0-3.0-4.0-1.0-1.20","61103c2b7810420e5f23f437","6662009ae78f21dd82fcd179","66620a7196bb7dd754b9e5f6","null","","null","","","","","","","","./tasks/HMM-beads/Images/BlackBeadChoice.png","","","","","","","","","",""
"image-keyboard-response","75","188641","0.0-3.0-4.0-1.0-2.20","61103c2b7810420e5f23f437","6662009ae78f21dd82fcd179","66620a7196bb7dd754b9e5f6","null","","null","","","","","","","","./tasks/HMM-beads/Images/BlackBeadChoiceCorrect.png","","","","","","","","","",""
"image-keyboard-response","76","188962","0.0-3.0-4.0-1.0-0.21","61103c2b7810420e5f23f437","6662009ae78f21dd82fcd179","66620a7196bb7dd754b9e5f6","320","","f","","","","","","","","./tasks/HMM-beads/Images/NewTrialBC.png","practice","0","21","0","1","0","0","false","",""
"image-keyboard-response","77","189263","0.0-3.0-4.0-1.0-1.21","61103c2b7810420e5f23f437","6662009ae78f21dd82fcd179","66620a7196bb7dd754b9e5f6","null","","null","","","","","","","","./tasks/HMM-beads/Images/BlackBeadChoice.png","","","","","","","","","",""
"image-keyboard-response","78","189769","0.0-3.0-4.0-1.0-2.21","61103c2b7810420e5f23f437","6662009ae78f21dd82fcd179","66620a7196bb7dd754b9e5f6","null","","null","","","","","","","","./tasks/HMM-beads/Images/BlackBeadChoiceWrong.png","","","","","","","","","",""
"image-keyboard-response","79","190073","0.0-3.0-4.0-1.0-0.22","61103c2b7810420e5f23f437","6662009ae78f21dd82fcd179","66620a7196bb7dd754b9e5f6","304","","f","","","","","","","","./tasks/HMM-beads/Images/NewTrialWC.png","practice","0","22","1","1","1","0","false","",""
"image-keyboard-response","80","190379","0.0-3.0-4.0-1.0-1.22","61103c2b7810420e5f23f437","6662009ae78f21dd82fcd179","66620a7196bb7dd754b9e5f6","null","","null","","","","","","","","./tasks/HMM-beads/Images/BlackBeadChoice.png","","","","","","","","","",""
"image-keyboard-response","81","190927","0.0-3.0-4.0-1.0-2.22","61103c2b7810420e5f23f437","6662009ae78f21dd82fcd179","66620a7196bb7dd754b9e5f6","null","","null","","","","","","","","./tasks/HMM-beads/Images/BlackBeadChoiceWrong.png","","","","","","","","","",""
"image-keyboard-response","82","191132","0.0-3.0-4.0-1.0-0.23","61103c2b7810420e5f23f437","6662009ae78f21dd82fcd179","66620a7196bb7dd754b9e5f6","205","","f","","","","","","","","./tasks/HMM-beads/Images/NewTrialWC.png","practice","0","23","1","0","1","0","true","",""
"image-keyboard-response","83","191434","0.0-3.0-4.0-1.0-1.23","61103c2b7810420e5f23f437","6662009ae78f21dd82fcd179","66620a7196bb7dd754b9e5f6","null","","null","","","","","","","","./tasks/HMM-beads/Images/BlackBeadChoice.png","","","","","","","","","",""
"image-keyboard-response","84","191935","0.0-3.0-4.0-1.0-2.23","61103c2b7810420e5f23f437","6662009ae78f21dd82fcd179","66620a7196bb7dd754b9e5f6","null","","null","","","","","","","","./tasks/HMM-beads/Images/BlackBeadChoiceCorrect.png","","","","","","","","","",""
"image-keyboard-response","85","192550","0.0-3.0-4.0-1.0-0.24","61103c2b7810420e5f23f437","6662009ae78f21dd82fcd179","66620a7196bb7dd754b9e5f6","614","","f","","","","","","","","./tasks/HMM-beads/Images/NewTrialBC.png","practice","0","24","1","1","0","0","false","",""
"image-keyboard-response","86","192856","0.0-3.0-4.0-1.0-1.24","61103c2b7810420e5f23f437","6662009ae78f21dd82fcd179","66620a7196bb7dd754b9e5f6","null","","null","","","","","","","","./tasks/HMM-beads/Images/BlackBeadChoice.png","","","","","","","","","",""
"image-keyboard-response","87","193360","0.0-3.0-4.0-1.0-2.24","61103c2b7810420e5f23f437","6662009ae78f21dd82fcd179","66620a7196bb7dd754b9e5f6","null","","null","","","","","","","","./tasks/HMM-beads/Images/BlackBeadChoiceWrong.png","","","","","","","","","",""
"image-keyboard-response","88","193503","0.0-3.0-4.0-1.0-0.25","61103c2b7810420e5f23f437","6662009ae78f21dd82fcd179","66620a7196bb7dd754b9e5f6","142","","f","","","","","","","","./tasks/HMM-beads/Images/NewTrialWC.png","practice","0","25","1","1","1","0","false","",""
"image-keyboard-response","89","193807","0.0-3.0-4.0-1.0-1.25","61103c2b7810420e5f23f437","6662009ae78f21dd82fcd179","66620a7196bb7dd754b9e5f6","null","","null","","","","","","","","./tasks/HMM-beads/Images/BlackBeadChoice.png","","","","","","","","","",""
"image-keyboard-response","90","194313","0.0-3.0-4.0-1.0-2.25","61103c2b7810420e5f23f437","6662009ae78f21dd82fcd179","66620a7196bb7dd754b9e5f6","null","","null","","","","","","","","./tasks/HMM-beads/Images/BlackBeadChoiceWrong.png","","","","","","","","","",""
"image-keyboard-response","91","195074","0.0-3.0-4.0-1.0-0.26","61103c2b7810420e5f23f437","6662009ae78f21dd82fcd179","66620a7196bb7dd754b9e5f6","759","","f","","","","","","","","./tasks/HMM-beads/Images/NewTrialWC.png","practice","0","26","1","1","1","0","false","",""
"image-keyboard-response","92","195376","0.0-3.0-4.0-1.0-1.26","61103c2b7810420e5f23f437","6662009ae78f21dd82fcd179","66620a7196bb7dd754b9e5f6","null","","null","","","","","","","","./tasks/HMM-beads/Images/BlackBeadChoice.png","","","","","","","","","",""
"image-keyboard-response","93","195882","0.0-3.0-4.0-1.0-2.26","61103c2b7810420e5f23f437","6662009ae78f21dd82fcd179","66620a7196bb7dd754b9e5f6","null","","null","","","","","","","","./tasks/HMM-beads/Images/BlackBeadChoiceWrong.png","","","","","","","","","",""
"image-keyboard-response","94","196227","0.0-3.0-4.0-1.0-0.27","61103c2b7810420e5f23f437","6662009ae78f21dd82fcd179","66620a7196bb7dd754b9e5f6","344","","j","","","","","","","","./tasks/HMM-beads/Images/NewTrialWC.png","practice","0","27","1","1","1","1","true","",""
"image-keyboard-response","95","196532","0.0-3.0-4.0-1.0-1.27","61103c2b7810420e5f23f437","6662009ae78f21dd82fcd179","66620a7196bb7dd754b9e5f6","null","","null","","","","","","","","./tasks/HMM-beads/Images/WhiteBeadChoice.png","","","","","","","","","",""
"image-keyboard-response","96","197046","0.0-3.0-4.0-1.0-2.27","61103c2b7810420e5f23f437","6662009ae78f21dd82fcd179","66620a7196bb7dd754b9e5f6","null","","null","","","","","","","","./tasks/HMM-beads/Images/WhiteBeadChoiceCorrect.png","","","","","","","","","",""
"image-keyboard-response","97","197953","0.0-3.0-4.0-1.0-0.28","61103c2b7810420e5f23f437","6662009ae78f21dd82fcd179","66620a7196bb7dd754b9e5f6","906","","f","","","","","","","","./tasks/HMM-beads/Images/NewTrialWC.png","practice","0","28","1","0","1","0","true","",""
"image-keyboard-response","98","198259","0.0-3.0-4.0-1.0-1.28","61103c2b7810420e5f23f437","6662009ae78f21dd82fcd179","66620a7196bb7dd754b9e5f6","null","","null","","","","","","","","./tasks/HMM-beads/Images/BlackBeadChoice.png","","","","","","","","","",""
"image-keyboard-response","99","198765","0.0-3.0-4.0-1.0-2.28","61103c2b7810420e5f23f437","6662009ae78f21dd82fcd179","66620a7196bb7dd754b9e5f6","null","","null","","","","","","","","./tasks/HMM-beads/Images/BlackBeadChoiceCorrect.png","","","","","","","","","",""
"image-keyboard-response","100","199304","0.0-3.0-4.0-1.0-0.29","61103c2b7810420e5f23f437","6662009ae78f21dd82fcd179","66620a7196bb7dd754b9e5f6","539","","f","","","","","","","","./tasks/HMM-beads/Images/NewTrialBC.png","practice","0","29","1","1","0","0","false","",""
"image-keyboard-response","101","199611","0.0-3.0-4.0-1.0-1.29","61103c2b7810420e5f23f437","6662009ae78f21dd82fcd179","66620a7196bb7dd754b9e5f6","null","","null","","","","","","","","./tasks/HMM-beads/Images/BlackBeadChoice.png","","","","","","","","","",""
"image-keyboard-response","102","200113","0.0-3.0-4.0-1.0-2.29","61103c2b7810420e5f23f437","6662009ae78f21dd82fcd179","66620a7196bb7dd754b9e5f6","null","","null","","","","","","","","./tasks/HMM-beads/Images/BlackBeadChoiceWrong.png","","","","","","","","","",""
"image-keyboard-response","103","200795","0.0-3.0-4.0-1.0-0.30","61103c2b7810420e5f23f437","6662009ae78f21dd82fcd179","66620a7196bb7dd754b9e5f6","681","","j","","","","","","","","./tasks/HMM-beads/Images/NewTrialWC.png","practice","0","30","1","0","1","1","false","",""
"image-keyboard-response","104","201133","0.0-3.0-4.0-1.0-1.30","61103c2b7810420e5f23f437","6662009ae78f21dd82fcd179","66620a7196bb7dd754b9e5f6","null","","null","","","","","","","","./tasks/HMM-beads/Images/WhiteBeadChoice.png","","","","","","","","","",""
"image-keyboard-response","105","201638","0.0-3.0-4.0-1.0-2.30","61103c2b7810420e5f23f437","6662009ae78f21dd82fcd179","66620a7196bb7dd754b9e5f6","null","","null","","","","","","","","./tasks/HMM-beads/Images/WhiteBeadChoiceWrong.png","","","","","","","","","",""
"image-keyboard-response","106","202089","0.0-3.0-4.0-1.0-0.31","61103c2b7810420e5f23f437","6662009ae78f21dd82fcd179","66620a7196bb7dd754b9e5f6","450","","f","","","","","","","","./tasks/HMM-beads/Images/NewTrialBC.png","practice","0","31","1","1","0","0","false","",""
"image-keyboard-response","107","202393","0.0-3.0-4.0-1.0-1.31","61103c2b7810420e5f23f437","6662009ae78f21dd82fcd179","66620a7196bb7dd754b9e5f6","null","","null","","","","","","","","./tasks/HMM-beads/Images/BlackBeadChoice.png","","","","","","","","","",""
"image-keyboard-response","108","202899","0.0-3.0-4.0-1.0-2.31","61103c2b7810420e5f23f437","6662009ae78f21dd82fcd179","66620a7196bb7dd754b9e5f6","null","","null","","","","","","","","./tasks/HMM-beads/Images/BlackBeadChoiceWrong.png","","","","","","","","","",""
"image-keyboard-response","109","204409","0.0-3.0-4.0-1.0-0.32","61103c2b7810420e5f23f437","6662009ae78f21dd82fcd179","66620a7196bb7dd754b9e5f6","1509","","f","","","","","","","","./tasks/HMM-beads/Images/NewTrialWC.png","practice","0","32","1","1","1","0","false","",""
"image-keyboard-response","110","204713","0.0-3.0-4.0-1.0-1.32","61103c2b7810420e5f23f437","6662009ae78f21dd82fcd179","66620a7196bb7dd754b9e5f6","null","","null","","","","","","","","./tasks/HMM-beads/Images/BlackBeadChoice.png","","","","","","","","","",""
"image-keyboard-response","111","205219","0.0-3.0-4.0-1.0-2.32","61103c2b7810420e5f23f437","6662009ae78f21dd82fcd179","66620a7196bb7dd754b9e5f6","null","","null","","","","","","","","./tasks/HMM-beads/Images/BlackBeadChoiceWrong.png","","","","","","","","","",""
"image-keyboard-response","112","205263","0.0-3.0-4.0-1.0-0.33","61103c2b7810420e5f23f437","6662009ae78f21dd82fcd179","66620a7196bb7dd754b9e5f6","42","","j","","","","","","","","./tasks/HMM-beads/Images/NewTrialWC.png","practice","0","33","1","1","1","1","true","",""
"image-keyboard-response","113","205566","0.0-3.0-4.0-1.0-1.33","61103c2b7810420e5f23f437","6662009ae78f21dd82fcd179","66620a7196bb7dd754b9e5f6","null","","null","","","","","","","","./tasks/HMM-beads/Images/WhiteBeadChoice.png","","","","","","","","","",""
"image-keyboard-response","114","206073","0.0-3.0-4.0-1.0-2.33","61103c2b7810420e5f23f437","6662009ae78f21dd82fcd179","66620a7196bb7dd754b9e5f6","null","","null","","","","","","","","./tasks/HMM-beads/Images/WhiteBeadChoiceCorrect.png","","","","","","","","","",""
"image-keyboard-response","115","206720","0.0-3.0-4.0-1.0-0.34","61103c2b7810420e5f23f437","6662009ae78f21dd82fcd179","66620a7196bb7dd754b9e5f6","647","","j","","","","","","","","./tasks/HMM-beads/Images/NewTrialWC.png","practice","0","34","1","1","1","1","true","",""
"image-keyboard-response","116","207023","0.0-3.0-4.0-1.0-1.34","61103c2b7810420e5f23f437","6662009ae78f21dd82fcd179","66620a7196bb7dd754b9e5f6","null","","null","","","","","","","","./tasks/HMM-beads/Images/WhiteBeadChoice.png","","","","","","","","","",""
"image-keyboard-response","117","207530","0.0-3.0-4.0-1.0-2.34","61103c2b7810420e5f23f437","6662009ae78f21dd82fcd179","66620a7196bb7dd754b9e5f6","null","","null","","","","","","","","./tasks/HMM-beads/Images/WhiteBeadChoiceCorrect.png","","","","","","","","","",""
"image-keyboard-response","118","207965","0.0-3.0-4.0-1.0-0.35","61103c2b7810420e5f23f437","6662009ae78f21dd82fcd179","66620a7196bb7dd754b9e5f6","434","","f","","","","","","","","./tasks/HMM-beads/Images/NewTrialWC.png","practice","0","35","1","1","1","0","false","",""
"image-keyboard-response","119","208267","0.0-3.0-4.0-1.0-1.35","61103c2b7810420e5f23f437","6662009ae78f21dd82fcd179","66620a7196bb7dd754b9e5f6","null","","null","","","","","","","","./tasks/HMM-beads/Images/BlackBeadChoice.png","","","","","","","","","",""
"image-keyboard-response","120","208774","0.0-3.0-4.0-1.0-2.35","61103c2b7810420e5f23f437","6662009ae78f21dd82fcd179","66620a7196bb7dd754b9e5f6","null","","null","","","","","","","","./tasks/HMM-beads/Images/BlackBeadChoiceWrong.png","","","","","","","","","",""
"image-keyboard-response","121","209009","0.0-3.0-4.0-1.0-0.36","61103c2b7810420e5f23f437","6662009ae78f21dd82fcd179","66620a7196bb7dd754b9e5f6","234","","j","","","","","","","","./tasks/HMM-beads/Images/NewTrialWC.png","practice","0","36","1","0","1","1","false","",""
"image-keyboard-response","122","209314","0.0-3.0-4.0-1.0-1.36","61103c2b7810420e5f23f437","6662009ae78f21dd82fcd179","66620a7196bb7dd754b9e5f6","null","","null","","","","","","","","./tasks/HMM-beads/Images/WhiteBeadChoice.png","","","","","","","","","",""
"image-keyboard-response","123","209820","0.0-3.0-4.0-1.0-2.36","61103c2b7810420e5f23f437","6662009ae78f21dd82fcd179","66620a7196bb7dd754b9e5f6","null","","null","","","","","","","","./tasks/HMM-beads/Images/WhiteBeadChoiceWrong.png","","","","","","","","","",""
"image-keyboard-response","124","209940","0.0-3.0-4.0-1.0-0.37","61103c2b7810420e5f23f437","6662009ae78f21dd82fcd179","66620a7196bb7dd754b9e5f6","118","","f","","","","","","","","./tasks/HMM-beads/Images/NewTrialBC.png","practice","0","37","1","1","0","0","false","",""
"image-keyboard-response","125","210246","0.0-3.0-4.0-1.0-1.37","61103c2b7810420e5f23f437","6662009ae78f21dd82fcd179","66620a7196bb7dd754b9e5f6","null","","null","","","","","","","","./tasks/HMM-beads/Images/BlackBeadChoice.png","","","","","","","","","",""
"image-keyboard-response","126","210779","0.0-3.0-4.0-1.0-2.37","61103c2b7810420e5f23f437","6662009ae78f21dd82fcd179","66620a7196bb7dd754b9e5f6","null","","null","","","","","","","","./tasks/HMM-beads/Images/BlackBeadChoiceWrong.png","","","","","","","","","",""
"image-keyboard-response","127","213375","0.0-3.0-4.0-1.0-0.38","61103c2b7810420e5f23f437","6662009ae78f21dd82fcd179","66620a7196bb7dd754b9e5f6","2594","","j","","","","","","","","./tasks/HMM-beads/Images/NewTrialWC.png","practice","0","38","1","1","1","1","true","",""
"image-keyboard-response","128","213676","0.0-3.0-4.0-1.0-1.38","61103c2b7810420e5f23f437","6662009ae78f21dd82fcd179","66620a7196bb7dd754b9e5f6","null","","null","","","","","","","","./tasks/HMM-beads/Images/WhiteBeadChoice.png","","","","","","","","","",""
"image-keyboard-response","129","214182","0.0-3.0-4.0-1.0-2.38","61103c2b7810420e5f23f437","6662009ae78f21dd82fcd179","66620a7196bb7dd754b9e5f6","null","","null","","","","","","","","./tasks/HMM-beads/Images/WhiteBeadChoiceCorrect.png","","","","","","","","","",""
"image-keyboard-response","130","214541","0.0-3.0-4.0-1.0-0.39","61103c2b7810420e5f23f437","6662009ae78f21dd82fcd179","66620a7196bb7dd754b9e5f6","358","","j","","","","","","","","./tasks/HMM-beads/Images/NewTrialWC.png","practice","0","39","1","1","1","1","true","",""
"image-keyboard-response","131","214847","0.0-3.0-4.0-1.0-1.39","61103c2b7810420e5f23f437","6662009ae78f21dd82fcd179","66620a7196bb7dd754b9e5f6","null","","null","","","","","","","","./tasks/HMM-beads/Images/WhiteBeadChoice.png","","","","","","","","","",""
"image-keyboard-response","132","215352","0.0-3.0-4.0-1.0-2.39","61103c2b7810420e5f23f437","6662009ae78f21dd82fcd179","66620a7196bb7dd754b9e5f6","null","","null","","","","","","","","./tasks/HMM-beads/Images/WhiteBeadChoiceCorrect.png","","","","","","","","","",""
"html-keyboard-response","133","219756","0.0-3.0-4.0-2.0","61103c2b7810420e5f23f437","6662009ae78f21dd82fcd179","66620a7196bb7dd754b9e5f6","4403",""," ","","","","","","","","","","","","","","","","","",""
"instructions","134","233574","0.0-3.0-5.0","61103c2b7810420e5f23f437","6662009ae78f21dd82fcd179","66620a7196bb7dd754b9e5f6","13818","","","","[{""page_index"":0,""viewing_time"":8697},{""page_index"":1,""viewing_time"":5121}]","","","","","","","","","","","","","","","",""
"html-keyboard-response","135","239742","0.0-3.0-6.0-0.0","61103c2b7810420e5f23f437","6662009ae78f21dd82fcd179","66620a7196bb7dd754b9e5f6","6167",""," ","","","","","","","","<div align=center>In this block, there will be a <b>1% chance</b> that the jar on the next trial will be different from the jar on the current trial.<br><br></div>","","","","","","","","","",""
"image-keyboard-response","136","243247","0.0-3.0-6.0-1.0-0.0","61103c2b7810420e5f23f437","6662009ae78f21dd82fcd179","66620a7196bb7dd754b9e5f6","3496","","f","","","","","","","","./tasks/HMM-beads/Images/NoChoice.png","lowH","1","0","1","0","9","0","true","",""
"image-keyboard-response","137","243553","0.0-3.0-6.0-1.0-1.0","61103c2b7810420e5f23f437","6662009ae78f21dd82fcd179","66620a7196bb7dd754b9e5f6","null","","null","","","","","","","","./tasks/HMM-beads/Images/BlackBeadChoice.png","","","","","","","","","",""
"image-keyboard-response","138","244060","0.0-3.0-6.0-1.0-2.0","61103c2b7810420e5f23f437","6662009ae78f21dd82fcd179","66620a7196bb7dd754b9e5f6","null","","null","","","","","","","","./tasks/HMM-beads/Images/BlackBeadChoiceCorrect.png","","","","","","","","","",""
"image-keyboard-response","139","244540","0.0-3.0-6.0-1.0-0.1","61103c2b7810420e5f23f437","6662009ae78f21dd82fcd179","66620a7196bb7dd754b9e5f6","479","","f","","","","","","","","./tasks/HMM-beads/Images/NewTrialBC.png","lowH","1","1","1","1","0","0","false","",""
"image-keyboard-response","140","244842","0.0-3.0-6.0-1.0-1.1","61103c2b7810420e5f23f437","6662009ae78f21dd82fcd179","66620a7196bb7dd754b9e5f6","null","","null","","","","","","","","./tasks/HMM-beads/Images/BlackBeadChoice.png","","","","","","","","","",""
"image-keyboard-response","141","245348","0.0-3.0-6.0-1.0-2.1","61103c2b7810420e5f23f437","6662009ae78f21dd82fcd179","66620a7196bb7dd754b9e5f6","null","","null","","","","","","","","./tasks/HMM-beads/Images/BlackBeadChoiceWrong.png","","","","","","","","","",""
"image-keyboard-response","142","245678","0.0-3.0-6.0-1.0-0.2","61103c2b7810420e5f23f437","6662009ae78f21dd82fcd179","66620a7196bb7dd754b9e5f6","329","","f","","","","","","","","./tasks/HMM-beads/Images/NewTrialWC.png","lowH","1","2","1","1","1","0","false","",""
"image-keyboard-response","143","245984","0.0-3.0-6.0-1.0-1.2","61103c2b7810420e5f23f437","6662009ae78f21dd82fcd179","66620a7196bb7dd754b9e5f6","null","","null","","","","","","","","./tasks/HMM-beads/Images/BlackBeadChoice.png","","","","","","","","","",""
"image-keyboard-response","144","246490","0.0-3.0-6.0-1.0-2.2","61103c2b7810420e5f23f437","6662009ae78f21dd82fcd179","66620a7196bb7dd754b9e5f6","null","","null","","","","","","","","./tasks/HMM-beads/Images/BlackBeadChoiceWrong.png","","","","","","","","","",""
"image-keyboard-response","145","246919","0.0-3.0-6.0-1.0-0.3","61103c2b7810420e5f23f437","6662009ae78f21dd82fcd179","66620a7196bb7dd754b9e5f6","427","","j","","","","","","","","./tasks/HMM-beads/Images/NewTrialWC.png","lowH","1","3","1","1","1","1","true","",""
"image-keyboard-response","146","247257","0.0-3.0-6.0-1.0-1.3","61103c2b7810420e5f23f437","6662009ae78f21dd82fcd179","66620a7196bb7dd754b9e5f6","null","","null","","","","","","","","./tasks/HMM-beads/Images/WhiteBeadChoice.png","","","","","","","","","",""
"image-keyboard-response","147","247794","0.0-3.0-6.0-1.0-2.3","61103c2b7810420e5f23f437","6662009ae78f21dd82fcd179","66620a7196bb7dd754b9e5f6","null","","null","","","","","","","","./tasks/HMM-beads/Images/WhiteBeadChoiceCorrect.png","","","","","","","","","",""
"image-keyboard-response","148","248049","0.0-3.0-6.0-1.0-0.4","61103c2b7810420e5f23f437","6662009ae78f21dd82fcd179","66620a7196bb7dd754b9e5f6","254","","j","","","","","","","","./tasks/HMM-beads/Images/NewTrialWC.png","lowH","1","4","1","1","1","1","true","",""
"image-keyboard-response","149","248354","0.0-3.0-6.0-1.0-1.4","61103c2b7810420e5f23f437","6662009ae78f21dd82fcd179","66620a7196bb7dd754b9e5f6","null","","null","","","","","","","","./tasks/HMM-beads/Images/WhiteBeadChoice.png","","","","","","","","","",""
"image-keyboard-response","150","248856","0.0-3.0-6.0-1.0-2.4","61103c2b7810420e5f23f437","6662009ae78f21dd82fcd179","66620a7196bb7dd754b9e5f6","null","","null","","","","","","","","./tasks/HMM-beads/Images/WhiteBeadChoiceCorrect.png","","","","","","","","","",""
"image-keyboard-response","151","249296","0.0-3.0-6.0-1.0-0.5","61103c2b7810420e5f23f437","6662009ae78f21dd82fcd179","66620a7196bb7dd754b9e5f6","440","","j","","","","","","","","./tasks/HMM-beads/Images/NewTrialWC.png","lowH","1","5","1","1","1","1","true","",""
"image-keyboard-response","152","249602","0.0-3.0-6.0-1.0-1.5","61103c2b7810420e5f23f437","6662009ae78f21dd82fcd179","66620a7196bb7dd754b9e5f6","null","","null","","","","","","","","./tasks/HMM-beads/Images/WhiteBeadChoice.png","","","","","","","","","",""
"image-keyboard-response","153","250108","0.0-3.0-6.0-1.0-2.5","61103c2b7810420e5f23f437","6662009ae78f21dd82fcd179","66620a7196bb7dd754b9e5f6","null","","null","","","","","","","","./tasks/HMM-beads/Images/WhiteBeadChoiceCorrect.png","","","","","","","","","",""
"image-keyboard-response","154","250310","0.0-3.0-6.0-1.0-0.6","61103c2b7810420e5f23f437","6662009ae78f21dd82fcd179","66620a7196bb7dd754b9e5f6","202","","j","","","","","","","","./tasks/HMM-beads/Images/NewTrialWC.png","lowH","1","6","1","0","1","1","false","",""
"image-keyboard-response","155","250616","0.0-3.0-6.0-1.0-1.6","61103c2b7810420e5f23f437","6662009ae78f21dd82fcd179","66620a7196bb7dd754b9e5f6","null","","null","","","","","","","","./tasks/HMM-beads/Images/WhiteBeadChoice.png","","","","","","","","","",""
"image-keyboard-response","156","251117","0.0-3.0-6.0-1.0-2.6","61103c2b7810420e5f23f437","6662009ae78f21dd82fcd179","66620a7196bb7dd754b9e5f6","null","","null","","","","","","","","./tasks/HMM-beads/Images/WhiteBeadChoiceWrong.png","","","","","","","","","",""
"image-keyboard-response","157","251550","0.0-3.0-6.0-1.0-0.7","61103c2b7810420e5f23f437","6662009ae78f21dd82fcd179","66620a7196bb7dd754b9e5f6","432","","j","","","","","","","","./tasks/HMM-beads/Images/NewTrialBC.png","lowH","1","7","1","1","0","1","true","",""
"image-keyboard-response","158","251852","0.0-3.0-6.0-1.0-1.7","61103c2b7810420e5f23f437","6662009ae78f21dd82fcd179","66620a7196bb7dd754b9e5f6","null","","null","","","","","","","","./tasks/HMM-beads/Images/WhiteBeadChoice.png","","","","","","","","","",""
"image-keyboard-response","159","252354","0.0-3.0-6.0-1.0-2.7","61103c2b7810420e5f23f437","6662009ae78f21dd82fcd179","66620a7196bb7dd754b9e5f6","null","","null","","","","","","","","./tasks/HMM-beads/Images/WhiteBeadChoiceCorrect.png","","","","","","","","","",""
"image-keyboard-response","160","252648","0.0-3.0-6.0-1.0-0.8","61103c2b7810420e5f23f437","6662009ae78f21dd82fcd179","66620a7196bb7dd754b9e5f6","293","","j","","","","","","","","./tasks/HMM-beads/Images/NewTrialWC.png","lowH","1","8","1","1","1","1","true","",""
"image-keyboard-response","161","252954","0.0-3.0-6.0-1.0-1.8","61103c2b7810420e5f23f437","6662009ae78f21dd82fcd179","66620a7196bb7dd754b9e5f6","null","","null","","","","","","","","./tasks/HMM-beads/Images/WhiteBeadChoice.png","","","","","","","","","",""
"image-keyboard-response","162","253460","0.0-3.0-6.0-1.0-2.8","61103c2b7810420e5f23f437","6662009ae78f21dd82fcd179","66620a7196bb7dd754b9e5f6","null","","null","","","","","","","","./tasks/HMM-beads/Images/WhiteBeadChoiceCorrect.png","","","","","","","","","",""
"image-keyboard-response","163","253689","0.0-3.0-6.0-1.0-0.9","61103c2b7810420e5f23f437","6662009ae78f21dd82fcd179","66620a7196bb7dd754b9e5f6","229","","j","","","","","","","","./tasks/HMM-beads/Images/NewTrialWC.png","lowH","1","9","1","1","1","1","true","",""
"image-keyboard-response","164","253992","0.0-3.0-6.0-1.0-1.9","61103c2b7810420e5f23f437","6662009ae78f21dd82fcd179","66620a7196bb7dd754b9e5f6","null","","null","","","","","","","","./tasks/HMM-beads/Images/WhiteBeadChoice.png","","","","","","","","","",""
"image-keyboard-response","165","254498","0.0-3.0-6.0-1.0-2.9","61103c2b7810420e5f23f437","6662009ae78f21dd82fcd179","66620a7196bb7dd754b9e5f6","null","","null","","","","","","","","./tasks/HMM-beads/Images/WhiteBeadChoiceCorrect.png","","","","","","","","","",""
"image-keyboard-response","166","254672","0.0-3.0-6.0-1.0-0.10","61103c2b7810420e5f23f437","6662009ae78f21dd82fcd179","66620a7196bb7dd754b9e5f6","173","","j","","","","","","","","./tasks/HMM-beads/Images/NewTrialWC.png","lowH","1","10","1","1","1","1","true","",""
"image-keyboard-response","167","254977","0.0-3.0-6.0-1.0-1.10","61103c2b7810420e5f23f437","6662009ae78f21dd82fcd179","66620a7196bb7dd754b9e5f6","null","","null","","","","","","","","./tasks/HMM-beads/Images/WhiteBeadChoice.png","","","","","","","","","",""
"image-keyboard-response","168","255483","0.0-3.0-6.0-1.0-2.10","61103c2b7810420e5f23f437","6662009ae78f21dd82fcd179","66620a7196bb7dd754b9e5f6","null","","null","","","","","","","","./tasks/HMM-beads/Images/WhiteBeadChoiceCorrect.png","","","","","","","","","",""
"image-keyboard-response","169","256042","0.0-3.0-6.0-1.0-0.11","61103c2b7810420e5f23f437","6662009ae78f21dd82fcd179","66620a7196bb7dd754b9e5f6","559","","f","","","","","","","","./tasks/HMM-beads/Images/NewTrialWC.png","lowH","1","11","1","1","1","0","false","",""
"image-keyboard-response","170","256348","0.0-3.0-6.0-1.0-1.11","61103c2b7810420e5f23f437","6662009ae78f21dd82fcd179","66620a7196bb7dd754b9e5f6","null","","null","","","","","","","","./tasks/HMM-beads/Images/BlackBeadChoice.png","","","","","","","","","",""
"image-keyboard-response","171","256868","0.0-3.0-6.0-1.0-2.11","61103c2b7810420e5f23f437","6662009ae78f21dd82fcd179","66620a7196bb7dd754b9e5f6","null","","null","","","","","","","","./tasks/HMM-beads/Images/BlackBeadChoiceWrong.png","","","","","","","","","",""
"image-keyboard-response","172","257480","0.0-3.0-6.0-1.0-0.12","61103c2b7810420e5f23f437","6662009ae78f21dd82fcd179","66620a7196bb7dd754b9e5f6","612","","f","","","","","","","","./tasks/HMM-beads/Images/NewTrialWC.png","lowH","1","12","1","1","1","0","false","",""
"image-keyboard-response","173","257786","0.0-3.0-6.0-1.0-1.12","61103c2b7810420e5f23f437","6662009ae78f21dd82fcd179","66620a7196bb7dd754b9e5f6","null","","null","","","","","","","","./tasks/HMM-beads/Images/BlackBeadChoice.png","","","","","","","","","",""
"image-keyboard-response","174","258292","0.0-3.0-6.0-1.0-2.12","61103c2b7810420e5f23f437","6662009ae78f21dd82fcd179","66620a7196bb7dd754b9e5f6","null","","null","","","","","","","","./tasks/HMM-beads/Images/BlackBeadChoiceWrong.png","","","","","","","","","",""
"image-keyboard-response","175","259093","0.0-3.0-6.0-1.0-0.13","61103c2b7810420e5f23f437","6662009ae78f21dd82fcd179","66620a7196bb7dd754b9e5f6","800","","j","","","","","","","","./tasks/HMM-beads/Images/NewTrialWC.png","lowH","1","13","1","0","1","1","false","",""
"image-keyboard-response","176","259393","0.0-3.0-6.0-1.0-1.13","61103c2b7810420e5f23f437","6662009ae78f21dd82fcd179","66620a7196bb7dd754b9e5f6","null","","null","","","","","","","","./tasks/HMM-beads/Images/WhiteBeadChoice.png","","","","","","","","","",""
"image-keyboard-response","177","259897","0.0-3.0-6.0-1.0-2.13","61103c2b7810420e5f23f437","6662009ae78f21dd82fcd179","66620a7196bb7dd754b9e5f6","null","","null","","","","","","","","./tasks/HMM-beads/Images/WhiteBeadChoiceWrong.png","","","","","","","","","",""
"image-keyboard-response","178","260479","0.0-3.0-6.0-1.0-0.14","61103c2b7810420e5f23f437","6662009ae78f21dd82fcd179","66620a7196bb7dd754b9e5f6","580","","f","","","","","","","","./tasks/HMM-beads/Images/NewTrialBC.png","lowH","1","14","1","0","0","0","true","",""
"image-keyboard-response","179","260785","0.0-3.0-6.0-1.0-1.14","61103c2b7810420e5f23f437","6662009ae78f21dd82fcd179","66620a7196bb7dd754b9e5f6","null","","null","","","","","","","","./tasks/HMM-beads/Images/BlackBeadChoice.png","","","","","","","","","",""
"image-keyboard-response","180","261290","0.0-3.0-6.0-1.0-2.14","61103c2b7810420e5f23f437","6662009ae78f21dd82fcd179","66620a7196bb7dd754b9e5f6","null","","null","","","","","","","","./tasks/HMM-beads/Images/BlackBeadChoiceCorrect.png","","","","","","","","","",""
"image-keyboard-response","181","261626","0.0-3.0-6.0-1.0-0.15","61103c2b7810420e5f23f437","6662009ae78f21dd82fcd179","66620a7196bb7dd754b9e5f6","335","","f","","","","","","","","./tasks/HMM-beads/Images/NewTrialBC.png","lowH","1","15","1","1","0","0","false","",""
"image-keyboard-response","182","261932","0.0-3.0-6.0-1.0-1.15","61103c2b7810420e5f23f437","6662009ae78f21dd82fcd179","66620a7196bb7dd754b9e5f6","null","","null","","","","","","","","./tasks/HMM-beads/Images/BlackBeadChoice.png","","","","","","","","","",""
"image-keyboard-response","183","262481","0.0-3.0-6.0-1.0-2.15","61103c2b7810420e5f23f437","6662009ae78f21dd82fcd179","66620a7196bb7dd754b9e5f6","null","","null","","","","","","","","./tasks/HMM-beads/Images/BlackBeadChoiceWrong.png","","","","","","","","","",""
"image-keyboard-response","184","262954","0.0-3.0-6.0-1.0-0.16","61103c2b7810420e5f23f437","6662009ae78f21dd82fcd179","66620a7196bb7dd754b9e5f6","473","","j","","","","","","","","./tasks/HMM-beads/Images/NewTrialWC.png","lowH","1","16","1","1","1","1","true","",""
"image-keyboard-response","185","263260","0.0-3.0-6.0-1.0-1.16","61103c2b7810420e5f23f437","6662009ae78f21dd82fcd179","66620a7196bb7dd754b9e5f6","null","","null","","","","","","","","./tasks/HMM-beads/Images/WhiteBeadChoice.png","","","","","","","","","",""
"image-keyboard-response","186","263764","0.0-3.0-6.0-1.0-2.16","61103c2b7810420e5f23f437","6662009ae78f21dd82fcd179","66620a7196bb7dd754b9e5f6","null","","null","","","","","","","","./tasks/HMM-beads/Images/WhiteBeadChoiceCorrect.png","","","","","","","","","",""
"image-keyboard-response","187","264486","0.0-3.0-6.0-1.0-0.17","61103c2b7810420e5f23f437","6662009ae78f21dd82fcd179","66620a7196bb7dd754b9e5f6","721","","j","","","","","","","","./tasks/HMM-beads/Images/NewTrialWC.png","lowH","1","17","1","1","1","1","true","",""
"image-keyboard-response","188","264786","0.0-3.0-6.0-1.0-1.17","61103c2b7810420e5f23f437","6662009ae78f21dd82fcd179","66620a7196bb7dd754b9e5f6","null","","null","","","","","","","","./tasks/HMM-beads/Images/WhiteBeadChoice.png","","","","","","","","","",""
"image-keyboard-response","189","265287","0.0-3.0-6.0-1.0-2.17","61103c2b7810420e5f23f437","6662009ae78f21dd82fcd179","66620a7196bb7dd754b9e5f6","null","","null","","","","","","","","./tasks/HMM-beads/Images/WhiteBeadChoiceCorrect.png","","","","","","","","","",""
"image-keyboard-response","190","265514","0.0-3.0-6.0-1.0-0.18","61103c2b7810420e5f23f437","6662009ae78f21dd82fcd179","66620a7196bb7dd754b9e5f6","226","","j","","","","","","","","./tasks/HMM-beads/Images/NewTrialWC.png","lowH","1","18","1","1","1","1","true","",""
"image-keyboard-response","191","265820","0.0-3.0-6.0-1.0-1.18","61103c2b7810420e5f23f437","6662009ae78f21dd82fcd179","66620a7196bb7dd754b9e5f6","null","","null","","","","","","","","./tasks/HMM-beads/Images/WhiteBeadChoice.png","","","","","","","","","",""
"image-keyboard-response","192","266326","0.0-3.0-6.0-1.0-2.18","61103c2b7810420e5f23f437","6662009ae78f21dd82fcd179","66620a7196bb7dd754b9e5f6","null","","null","","","","","","","","./tasks/HMM-beads/Images/WhiteBeadChoiceCorrect.png","","","","","","","","","",""
"image-keyboard-response","193","266893","0.0-3.0-6.0-1.0-0.19","61103c2b7810420e5f23f437","6662009ae78f21dd82fcd179","66620a7196bb7dd754b9e5f6","567","","j","","","","","","","","./tasks/HMM-beads/Images/NewTrialWC.png","lowH","1","19","1","1","1","1","true","",""
"image-keyboard-response","194","267195","0.0-3.0-6.0-1.0-1.19","61103c2b7810420e5f23f437","6662009ae78f21dd82fcd179","66620a7196bb7dd754b9e5f6","null","","null","","","","","","","","./tasks/HMM-beads/Images/WhiteBeadChoice.png","","","","","","","","","",""
"image-keyboard-response","195","267702","0.0-3.0-6.0-1.0-2.19","61103c2b7810420e5f23f437","6662009ae78f21dd82fcd179","66620a7196bb7dd754b9e5f6","null","","null","","","","","","","","./tasks/HMM-beads/Images/WhiteBeadChoiceCorrect.png","","","","","","","","","",""
"image-keyboard-response","196","268211","0.0-3.0-6.0-1.0-0.20","61103c2b7810420e5f23f437","6662009ae78f21dd82fcd179","66620a7196bb7dd754b9e5f6","508","","j","","","","","","","","./tasks/HMM-beads/Images/NewTrialWC.png","lowH","1","20","1","1","1","1","true","",""
"image-keyboard-response","197","268516","0.0-3.0-6.0-1.0-1.20","61103c2b7810420e5f23f437","6662009ae78f21dd82fcd179","66620a7196bb7dd754b9e5f6","null","","null","","","","","","","","./tasks/HMM-beads/Images/WhiteBeadChoice.png","","","","","","","","","",""
"image-keyboard-response","198","269022","0.0-3.0-6.0-1.0-2.20","61103c2b7810420e5f23f437","6662009ae78f21dd82fcd179","66620a7196bb7dd754b9e5f6","null","","null","","","","","","","","./tasks/HMM-beads/Images/WhiteBeadChoiceCorrect.png","","","","","","","","","",""
"image-keyboard-response","199","269324","0.0-3.0-6.0-1.0-0.21","61103c2b7810420e5f23f437","6662009ae78f21dd82fcd179","66620a7196bb7dd754b9e5f6","301","","j","","","","","","","","./tasks/HMM-beads/Images/NewTrialWC.png","lowH","1","21","1","1","1","1","true","",""
"image-keyboard-response","200","269631","0.0-3.0-6.0-1.0-1.21","61103c2b7810420e5f23f437","6662009ae78f21dd82fcd179","66620a7196bb7dd754b9e5f6","null","","null","","","","","","","","./tasks/HMM-beads/Images/WhiteBeadChoice.png","","","","","","","","","",""
"image-keyboard-response","201","270134","0.0-3.0-6.0-1.0-2.21","61103c2b7810420e5f23f437","6662009ae78f21dd82fcd179","66620a7196bb7dd754b9e5f6","null","","null","","","","","","","","./tasks/HMM-beads/Images/WhiteBeadChoiceCorrect.png","","","","","","","","","",""
"image-keyboard-response","202","270456","0.0-3.0-6.0-1.0-0.22","61103c2b7810420e5f23f437","6662009ae78f21dd82fcd179","66620a7196bb7dd754b9e5f6","322","","j","","","","","","","","./tasks/HMM-beads/Images/NewTrialWC.png","lowH","1","22","1","1","1","1","true","",""
"image-keyboard-response","203","270762","0.0-3.0-6.0-1.0-1.22","61103c2b7810420e5f23f437","6662009ae78f21dd82fcd179","66620a7196bb7dd754b9e5f6","null","","null","","","","","","","","./tasks/HMM-beads/Images/WhiteBeadChoice.png","","","","","","","","","",""
"image-keyboard-response","204","271267","0.0-3.0-6.0-1.0-2.22","61103c2b7810420e5f23f437","6662009ae78f21dd82fcd179","66620a7196bb7dd754b9e5f6","null","","null","","","","","","","","./tasks/HMM-beads/Images/WhiteBeadChoiceCorrect.png","","","","","","","","","",""
"image-keyboard-response","205","271677","0.0-3.0-6.0-1.0-0.23","61103c2b7810420e5f23f437","6662009ae78f21dd82fcd179","66620a7196bb7dd754b9e5f6","408","","j","","","","","","","","./tasks/HMM-beads/Images/NewTrialWC.png","lowH","1","23","1","1","1","1","true","",""
"image-keyboard-response","206","271983","0.0-3.0-6.0-1.0-1.23","61103c2b7810420e5f23f437","6662009ae78f21dd82fcd179","66620a7196bb7dd754b9e5f6","null","","null","","","","","","","","./tasks/HMM-beads/Images/WhiteBeadChoice.png","","","","","","","","","",""
"image-keyboard-response","207","272488","0.0-3.0-6.0-1.0-2.23","61103c2b7810420e5f23f437","6662009ae78f21dd82fcd179","66620a7196bb7dd754b9e5f6","null","","null","","","","","","","","./tasks/HMM-beads/Images/WhiteBeadChoiceCorrect.png","","","","","","","","","",""
"image-keyboard-response","208","272911","0.0-3.0-6.0-1.0-0.24","61103c2b7810420e5f23f437","6662009ae78f21dd82fcd179","66620a7196bb7dd754b9e5f6","422","","j","","","","","","","","./tasks/HMM-beads/Images/NewTrialWC.png","lowH","1","24","1","0","1","1","false","",""
"image-keyboard-response","209","273215","0.0-3.0-6.0-1.0-1.24","61103c2b7810420e5f23f437","6662009ae78f21dd82fcd179","66620a7196bb7dd754b9e5f6","null","","null","","","","","","","","./tasks/HMM-beads/Images/WhiteBeadChoice.png","","","","","","","","","",""
"image-keyboard-response","210","273716","0.0-3.0-6.0-1.0-2.24","61103c2b7810420e5f23f437","6662009ae78f21dd82fcd179","66620a7196bb7dd754b9e5f6","null","","null","","","","","","","","./tasks/HMM-beads/Images/WhiteBeadChoiceWrong.png","","","","","","","","","",""
"image-keyboard-response","211","274369","0.0-3.0-6.0-1.0-0.25","61103c2b7810420e5f23f437","6662009ae78f21dd82fcd179","66620a7196bb7dd754b9e5f6","650","","j","","","","","","","","./tasks/HMM-beads/Images/NewTrialBC.png","lowH","1","25","1","1","0","1","true","",""
"image-keyboard-response","212","274675","0.0-3.0-6.0-1.0-1.25","61103c2b7810420e5f23f437","6662009ae78f21dd82fcd179","66620a7196bb7dd754b9e5f6","null","","null","","","","","","","","./tasks/HMM-beads/Images/WhiteBeadChoice.png","","","","","","","","","",""
"image-keyboard-response","213","275181","0.0-3.0-6.0-1.0-2.25","61103c2b7810420e5f23f437","6662009ae78f21dd82fcd179","66620a7196bb7dd754b9e5f6","null","","null","","","","","","","","./tasks/HMM-beads/Images/WhiteBeadChoiceCorrect.png","","","","","","","","","",""
"image-keyboard-response","214","275571","0.0-3.0-6.0-1.0-0.26","61103c2b7810420e5f23f437","6662009ae78f21dd82fcd179","66620a7196bb7dd754b9e5f6","389","","j","","","","","","","","./tasks/HMM-beads/Images/NewTrialWC.png","lowH","1","26","1","0","1","1","false","",""
"image-keyboard-response","215","275876","0.0-3.0-6.0-1.0-1.26","61103c2b7810420e5f23f437","6662009ae78f21dd82fcd179","66620a7196bb7dd754b9e5f6","null","","null","","","","","","","","./tasks/HMM-beads/Images/WhiteBeadChoice.png","","","","","","","","","",""
"image-keyboard-response","216","276378","0.0-3.0-6.0-1.0-2.26","61103c2b7810420e5f23f437","6662009ae78f21dd82fcd179","66620a7196bb7dd754b9e5f6","null","","null","","","","","","","","./tasks/HMM-beads/Images/WhiteBeadChoiceWrong.png","","","","","","","","","",""
"image-keyboard-response","217","276743","0.0-3.0-6.0-1.0-0.27","61103c2b7810420e5f23f437","6662009ae78f21dd82fcd179","66620a7196bb7dd754b9e5f6","364","","f","","","","","","","","./tasks/HMM-beads/Images/NewTrialBC.png","lowH","1","27","1","1","0","0","false","",""
"image-keyboard-response","218","277054","0.0-3.0-6.0-1.0-1.27","61103c2b7810420e5f23f437","6662009ae78f21dd82fcd179","66620a7196bb7dd754b9e5f6","null","","null","","","","","","","","./tasks/HMM-beads/Images/BlackBeadChoice.png","","","","","","","","","",""
"image-keyboard-response","219","277576","0.0-3.0-6.0-1.0-2.27","61103c2b7810420e5f23f437","6662009ae78f21dd82fcd179","66620a7196bb7dd754b9e5f6","null","","null","","","","","","","","./tasks/HMM-beads/Images/BlackBeadChoiceWrong.png","","","","","","","","","",""
"image-keyboard-response","220","277672","0.0-3.0-6.0-1.0-0.28","61103c2b7810420e5f23f437","6662009ae78f21dd82fcd179","66620a7196bb7dd754b9e5f6","95","","j","","","","","","","","./tasks/HMM-beads/Images/NewTrialWC.png","lowH","1","28","1","1","1","1","true","",""
"image-keyboard-response","221","277977","0.0-3.0-6.0-1.0-1.28","61103c2b7810420e5f23f437","6662009ae78f21dd82fcd179","66620a7196bb7dd754b9e5f6","null","","null","","","","","","","","./tasks/HMM-beads/Images/WhiteBeadChoice.png","","","","","","","","","",""
"image-keyboard-response","222","278479","0.0-3.0-6.0-1.0-2.28","61103c2b7810420e5f23f437","6662009ae78f21dd82fcd179","66620a7196bb7dd754b9e5f6","null","","null","","","","","","","","./tasks/HMM-beads/Images/WhiteBeadChoiceCorrect.png","","","","","","","","","",""
"image-keyboard-response","223","278878","0.0-3.0-6.0-1.0-0.29","61103c2b7810420e5f23f437","6662009ae78f21dd82fcd179","66620a7196bb7dd754b9e5f6","398","","j","","","","","","","","./tasks/HMM-beads/Images/NewTrialWC.png","lowH","1","29","1","1","1","1","true","",""
"image-keyboard-response","224","279183","0.0-3.0-6.0-1.0-1.29","61103c2b7810420e5f23f437","6662009ae78f21dd82fcd179","66620a7196bb7dd754b9e5f6","null","","null","","","","","","","","./tasks/HMM-beads/Images/WhiteBeadChoice.png","","","","","","","","","",""
"image-keyboard-response","225","279689","0.0-3.0-6.0-1.0-2.29","61103c2b7810420e5f23f437","6662009ae78f21dd82fcd179","66620a7196bb7dd754b9e5f6","null","","null","","","","","","","","./tasks/HMM-beads/Images/WhiteBeadChoiceCorrect.png","","","","","","","","","",""
"image-keyboard-response","226","280014","0.0-3.0-6.0-1.0-0.30","61103c2b7810420e5f23f437","6662009ae78f21dd82fcd179","66620a7196bb7dd754b9e5f6","324","","j","","","","","","","","./tasks/HMM-beads/Images/NewTrialWC.png","lowH","1","30","1","1","1","1","true","",""
"image-keyboard-response","227","280319","0.0-3.0-6.0-1.0-1.30","61103c2b7810420e5f23f437","6662009ae78f21dd82fcd179","66620a7196bb7dd754b9e5f6","null","","null","","","","","","","","./tasks/HMM-beads/Images/WhiteBeadChoice.png","","","","","","","","","",""
"image-keyboard-response","228","280826","0.0-3.0-6.0-1.0-2.30","61103c2b7810420e5f23f437","6662009ae78f21dd82fcd179","66620a7196bb7dd754b9e5f6","null","","null","","","","","","","","./tasks/HMM-beads/Images/WhiteBeadChoiceCorrect.png","","","","","","","","","",""
"image-keyboard-response","229","281157","0.0-3.0-6.0-1.0-0.31","61103c2b7810420e5f23f437","6662009ae78f21dd82fcd179","66620a7196bb7dd754b9e5f6","331","","j","","","","","","","","./tasks/HMM-beads/Images/NewTrialWC.png","lowH","1","31","1","1","1","1","true","",""
"image-keyboard-response","230","281462","0.0-3.0-6.0-1.0-1.31","61103c2b7810420e5f23f437","6662009ae78f21dd82fcd179","66620a7196bb7dd754b9e5f6","null","","null","","","","","","","","./tasks/HMM-beads/Images/WhiteBeadChoice.png","","","","","","","","","",""
"image-keyboard-response","231","281968","0.0-3.0-6.0-1.0-2.31","61103c2b7810420e5f23f437","6662009ae78f21dd82fcd179","66620a7196bb7dd754b9e5f6","null","","null","","","","","","","","./tasks/HMM-beads/Images/WhiteBeadChoiceCorrect.png","","","","","","","","","",""
"image-keyboard-response","232","282190","0.0-3.0-6.0-1.0-0.32","61103c2b7810420e5f23f437","6662009ae78f21dd82fcd179","66620a7196bb7dd754b9e5f6","222","","j","","","","","","","","./tasks/HMM-beads/Images/NewTrialWC.png","lowH","1","32","1","1","1","1","true","",""
"image-keyboard-response","233","282497","0.0-3.0-6.0-1.0-1.32","61103c2b7810420e5f23f437","6662009ae78f21dd82fcd179","66620a7196bb7dd754b9e5f6","null","","null","","","","","","","","./tasks/HMM-beads/Images/WhiteBeadChoice.png","","","","","","","","","",""
"image-keyboard-response","234","283000","0.0-3.0-6.0-1.0-2.32","61103c2b7810420e5f23f437","6662009ae78f21dd82fcd179","66620a7196bb7dd754b9e5f6","null","","null","","","","","","","","./tasks/HMM-beads/Images/WhiteBeadChoiceCorrect.png","","","","","","","","","",""
"image-keyboard-response","235","283171","0.0-3.0-6.0-1.0-0.33","61103c2b7810420e5f23f437","6662009ae78f21dd82fcd179","66620a7196bb7dd754b9e5f6","171","","j","","","","","","","","./tasks/HMM-beads/Images/NewTrialWC.png","lowH","1","33","1","1","1","1","true","",""
"image-keyboard-response","236","283477","0.0-3.0-6.0-1.0-1.33","61103c2b7810420e5f23f437","6662009ae78f21dd82fcd179","66620a7196bb7dd754b9e5f6","null","","null","","","","","","","","./tasks/HMM-beads/Images/WhiteBeadChoice.png","","","","","","","","","",""
"image-keyboard-response","237","283984","0.0-3.0-6.0-1.0-2.33","61103c2b7810420e5f23f437","6662009ae78f21dd82fcd179","66620a7196bb7dd754b9e5f6","null","","null","","","","","","","","./tasks/HMM-beads/Images/WhiteBeadChoiceCorrect.png","","","","","","","","","",""
"image-keyboard-response","238","284089","0.0-3.0-6.0-1.0-0.34","61103c2b7810420e5f23f437","6662009ae78f21dd82fcd179","66620a7196bb7dd754b9e5f6","104","","f","","","","","","","","./tasks/HMM-beads/Images/NewTrialWC.png","lowH","1","34","1","1","1","0","false","",""
"image-keyboard-response","239","284394","0.0-3.0-6.0-1.0-1.34","61103c2b7810420e5f23f437","6662009ae78f21dd82fcd179","66620a7196bb7dd754b9e5f6","null","","null","","","","","","","","./tasks/HMM-beads/Images/BlackBeadChoice.png","","","","","","","","","",""
"image-keyboard-response","240","284900","0.0-3.0-6.0-1.0-2.34","61103c2b7810420e5f23f437","6662009ae78f21dd82fcd179","66620a7196bb7dd754b9e5f6","null","","null","","","","","","","","./tasks/HMM-beads/Images/BlackBeadChoiceWrong.png","","","","","","","","","",""
"image-keyboard-response","241","285119","0.0-3.0-6.0-1.0-0.35","61103c2b7810420e5f23f437","6662009ae78f21dd82fcd179","66620a7196bb7dd754b9e5f6","218","","j","","","","","","","","./tasks/HMM-beads/Images/NewTrialWC.png","lowH","1","35","1","1","1","1","true","",""
"image-keyboard-response","242","285420","0.0-3.0-6.0-1.0-1.35","61103c2b7810420e5f23f437","6662009ae78f21dd82fcd179","66620a7196bb7dd754b9e5f6","null","","null","","","","","","","","./tasks/HMM-beads/Images/WhiteBeadChoice.png","","","","","","","","","",""
"image-keyboard-response","243","285926","0.0-3.0-6.0-1.0-2.35","61103c2b7810420e5f23f437","6662009ae78f21dd82fcd179","66620a7196bb7dd754b9e5f6","null","","null","","","","","","","","./tasks/HMM-beads/Images/WhiteBeadChoiceCorrect.png","","","","","","","","","",""
"image-keyboard-response","244","286204","0.0-3.0-6.0-1.0-0.36","61103c2b7810420e5f23f437","6662009ae78f21dd82fcd179","66620a7196bb7dd754b9e5f6","277","","j","","","","","","","","./tasks/HMM-beads/Images/NewTrialWC.png","lowH","1","36","1","1","1","1","true","",""
"image-keyboard-response","245","286509","0.0-3.0-6.0-1.0-1.36","61103c2b7810420e5f23f437","6662009ae78f21dd82fcd179","66620a7196bb7dd754b9e5f6","null","","null","","","","","","","","./tasks/HMM-beads/Images/WhiteBeadChoice.png","","","","","","","","","",""
"image-keyboard-response","246","287015","0.0-3.0-6.0-1.0-2.36","61103c2b7810420e5f23f437","6662009ae78f21dd82fcd179","66620a7196bb7dd754b9e5f6","null","","null","","","","","","","","./tasks/HMM-beads/Images/WhiteBeadChoiceCorrect.png","","","","","","","","","",""
"image-keyboard-response","247","287322","0.0-3.0-6.0-1.0-0.37","61103c2b7810420e5f23f437","6662009ae78f21dd82fcd179","66620a7196bb7dd754b9e5f6","305","","j","","","","","","","","./tasks/HMM-beads/Images/NewTrialWC.png","lowH","1","37","1","1","1","1","true","",""
"image-keyboard-response","248","287628","0.0-3.0-6.0-1.0-1.37","61103c2b7810420e5f23f437","6662009ae78f21dd82fcd179","66620a7196bb7dd754b9e5f6","null","","null","","","","","","","","./tasks/HMM-beads/Images/WhiteBeadChoice.png","","","","","","","","","",""
"image-keyboard-response","249","288131","0.0-3.0-6.0-1.0-2.37","61103c2b7810420e5f23f437","6662009ae78f21dd82fcd179","66620a7196bb7dd754b9e5f6","null","","null","","","","","","","","./tasks/HMM-beads/Images/WhiteBeadChoiceCorrect.png","","","","","","","","","",""
"image-keyboard-response","250","288242","0.0-3.0-6.0-1.0-0.38","61103c2b7810420e5f23f437","6662009ae78f21dd82fcd179","66620a7196bb7dd754b9e5f6","109","","j","","","","","","","","./tasks/HMM-beads/Images/NewTrialWC.png","lowH","1","38","1","1","1","1","true","",""
"image-keyboard-response","251","288543","0.0-3.0-6.0-1.0-1.38","61103c2b7810420e5f23f437","6662009ae78f21dd82fcd179","66620a7196bb7dd754b9e5f6","null","","null","","","","","","","","./tasks/HMM-beads/Images/WhiteBeadChoice.png","","","","","","","","","",""
"image-keyboard-response","252","289049","0.0-3.0-6.0-1.0-2.38","61103c2b7810420e5f23f437","6662009ae78f21dd82fcd179","66620a7196bb7dd754b9e5f6","null","","null","","","","","","","","./tasks/HMM-beads/Images/WhiteBeadChoiceCorrect.png","","","","","","","","","",""
"image-keyboard-response","253","289256","0.0-3.0-6.0-1.0-0.39","61103c2b7810420e5f23f437","6662009ae78f21dd82fcd179","66620a7196bb7dd754b9e5f6","206","","j","","","","","","","","./tasks/HMM-beads/Images/NewTrialWC.png","lowH","1","39","1","1","1","1","true","",""
"image-keyboard-response","254","289561","0.0-3.0-6.0-1.0-1.39","61103c2b7810420e5f23f437","6662009ae78f21dd82fcd179","66620a7196bb7dd754b9e5f6","null","","null","","","","","","","","./tasks/HMM-beads/Images/WhiteBeadChoice.png","","","","","","","","","",""
"image-keyboard-response","255","290067","0.0-3.0-6.0-1.0-2.39","61103c2b7810420e5f23f437","6662009ae78f21dd82fcd179","66620a7196bb7dd754b9e5f6","null","","null","","","","","","","","./tasks/HMM-beads/Images/WhiteBeadChoiceCorrect.png","","","","","","","","","",""
"image-keyboard-response","256","290293","0.0-3.0-6.0-1.0-0.40","61103c2b7810420e5f23f437","6662009ae78f21dd82fcd179","66620a7196bb7dd754b9e5f6","225","","j","","","","","","","","./tasks/HMM-beads/Images/NewTrialWC.png","lowH","1","40","1","1","1","1","true","",""
"image-keyboard-response","257","290599","0.0-3.0-6.0-1.0-1.40","61103c2b7810420e5f23f437","6662009ae78f21dd82fcd179","66620a7196bb7dd754b9e5f6","null","","null","","","","","","","","./tasks/HMM-beads/Images/WhiteBeadChoice.png","","","","","","","","","",""
"image-keyboard-response","258","291104","0.0-3.0-6.0-1.0-2.40","61103c2b7810420e5f23f437","6662009ae78f21dd82fcd179","66620a7196bb7dd754b9e5f6","null","","null","","","","","","","","./tasks/HMM-beads/Images/WhiteBeadChoiceCorrect.png","","","","","","","","","",""
"image-keyboard-response","259","291274","0.0-3.0-6.0-1.0-0.41","61103c2b7810420e5f23f437","6662009ae78f21dd82fcd179","66620a7196bb7dd754b9e5f6","169","","j","","","","","","","","./tasks/HMM-beads/Images/NewTrialWC.png","lowH","1","41","1","1","1","1","true","",""
"image-keyboard-response","260","291580","0.0-3.0-6.0-1.0-1.41","61103c2b7810420e5f23f437","6662009ae78f21dd82fcd179","66620a7196bb7dd754b9e5f6","null","","null","","","","","","","","./tasks/HMM-beads/Images/WhiteBeadChoice.png","","","","","","","","","",""
"image-keyboard-response","261","292085","0.0-3.0-6.0-1.0-2.41","61103c2b7810420e5f23f437","6662009ae78f21dd82fcd179","66620a7196bb7dd754b9e5f6","null","","null","","","","","","","","./tasks/HMM-beads/Images/WhiteBeadChoiceCorrect.png","","","","","","","","","",""
"image-keyboard-response","262","292193","0.0-3.0-6.0-1.0-0.42","61103c2b7810420e5f23f437","6662009ae78f21dd82fcd179","66620a7196bb7dd754b9e5f6","107","","f","","","","","","","","./tasks/HMM-beads/Images/NewTrialWC.png","lowH","1","42","1","1","1","0","false","",""
"image-keyboard-response","263","292499","0.0-3.0-6.0-1.0-1.42","61103c2b7810420e5f23f437","6662009ae78f21dd82fcd179","66620a7196bb7dd754b9e5f6","null","","null","","","","","","","","./tasks/HMM-beads/Images/BlackBeadChoice.png","","","","","","","","","",""
"image-keyboard-response","264","293005","0.0-3.0-6.0-1.0-2.42","61103c2b7810420e5f23f437","6662009ae78f21dd82fcd179","66620a7196bb7dd754b9e5f6","null","","null","","","","","","","","./tasks/HMM-beads/Images/BlackBeadChoiceWrong.png","","","","","","","","","",""
"image-keyboard-response","265","293023","0.0-3.0-6.0-1.0-0.43","61103c2b7810420e5f23f437","6662009ae78f21dd82fcd179","66620a7196bb7dd754b9e5f6","18","","j","","","","","","","","./tasks/HMM-beads/Images/NewTrialWC.png","lowH","1","43","1","1","1","1","true","",""
"image-keyboard-response","266","293329","0.0-3.0-6.0-1.0-1.43","61103c2b7810420e5f23f437","6662009ae78f21dd82fcd179","66620a7196bb7dd754b9e5f6","null","","null","","","","","","","","./tasks/HMM-beads/Images/WhiteBeadChoice.png","","","","","","","","","",""
"image-keyboard-response","267","293835","0.0-3.0-6.0-1.0-2.43","61103c2b7810420e5f23f437","6662009ae78f21dd82fcd179","66620a7196bb7dd754b9e5f6","null","","null","","","","","","","","./tasks/HMM-beads/Images/WhiteBeadChoiceCorrect.png","","","","","","","","","",""
"image-keyboard-response","268","294066","0.0-3.0-6.0-1.0-0.44","61103c2b7810420e5f23f437","6662009ae78f21dd82fcd179","66620a7196bb7dd754b9e5f6","230","","j","","","","","","","","./tasks/HMM-beads/Images/NewTrialWC.png","lowH","1","44","1","1","1","1","true","",""
"image-keyboard-response","269","294368","0.0-3.0-6.0-1.0-1.44","61103c2b7810420e5f23f437","6662009ae78f21dd82fcd179","66620a7196bb7dd754b9e5f6","null","","null","","","","","","","","./tasks/HMM-beads/Images/WhiteBeadChoice.png","","","","","","","","","",""
"image-keyboard-response","270","294874","0.0-3.0-6.0-1.0-2.44","61103c2b7810420e5f23f437","6662009ae78f21dd82fcd179","66620a7196bb7dd754b9e5f6","null","","null","","","","","","","","./tasks/HMM-beads/Images/WhiteBeadChoiceCorrect.png","","","","","","","","","",""
"image-keyboard-response","271","294998","0.0-3.0-6.0-1.0-0.45","61103c2b7810420e5f23f437","6662009ae78f21dd82fcd179","66620a7196bb7dd754b9e5f6","122","","j","","","","","","","","./tasks/HMM-beads/Images/NewTrialWC.png","lowH","1","45","1","1","1","1","true","",""
"image-keyboard-response","272","295303","0.0-3.0-6.0-1.0-1.45","61103c2b7810420e5f23f437","6662009ae78f21dd82fcd179","66620a7196bb7dd754b9e5f6","null","","null","","","","","","","","./tasks/HMM-beads/Images/WhiteBeadChoice.png","","","","","","","","","",""
"image-keyboard-response","273","295810","0.0-3.0-6.0-1.0-2.45","61103c2b7810420e5f23f437","6662009ae78f21dd82fcd179","66620a7196bb7dd754b9e5f6","null","","null","","","","","","","","./tasks/HMM-beads/Images/WhiteBeadChoiceCorrect.png","","","","","","","","","",""
"image-keyboard-response","274","295867","0.0-3.0-6.0-1.0-0.46","61103c2b7810420e5f23f437","6662009ae78f21dd82fcd179","66620a7196bb7dd754b9e5f6","58","","j","","","","","","","","./tasks/HMM-beads/Images/NewTrialWC.png","lowH","1","46","1","1","1","1","true","",""
"image-keyboard-response","275","296169","0.0-3.0-6.0-1.0-1.46","61103c2b7810420e5f23f437","6662009ae78f21dd82fcd179","66620a7196bb7dd754b9e5f6","null","","null","","","","","","","","./tasks/HMM-beads/Images/WhiteBeadChoice.png","","","","","","","","","",""
"image-keyboard-response","276","296675","0.0-3.0-6.0-1.0-2.46","61103c2b7810420e5f23f437","6662009ae78f21dd82fcd179","66620a7196bb7dd754b9e5f6","null","","null","","","","","","","","./tasks/HMM-beads/Images/WhiteBeadChoiceCorrect.png","","","","","","","","","",""
"image-keyboard-response","277","296688","0.0-3.0-6.0-1.0-0.47","61103c2b7810420e5f23f437","6662009ae78f21dd82fcd179","66620a7196bb7dd754b9e5f6","11","","j","","","","","","","","./tasks/HMM-beads/Images/NewTrialWC.png","lowH","1","47","1","0","1","1","false","",""
"image-keyboard-response","278","296991","0.0-3.0-6.0-1.0-1.47","61103c2b7810420e5f23f437","6662009ae78f21dd82fcd179","66620a7196bb7dd754b9e5f6","null","","null","","","","","","","","./tasks/HMM-beads/Images/WhiteBeadChoice.png","","","","","","","","","",""
"image-keyboard-response","279","297498","0.0-3.0-6.0-1.0-2.47","61103c2b7810420e5f23f437","6662009ae78f21dd82fcd179","66620a7196bb7dd754b9e5f6","null","","null","","","","","","","","./tasks/HMM-beads/Images/WhiteBeadChoiceWrong.png","","","","","","","","","",""
"image-keyboard-response","280","298632","0.0-3.0-6.0-1.0-0.48","61103c2b7810420e5f23f437","6662009ae78f21dd82fcd179","66620a7196bb7dd754b9e5f6","1135","","j","","","","","","","","./tasks/HMM-beads/Images/NewTrialBC.png","lowH","1","48","1","0","0","1","false","",""
"image-keyboard-response","281","298953","0.0-3.0-6.0-1.0-1.48","61103c2b7810420e5f23f437","6662009ae78f21dd82fcd179","66620a7196bb7dd754b9e5f6","null","","null","","","","","","","","./tasks/HMM-beads/Images/WhiteBeadChoice.png","","","","","","","","","",""
"image-keyboard-response","282","299459","0.0-3.0-6.0-1.0-2.48","61103c2b7810420e5f23f437","6662009ae78f21dd82fcd179","66620a7196bb7dd754b9e5f6","null","","null","","","","","","","","./tasks/HMM-beads/Images/WhiteBeadChoiceWrong.png","","","","","","","","","",""
"image-keyboard-response","283","299535","0.0-3.0-6.0-1.0-0.49","61103c2b7810420e5f23f437","6662009ae78f21dd82fcd179","66620a7196bb7dd754b9e5f6","74","","f","","","","","","","","./tasks/HMM-beads/Images/NewTrialBC.png","lowH","1","49","1","0","0","0","true","",""
"image-keyboard-response","284","299840","0.0-3.0-6.0-1.0-1.49","61103c2b7810420e5f23f437","6662009ae78f21dd82fcd179","66620a7196bb7dd754b9e5f6","null","","null","","","","","","","","./tasks/HMM-beads/Images/BlackBeadChoice.png","","","","","","","","","",""
"image-keyboard-response","285","300347","0.0-3.0-6.0-1.0-2.49","61103c2b7810420e5f23f437","6662009ae78f21dd82fcd179","66620a7196bb7dd754b9e5f6","null","","null","","","","","","","","./tasks/HMM-beads/Images/BlackBeadChoiceCorrect.png","","","","","","","","","",""
"image-keyboard-response","286","300616","0.0-3.0-6.0-1.0-0.50","61103c2b7810420e5f23f437","6662009ae78f21dd82fcd179","66620a7196bb7dd754b9e5f6","268","","f","","","","","","","","./tasks/HMM-beads/Images/NewTrialBC.png","lowH","1","50","1","1","0","0","false","",""
"image-keyboard-response","287","300921","0.0-3.0-6.0-1.0-1.50","61103c2b7810420e5f23f437","6662009ae78f21dd82fcd179","66620a7196bb7dd754b9e5f6","null","","null","","","","","","","","./tasks/HMM-beads/Images/BlackBeadChoice.png","","","","","","","","","",""
"image-keyboard-response","288","301466","0.0-3.0-6.0-1.0-2.50","61103c2b7810420e5f23f437","6662009ae78f21dd82fcd179","66620a7196bb7dd754b9e5f6","null","","null","","","","","","","","./tasks/HMM-beads/Images/BlackBeadChoiceWrong.png","","","","","","","","","",""
"image-keyboard-response","289","301571","0.0-3.0-6.0-1.0-0.51","61103c2b7810420e5f23f437","6662009ae78f21dd82fcd179","66620a7196bb7dd754b9e5f6","105","","j","","","","","","","","./tasks/HMM-beads/Images/NewTrialWC.png","lowH","1","51","1","1","1","1","true","",""
"image-keyboard-response","290","301877","0.0-3.0-6.0-1.0-1.51","61103c2b7810420e5f23f437","6662009ae78f21dd82fcd179","66620a7196bb7dd754b9e5f6","null","","null","","","","","","","","./tasks/HMM-beads/Images/WhiteBeadChoice.png","","","","","","","","","",""
"image-keyboard-response","291","302382","0.0-3.0-6.0-1.0-2.51","61103c2b7810420e5f23f437","6662009ae78f21dd82fcd179","66620a7196bb7dd754b9e5f6","null","","null","","","","","","","","./tasks/HMM-beads/Images/WhiteBeadChoiceCorrect.png","","","","","","","","","",""
"image-keyboard-response","292","302610","0.0-3.0-6.0-1.0-0.52","61103c2b7810420e5f23f437","6662009ae78f21dd82fcd179","66620a7196bb7dd754b9e5f6","225","","j","","","","","","","","./tasks/HMM-beads/Images/NewTrialWC.png","lowH","1","52","1","1","1","1","true","",""
"image-keyboard-response","293","302915","0.0-3.0-6.0-1.0-1.52","61103c2b7810420e5f23f437","6662009ae78f21dd82fcd179","66620a7196bb7dd754b9e5f6","null","","null","","","","","","","","./tasks/HMM-beads/Images/WhiteBeadChoice.png","","","","","","","","","",""
"image-keyboard-response","294","303418","0.0-3.0-6.0-1.0-2.52","61103c2b7810420e5f23f437","6662009ae78f21dd82fcd179","66620a7196bb7dd754b9e5f6","null","","null","","","","","","","","./tasks/HMM-beads/Images/WhiteBeadChoiceCorrect.png","","","","","","","","","",""
"image-keyboard-response","295","303971","0.0-3.0-6.0-1.0-0.53","61103c2b7810420e5f23f437","6662009ae78f21dd82fcd179","66620a7196bb7dd754b9e5f6","552","","j","","","","","","","","./tasks/HMM-beads/Images/NewTrialWC.png","lowH","1","53","1","1","1","1","true","",""
"image-keyboard-response","296","304277","0.0-3.0-6.0-1.0-1.53","61103c2b7810420e5f23f437","6662009ae78f21dd82fcd179","66620a7196bb7dd754b9e5f6","null","","null","","","","","","","","./tasks/HMM-beads/Images/WhiteBeadChoice.png","","","","","","","","","",""
"image-keyboard-response","297","304781","0.0-3.0-6.0-1.0-2.53","61103c2b7810420e5f23f437","6662009ae78f21dd82fcd179","66620a7196bb7dd754b9e5f6","null","","null","","","","","","","","./tasks/HMM-beads/Images/WhiteBeadChoiceCorrect.png","","","","","","","","","",""
"image-keyboard-response","298","304924","0.0-3.0-6.0-1.0-0.54","61103c2b7810420e5f23f437","6662009ae78f21dd82fcd179","66620a7196bb7dd754b9e5f6","143","","j","","","","","","","","./tasks/HMM-beads/Images/NewTrialWC.png","lowH","1","54","1","1","1","1","true","",""
"image-keyboard-response","299","305231","0.0-3.0-6.0-1.0-1.54","61103c2b7810420e5f23f437","6662009ae78f21dd82fcd179","66620a7196bb7dd754b9e5f6","null","","null","","","","","","","","./tasks/HMM-beads/Images/WhiteBeadChoice.png","","","","","","","","","",""
"image-keyboard-response","300","305736","0.0-3.0-6.0-1.0-2.54","61103c2b7810420e5f23f437","6662009ae78f21dd82fcd179","66620a7196bb7dd754b9e5f6","null","","null","","","","","","","","./tasks/HMM-beads/Images/WhiteBeadChoiceCorrect.png","","","","","","","","","",""
"image-keyboard-response","301","305876","0.0-3.0-6.0-1.0-0.55","61103c2b7810420e5f23f437","6662009ae78f21dd82fcd179","66620a7196bb7dd754b9e5f6","139","","j","","","","","","","","./tasks/HMM-beads/Images/NewTrialWC.png","lowH","1","55","1","1","1","1","true","",""
"image-keyboard-response","302","306183","0.0-3.0-6.0-1.0-1.55","61103c2b7810420e5f23f437","6662009ae78f21dd82fcd179","66620a7196bb7dd754b9e5f6","null","","null","","","","","","","","./tasks/HMM-beads/Images/WhiteBeadChoice.png","","","","","","","","","",""
"image-keyboard-response","303","306688","0.0-3.0-6.0-1.0-2.55","61103c2b7810420e5f23f437","6662009ae78f21dd82fcd179","66620a7196bb7dd754b9e5f6","null","","null","","","","","","","","./tasks/HMM-beads/Images/WhiteBeadChoiceCorrect.png","","","","","","","","","",""
"image-keyboard-response","304","306826","0.0-3.0-6.0-1.0-0.56","61103c2b7810420e5f23f437","6662009ae78f21dd82fcd179","66620a7196bb7dd754b9e5f6","137","","j","","","","","","","","./tasks/HMM-beads/Images/NewTrialWC.png","lowH","1","56","1","1","1","1","true","",""
"image-keyboard-response","305","307127","0.0-3.0-6.0-1.0-1.56","61103c2b7810420e5f23f437","6662009ae78f21dd82fcd179","66620a7196bb7dd754b9e5f6","null","","null","","","","","","","","./tasks/HMM-beads/Images/WhiteBeadChoice.png","","","","","","","","","",""
"image-keyboard-response","306","307632","0.0-3.0-6.0-1.0-2.56","61103c2b7810420e5f23f437","6662009ae78f21dd82fcd179","66620a7196bb7dd754b9e5f6","null","","null","","","","","","","","./tasks/HMM-beads/Images/WhiteBeadChoiceCorrect.png","","","","","","","","","",""
"image-keyboard-response","307","307675","0.0-3.0-6.0-1.0-0.57","61103c2b7810420e5f23f437","6662009ae78f21dd82fcd179","66620a7196bb7dd754b9e5f6","42","","j","","","","","","","","./tasks/HMM-beads/Images/NewTrialWC.png","lowH","1","57","1","1","1","1","true","",""
"image-keyboard-response","308","307980","0.0-3.0-6.0-1.0-1.57","61103c2b7810420e5f23f437","6662009ae78f21dd82fcd179","66620a7196bb7dd754b9e5f6","null","","null","","","","","","","","./tasks/HMM-beads/Images/WhiteBeadChoice.png","","","","","","","","","",""
"image-keyboard-response","309","308515","0.0-3.0-6.0-1.0-2.57","61103c2b7810420e5f23f437","6662009ae78f21dd82fcd179","66620a7196bb7dd754b9e5f6","null","","null","","","","","","","","./tasks/HMM-beads/Images/WhiteBeadChoiceCorrect.png","","","","","","","","","",""
"image-keyboard-response","310","308978","0.0-3.0-6.0-1.0-0.58","61103c2b7810420e5f23f437","6662009ae78f21dd82fcd179","66620a7196bb7dd754b9e5f6","463","","j","","","","","","","","./tasks/HMM-beads/Images/NewTrialWC.png","lowH","1","58","1","1","1","1","true","",""
"image-keyboard-response","311","309281","0.0-3.0-6.0-1.0-1.58","61103c2b7810420e5f23f437","6662009ae78f21dd82fcd179","66620a7196bb7dd754b9e5f6","null","","null","","","","","","","","./tasks/HMM-beads/Images/WhiteBeadChoice.png","","","","","","","","","",""
"image-keyboard-response","312","309820","0.0-3.0-6.0-1.0-2.58","61103c2b7810420e5f23f437","6662009ae78f21dd82fcd179","66620a7196bb7dd754b9e5f6","null","","null","","","","","","","","./tasks/HMM-beads/Images/WhiteBeadChoiceCorrect.png","","","","","","","","","",""
"image-keyboard-response","313","310127","0.0-3.0-6.0-1.0-0.59","61103c2b7810420e5f23f437","6662009ae78f21dd82fcd179","66620a7196bb7dd754b9e5f6","304","","j","","","","","","","","./tasks/HMM-beads/Images/NewTrialWC.png","lowH","1","59","1","0","1","1","false","",""
"image-keyboard-response","314","310429","0.0-3.0-6.0-1.0-1.59","61103c2b7810420e5f23f437","6662009ae78f21dd82fcd179","66620a7196bb7dd754b9e5f6","null","","null","","","","","","","","./tasks/HMM-beads/Images/WhiteBeadChoice.png","","","","","","","","","",""
"image-keyboard-response","315","310935","0.0-3.0-6.0-1.0-2.59","61103c2b7810420e5f23f437","6662009ae78f21dd82fcd179","66620a7196bb7dd754b9e5f6","null","","null","","","","","","","","./tasks/HMM-beads/Images/WhiteBeadChoiceWrong.png","","","","","","","","","",""
"image-keyboard-response","316","311783","0.0-3.0-6.0-1.0-0.60","61103c2b7810420e5f23f437","6662009ae78f21dd82fcd179","66620a7196bb7dd754b9e5f6","848","","f","","","","","","","","./tasks/HMM-beads/Images/NewTrialBC.png","lowH","1","60","1","1","0","0","false","",""
"image-keyboard-response","317","312087","0.0-3.0-6.0-1.0-1.60","61103c2b7810420e5f23f437","6662009ae78f21dd82fcd179","66620a7196bb7dd754b9e5f6","null","","null","","","","","","","","./tasks/HMM-beads/Images/BlackBeadChoice.png","","","","","","","","","",""
"image-keyboard-response","318","312593","0.0-3.0-6.0-1.0-2.60","61103c2b7810420e5f23f437","6662009ae78f21dd82fcd179","66620a7196bb7dd754b9e5f6","null","","null","","","","","","","","./tasks/HMM-beads/Images/BlackBeadChoiceWrong.png","","","","","","","","","",""
"image-keyboard-response","319","312620","0.0-3.0-6.0-1.0-0.61","61103c2b7810420e5f23f437","6662009ae78f21dd82fcd179","66620a7196bb7dd754b9e5f6","27","","j","","","","","","","","./tasks/HMM-beads/Images/NewTrialWC.png","lowH","1","61","1","1","1","1","true","",""
"image-keyboard-response","320","312925","0.0-3.0-6.0-1.0-1.61","61103c2b7810420e5f23f437","6662009ae78f21dd82fcd179","66620a7196bb7dd754b9e5f6","null","","null","","","","","","","","./tasks/HMM-beads/Images/WhiteBeadChoice.png","","","","","","","","","",""
"image-keyboard-response","321","313432","0.0-3.0-6.0-1.0-2.61","61103c2b7810420e5f23f437","6662009ae78f21dd82fcd179","66620a7196bb7dd754b9e5f6","null","","null","","","","","","","","./tasks/HMM-beads/Images/WhiteBeadChoiceCorrect.png","","","","","","","","","",""
"image-keyboard-response","322","313576","0.0-3.0-6.0-1.0-0.62","61103c2b7810420e5f23f437","6662009ae78f21dd82fcd179","66620a7196bb7dd754b9e5f6","142","","j","","","","","","","","./tasks/HMM-beads/Images/NewTrialWC.png","lowH","1","62","1","0","1","1","false","",""
"image-keyboard-response","323","313907","0.0-3.0-6.0-1.0-1.62","61103c2b7810420e5f23f437","6662009ae78f21dd82fcd179","66620a7196bb7dd754b9e5f6","null","","null","","","","","","","","./tasks/HMM-beads/Images/WhiteBeadChoice.png","","","","","","","","","",""
"image-keyboard-response","324","314413","0.0-3.0-6.0-1.0-2.62","61103c2b7810420e5f23f437","6662009ae78f21dd82fcd179","66620a7196bb7dd754b9e5f6","null","","null","","","","","","","","./tasks/HMM-beads/Images/WhiteBeadChoiceWrong.png","","","","","","","","","",""
"image-keyboard-response","325","314995","0.0-3.0-6.0-1.0-0.63","61103c2b7810420e5f23f437","6662009ae78f21dd82fcd179","66620a7196bb7dd754b9e5f6","580","","j","","","","","","","","./tasks/HMM-beads/Images/NewTrialBC.png","lowH","1","63","1","1","0","1","true","",""
"image-keyboard-response","326","315300","0.0-3.0-6.0-1.0-1.63","61103c2b7810420e5f23f437","6662009ae78f21dd82fcd179","66620a7196bb7dd754b9e5f6","null","","null","","","","","","","","./tasks/HMM-beads/Images/WhiteBeadChoice.png","","","","","","","","","",""
"image-keyboard-response","327","315803","0.0-3.0-6.0-1.0-2.63","61103c2b7810420e5f23f437","6662009ae78f21dd82fcd179","66620a7196bb7dd754b9e5f6","null","","null","","","","","","","","./tasks/HMM-beads/Images/WhiteBeadChoiceCorrect.png","","","","","","","","","",""
"image-keyboard-response","328","316046","0.0-3.0-6.0-1.0-0.64","61103c2b7810420e5f23f437","6662009ae78f21dd82fcd179","66620a7196bb7dd754b9e5f6","243","","j","","","","","","","","./tasks/HMM-beads/Images/NewTrialWC.png","lowH","1","64","1","1","1","1","true","",""
"image-keyboard-response","329","316352","0.0-3.0-6.0-1.0-1.64","61103c2b7810420e5f23f437","6662009ae78f21dd82fcd179","66620a7196bb7dd754b9e5f6","null","","null","","","","","","","","./tasks/HMM-beads/Images/WhiteBeadChoice.png","","","","","","","","","",""
"image-keyboard-response","330","316858","0.0-3.0-6.0-1.0-2.64","61103c2b7810420e5f23f437","6662009ae78f21dd82fcd179","66620a7196bb7dd754b9e5f6","null","","null","","","","","","","","./tasks/HMM-beads/Images/WhiteBeadChoiceCorrect.png","","","","","","","","","",""
"image-keyboard-response","331","317072","0.0-3.0-6.0-1.0-0.65","61103c2b7810420e5f23f437","6662009ae78f21dd82fcd179","66620a7196bb7dd754b9e5f6","213","","j","","","","","","","","./tasks/HMM-beads/Images/NewTrialWC.png","lowH","1","65","1","1","1","1","true","",""
"image-keyboard-response","332","317378","0.0-3.0-6.0-1.0-1.65","61103c2b7810420e5f23f437","6662009ae78f21dd82fcd179","66620a7196bb7dd754b9e5f6","null","","null","","","","","","","","./tasks/HMM-beads/Images/WhiteBeadChoice.png","","","","","","","","","",""
"image-keyboard-response","333","317883","0.0-3.0-6.0-1.0-2.65","61103c2b7810420e5f23f437","6662009ae78f21dd82fcd179","66620a7196bb7dd754b9e5f6","null","","null","","","","","","","","./tasks/HMM-beads/Images/WhiteBeadChoiceCorrect.png","","","","","","","","","",""
"image-keyboard-response","334","317929","0.0-3.0-6.0-1.0-0.66","61103c2b7810420e5f23f437","6662009ae78f21dd82fcd179","66620a7196bb7dd754b9e5f6","45","","j","","","","","","","","./tasks/HMM-beads/Images/NewTrialWC.png","lowH","1","66","1","1","1","1","true","",""
"image-keyboard-response","335","318235","0.0-3.0-6.0-1.0-1.66","61103c2b7810420e5f23f437","6662009ae78f21dd82fcd179","66620a7196bb7dd754b9e5f6","null","","null","","","","","","","","./tasks/HMM-beads/Images/WhiteBeadChoice.png","","","","","","","","","",""
"image-keyboard-response","336","318738","0.0-3.0-6.0-1.0-2.66","61103c2b7810420e5f23f437","6662009ae78f21dd82fcd179","66620a7196bb7dd754b9e5f6","null","","null","","","","","","","","./tasks/HMM-beads/Images/WhiteBeadChoiceCorrect.png","","","","","","","","","",""
"image-keyboard-response","337","319047","0.0-3.0-6.0-1.0-0.67","61103c2b7810420e5f23f437","6662009ae78f21dd82fcd179","66620a7196bb7dd754b9e5f6","308","","j","","","","","","","","./tasks/HMM-beads/Images/NewTrialWC.png","lowH","1","67","1","0","1","1","false","",""
"image-keyboard-response","338","319353","0.0-3.0-6.0-1.0-1.67","61103c2b7810420e5f23f437","6662009ae78f21dd82fcd179","66620a7196bb7dd754b9e5f6","null","","null","","","","","","","","./tasks/HMM-beads/Images/WhiteBeadChoice.png","","","","","","","","","",""
"image-keyboard-response","339","319859","0.0-3.0-6.0-1.0-2.67","61103c2b7810420e5f23f437","6662009ae78f21dd82fcd179","66620a7196bb7dd754b9e5f6","null","","null","","","","","","","","./tasks/HMM-beads/Images/WhiteBeadChoiceWrong.png","","","","","","","","","",""
"image-keyboard-response","340","320309","0.0-3.0-6.0-1.0-0.68","61103c2b7810420e5f23f437","6662009ae78f21dd82fcd179","66620a7196bb7dd754b9e5f6","449","","j","","","","","","","","./tasks/HMM-beads/Images/NewTrialBC.png","lowH","1","68","1","1","0","1","true","",""
"image-keyboard-response","341","320614","0.0-3.0-6.0-1.0-1.68","61103c2b7810420e5f23f437","6662009ae78f21dd82fcd179","66620a7196bb7dd754b9e5f6","null","","null","","","","","","","","./tasks/HMM-beads/Images/WhiteBeadChoice.png","","","","","","","","","",""
"image-keyboard-response","342","321121","0.0-3.0-6.0-1.0-2.68","61103c2b7810420e5f23f437","6662009ae78f21dd82fcd179","66620a7196bb7dd754b9e5f6","null","","null","","","","","","","","./tasks/HMM-beads/Images/WhiteBeadChoiceCorrect.png","","","","","","","","","",""
"image-keyboard-response","343","321196","0.0-3.0-6.0-1.0-0.69","61103c2b7810420e5f23f437","6662009ae78f21dd82fcd179","66620a7196bb7dd754b9e5f6","74","","j","","","","","","","","./tasks/HMM-beads/Images/NewTrialWC.png","lowH","1","69","0","1","1","1","true","",""
"image-keyboard-response","344","321501","0.0-3.0-6.0-1.0-1.69","61103c2b7810420e5f23f437","6662009ae78f21dd82fcd179","66620a7196bb7dd754b9e5f6","null","","null","","","","","","","","./tasks/HMM-beads/Images/WhiteBeadChoice.png","","","","","","","","","",""
"image-keyboard-response","345","322007","0.0-3.0-6.0-1.0-2.69","61103c2b7810420e5f23f437","6662009ae78f21dd82fcd179","66620a7196bb7dd754b9e5f6","null","","null","","","","","","","","./tasks/HMM-beads/Images/WhiteBeadChoiceCorrect.png","","","","","","","","","",""
"image-keyboard-response","346","322312","0.0-3.0-6.0-1.0-0.70","61103c2b7810420e5f23f437","6662009ae78f21dd82fcd179","66620a7196bb7dd754b9e5f6","305","","j","","","","","","","","./tasks/HMM-beads/Images/NewTrialWC.png","lowH","1","70","0","1","1","1","true","",""
"image-keyboard-response","347","322613","0.0-3.0-6.0-1.0-1.70","61103c2b7810420e5f23f437","6662009ae78f21dd82fcd179","66620a7196bb7dd754b9e5f6","null","","null","","","","","","","","./tasks/HMM-beads/Images/WhiteBeadChoice.png","","","","","","","","","",""
"image-keyboard-response","348","323119","0.0-3.0-6.0-1.0-2.70","61103c2b7810420e5f23f437","6662009ae78f21dd82fcd179","66620a7196bb7dd754b9e5f6","null","","null","","","","","","","","./tasks/HMM-beads/Images/WhiteBeadChoiceCorrect.png","","","","","","","","","",""
"image-keyboard-response","349","323468","0.0-3.0-6.0-1.0-0.71","61103c2b7810420e5f23f437","6662009ae78f21dd82fcd179","66620a7196bb7dd754b9e5f6","347","","j","","","","","","","","./tasks/HMM-beads/Images/NewTrialWC.png","lowH","1","71","0","0","1","1","false","",""
"image-keyboard-response","350","323769","0.0-3.0-6.0-1.0-1.71","61103c2b7810420e5f23f437","6662009ae78f21dd82fcd179","66620a7196bb7dd754b9e5f6","null","","null","","","","","","","","./tasks/HMM-beads/Images/WhiteBeadChoice.png","","","","","","","","","",""
"image-keyboard-response","351","324318","0.0-3.0-6.0-1.0-2.71","61103c2b7810420e5f23f437","6662009ae78f21dd82fcd179","66620a7196bb7dd754b9e5f6","null","","null","","","","","","","","./tasks/HMM-beads/Images/WhiteBeadChoiceWrong.png","","","","","","","","","",""
"image-keyboard-response","352","324395","0.0-3.0-6.0-1.0-0.72","61103c2b7810420e5f23f437","6662009ae78f21dd82fcd179","66620a7196bb7dd754b9e5f6","77","","j","","","","","","","","./tasks/HMM-beads/Images/NewTrialBC.png","lowH","1","72","0","0","0","1","false","",""
"image-keyboard-response","353","324701","0.0-3.0-6.0-1.0-1.72","61103c2b7810420e5f23f437","6662009ae78f21dd82fcd179","66620a7196bb7dd754b9e5f6","null","","null","","","","","","","","./tasks/HMM-beads/Images/WhiteBeadChoice.png","","","","","","","","","",""
"image-keyboard-response","354","325205","0.0-3.0-6.0-1.0-2.72","61103c2b7810420e5f23f437","6662009ae78f21dd82fcd179","66620a7196bb7dd754b9e5f6","null","","null","","","","","","","","./tasks/HMM-beads/Images/WhiteBeadChoiceWrong.png","","","","","","","","","",""
"image-keyboard-response","355","325365","0.0-3.0-6.0-1.0-0.73","61103c2b7810420e5f23f437","6662009ae78f21dd82fcd179","66620a7196bb7dd754b9e5f6","161","","f","","","","","","","","./tasks/HMM-beads/Images/NewTrialBC.png","lowH","1","73","0","1","0","0","false","",""
"image-keyboard-response","356","325680","0.0-3.0-6.0-1.0-1.73","61103c2b7810420e5f23f437","6662009ae78f21dd82fcd179","66620a7196bb7dd754b9e5f6","null","","null","","","","","","","","./tasks/HMM-beads/Images/BlackBeadChoice.png","","","","","","","","","",""
"image-keyboard-response","357","326181","0.0-3.0-6.0-1.0-2.73","61103c2b7810420e5f23f437","6662009ae78f21dd82fcd179","66620a7196bb7dd754b9e5f6","null","","null","","","","","","","","./tasks/HMM-beads/Images/BlackBeadChoiceWrong.png","","","","","","","","","",""
"image-keyboard-response","358","327020","0.0-3.0-6.0-1.0-0.74","61103c2b7810420e5f23f437","6662009ae78f21dd82fcd179","66620a7196bb7dd754b9e5f6","839","","j","","","","","","","","./tasks/HMM-beads/Images/NewTrialWC.png","lowH","1","74","0","0","1","1","false","",""
"image-keyboard-response","359","327326","0.0-3.0-6.0-1.0-1.74","61103c2b7810420e5f23f437","6662009ae78f21dd82fcd179","66620a7196bb7dd754b9e5f6","null","","null","","","","","","","","./tasks/HMM-beads/Images/WhiteBeadChoice.png","","","","","","","","","",""
"image-keyboard-response","360","327832","0.0-3.0-6.0-1.0-2.74","61103c2b7810420e5f23f437","6662009ae78f21dd82fcd179","66620a7196bb7dd754b9e5f6","null","","null","","","","","","","","./tasks/HMM-beads/Images/WhiteBeadChoiceWrong.png","","","","","","","","","",""
"image-keyboard-response","361","328933","0.0-3.0-6.0-1.0-0.75","61103c2b7810420e5f23f437","6662009ae78f21dd82fcd179","66620a7196bb7dd754b9e5f6","1101","","j","","","","","","","","./tasks/HMM-beads/Images/NewTrialBC.png","lowH","1","75","0","1","0","1","true","",""
"image-keyboard-response","362","329239","0.0-3.0-6.0-1.0-1.75","61103c2b7810420e5f23f437","6662009ae78f21dd82fcd179","66620a7196bb7dd754b9e5f6","null","","null","","","","","","","","./tasks/HMM-beads/Images/WhiteBeadChoice.png","","","","","","","","","",""
"image-keyboard-response","363","329743","0.0-3.0-6.0-1.0-2.75","61103c2b7810420e5f23f437","6662009ae78f21dd82fcd179","66620a7196bb7dd754b9e5f6","null","","null","","","","","","","","./tasks/HMM-beads/Images/WhiteBeadChoiceCorrect.png","","","","","","","","","",""
"image-keyboard-response","364","331643","0.0-3.0-6.0-1.0-0.76","61103c2b7810420e5f23f437","6662009ae78f21dd82fcd179","66620a7196bb7dd754b9e5f6","1900","","j","","","","","","","","./tasks/HMM-beads/Images/NewTrialWC.png","lowH","1","76","0","1","1","1","true","",""
"image-keyboard-response","365","331949","0.0-3.0-6.0-1.0-1.76","61103c2b7810420e5f23f437","6662009ae78f21dd82fcd179","66620a7196bb7dd754b9e5f6","null","","null","","","","","","","","./tasks/HMM-beads/Images/WhiteBeadChoice.png","","","","","","","","","",""
"image-keyboard-response","366","332455","0.0-3.0-6.0-1.0-2.76","61103c2b7810420e5f23f437","6662009ae78f21dd82fcd179","66620a7196bb7dd754b9e5f6","null","","null","","","","","","","","./tasks/HMM-beads/Images/WhiteBeadChoiceCorrect.png","","","","","","","","","",""
"image-keyboard-response","367","332885","0.0-3.0-6.0-1.0-0.77","61103c2b7810420e5f23f437","6662009ae78f21dd82fcd179","66620a7196bb7dd754b9e5f6","430","","j","","","","","","","","./tasks/HMM-beads/Images/NewTrialWC.png","lowH","1","77","0","0","1","1","false","",""
"image-keyboard-response","368","333188","0.0-3.0-6.0-1.0-1.77","61103c2b7810420e5f23f437","6662009ae78f21dd82fcd179","66620a7196bb7dd754b9e5f6","null","","null","","","","","","","","./tasks/HMM-beads/Images/WhiteBeadChoice.png","","","","","","","","","",""
"image-keyboard-response","369","333723","0.0-3.0-6.0-1.0-2.77","61103c2b7810420e5f23f437","6662009ae78f21dd82fcd179","66620a7196bb7dd754b9e5f6","null","","null","","","","","","","","./tasks/HMM-beads/Images/WhiteBeadChoiceWrong.png","","","","","","","","","",""
"image-keyboard-response","370","333758","0.0-3.0-6.0-1.0-0.78","61103c2b7810420e5f23f437","6662009ae78f21dd82fcd179","66620a7196bb7dd754b9e5f6","36","","f","","","","","","","","./tasks/HMM-beads/Images/NewTrialBC.png","lowH","1","78","0","0","0","0","true","",""
"image-keyboard-response","371","334064","0.0-3.0-6.0-1.0-1.78","61103c2b7810420e5f23f437","6662009ae78f21dd82fcd179","66620a7196bb7dd754b9e5f6","null","","null","","","","","","","","./tasks/HMM-beads/Images/BlackBeadChoice.png","","","","","","","","","",""
"image-keyboard-response","372","334570","0.0-3.0-6.0-1.0-2.78","61103c2b7810420e5f23f437","6662009ae78f21dd82fcd179","66620a7196bb7dd754b9e5f6","null","","null","","","","","","","","./tasks/HMM-beads/Images/BlackBeadChoiceCorrect.png","","","","","","","","","",""
"image-keyboard-response","373","334737","0.0-3.0-6.0-1.0-0.79","61103c2b7810420e5f23f437","6662009ae78f21dd82fcd179","66620a7196bb7dd754b9e5f6","167","","f","","","","","","","","./tasks/HMM-beads/Images/NewTrialBC.png","lowH","1","79","0","0","0","0","true","",""
"image-keyboard-response","374","335043","0.0-3.0-6.0-1.0-1.79","61103c2b7810420e5f23f437","6662009ae78f21dd82fcd179","66620a7196bb7dd754b9e5f6","null","","null","","","","","","","","./tasks/HMM-beads/Images/BlackBeadChoice.png","","","","","","","","","",""
