"trial_type","trial_index","time_elapsed","internal_node_id","subject_id","study_id","session_id","rt","url","response","question_order","view_history","success","timeout","failed_images","failed_audio","failed_video","stimulus","block","block_rep","trial_number","jar","bead","previous_bead","choice","correct","lowH_score","total_bonus"
"pavlovia","0","1227","0.0-0.0","610038371297afd6f2db9323","6662009ae78f21dd82fcd179","66620eb1ec34f31ab08d4bfa","","","","","","","","","","","","","","","","","","","","",""
"external-html","1","9948","0.0-1.0-0.0","610038371297afd6f2db9323","6662009ae78f21dd82fcd179","66620eb1ec34f31ab08d4bfa","8580","new_consent.html","","","","","","","","","","","","","","","","","","",""
"survey-multi-choice","2","14960","0.0-1.0-1.0","610038371297afd6f2db9323","6662009ae78f21dd82fcd179","66620eb1ec34f31ab08d4bfa","5011","","{""Q0"":""Female"",""Q1"":""White""}","[0,1]","","","","","","","","","","","","","","","","",""
"survey-text","3","18535","0.0-1.0-2.0","610038371297afd6f2db9323","6662009ae78f21dd82fcd179","66620eb1ec34f31ab08d4bfa","3573","","{""Q0"":""24""}","","","","","","","","","","","","","","","","","",""
"instructions","4","22935","0.0-2.0","610038371297afd6f2db9323","6662009ae78f21dd82fcd179","66620eb1ec34f31ab08d4bfa","4297","","","","[{""page_index"":0,""viewing_time"":4297}]","","","","","","","","","","","","","","","",""
"preload","5","24058","0.0-3.0-0.0","610038371297afd6f2db9323","6662009ae78f21dd82fcd179","66620eb1ec34f31ab08d4bfa","","","","","","true","false","[]","[]","[]","","","","","","","","","","",""
"instructions","6","168579","0.0-3.0-1.0","610038371297afd6f2db9323","6662009ae78f21dd82fcd179","66620eb1ec34f31ab08d4bfa","144521","","","","[{""page_index"":0,""viewing_time"":16038},{""page_index"":1,""viewing_time"":19062},{""page_index"":2,""viewing_time"":2803},{""page_index"":3,""viewing_time"":1902},{""page_index"":4,""viewing_time"":8953},{""page_index"":5,""viewing_time"":19080},{""page_index"":4,""viewing_time"":7470},{""page_index"":5,""viewing_time"":13550},{""page_index"":6,""viewing_time"":7191},{""page_index"":7,""viewing_time"":6454},{""page_index"":8,""viewing_time"":8525},{""page_index"":7,""viewing_time"":1944},{""page_index"":8,""viewing_time"":2123},{""page_index"":9,""viewing_time"":5394},{""page_index"":10,""viewing_time"":21554},{""page_index"":11,""viewing_time"":2476}]","","","","","","","","","","","","","","","",""
"html-button-response","7","172057","0.0-3.0-2.0-0.0-0.0","610038371297afd6f2db9323","6662009ae78f21dd82fcd179","66620eb1ec34f31ab08d4bfa","3477","","1","","","","","","","","<div align=center>Your goal is to predict…?<br><br></div>","","","","","","","","","",""
"html-button-response","8","177878","0.0-3.0-2.0-1.0-0.0","610038371297afd6f2db9323","6662009ae78f21dd82fcd179","66620eb1ec34f31ab08d4bfa","4399","","2","","","","","","","","<div align=center>In the jar with mostly white beads, there are ___% white beads and ___% black beads?<br><br></div>","","","","","","","","","",""
"html-button-response","9","186412","0.0-3.0-2.0-2.0-0.0","610038371297afd6f2db9323","6662009ae78f21dd82fcd179","66620eb1ec34f31ab08d4bfa","7615","","0","","","","","","","","<div align=center>When there is a 1% probability that the jars will switch, the next bead will most likely be drawn from the…<br><br></div>","","","","","","","","","",""
"html-button-response","10","190356","0.0-3.0-2.0-3.0-0.0","610038371297afd6f2db9323","6662009ae78f21dd82fcd179","66620eb1ec34f31ab08d4bfa","2901","","1","","","","","","","","<div align=center>When there is a 99% probability that the jars will switch, the next bead will most likely be drawn from the…<br><br></div>","","","","","","","","","",""
"instructions","11","216150","0.0-3.0-3.0","610038371297afd6f2db9323","6662009ae78f21dd82fcd179","66620eb1ec34f31ab08d4bfa","25019","","","","[{""page_index"":0,""viewing_time"":25019}]","","","","","","","","","","","","","","","",""
"html-keyboard-response","12","220832","0.0-3.0-4.0-0.0","610038371297afd6f2db9323","6662009ae78f21dd82fcd179","66620eb1ec34f31ab08d4bfa","4682",""," ","","","","","","","","<div align=center>In this practice block, there will be a <b>1% chance</b> that the jar on the next trial will be different from the jar on the current trial.<br><br></div>","","","","","","","","","",""
"image-keyboard-response","13","224074","0.0-3.0-4.0-1.0-0.0","610038371297afd6f2db9323","6662009ae78f21dd82fcd179","66620eb1ec34f31ab08d4bfa","3241","","f","","","","","","","","./tasks/HMM-beads/Images/NoChoice.png","practice","0","0","0","0","9","0","true","",""
"image-keyboard-response","14","224386","0.0-3.0-4.0-1.0-1.0","610038371297afd6f2db9323","6662009ae78f21dd82fcd179","66620eb1ec34f31ab08d4bfa","null","","null","","","","","","","","./tasks/HMM-beads/Images/BlackBeadChoice.png","","","","","","","","","",""
"image-keyboard-response","15","224898","0.0-3.0-4.0-1.0-2.0","610038371297afd6f2db9323","6662009ae78f21dd82fcd179","66620eb1ec34f31ab08d4bfa","null","","null","","","","","","","","./tasks/HMM-beads/Images/BlackBeadChoiceCorrect.png","","","","","","","","","",""
"image-keyboard-response","16","226704","0.0-3.0-4.0-1.0-0.1","610038371297afd6f2db9323","6662009ae78f21dd82fcd179","66620eb1ec34f31ab08d4bfa","1806","","f","","","","","","","","./tasks/HMM-beads/Images/NewTrialBC.png","practice","0","1","0","0","0","0","true","",""
"image-keyboard-response","17","227009","0.0-3.0-4.0-1.0-1.1","610038371297afd6f2db9323","6662009ae78f21dd82fcd179","66620eb1ec34f31ab08d4bfa","null","","null","","","","","","","","./tasks/HMM-beads/Images/BlackBeadChoice.png","","","","","","","","","",""
"image-keyboard-response","18","227511","0.0-3.0-4.0-1.0-2.1","610038371297afd6f2db9323","6662009ae78f21dd82fcd179","66620eb1ec34f31ab08d4bfa","null","","null","","","","","","","","./tasks/HMM-beads/Images/BlackBeadChoiceCorrect.png","","","","","","","","","",""
"image-keyboard-response","19","231230","0.0-3.0-4.0-1.0-0.2","610038371297afd6f2db9323","6662009ae78f21dd82fcd179","66620eb1ec34f31ab08d4bfa","3718","","f","","","","","","","","./tasks/HMM-beads/Images/NewTrialBC.png","practice","0","2","0","1","0","0","false","",""
"image-keyboard-response","20","231546","0.0-3.0-4.0-1.0-1.2","610038371297afd6f2db9323","6662009ae78f21dd82fcd179","66620eb1ec34f31ab08d4bfa","null","","null","","","","","","","","./tasks/HMM-beads/Images/BlackBeadChoice.png","","","","","","","","","",""
"image-keyboard-response","21","232061","0.0-3.0-4.0-1.0-2.2","610038371297afd6f2db9323","6662009ae78f21dd82fcd179","66620eb1ec34f31ab08d4bfa","null","","null","","","","","","","","./tasks/HMM-beads/Images/BlackBeadChoiceWrong.png","","","","","","","","","",""
"image-keyboard-response","22","233895","0.0-3.0-4.0-1.0-0.3","610038371297afd6f2db9323","6662009ae78f21dd82fcd179","66620eb1ec34f31ab08d4bfa","1833","","f","","","","","","","","./tasks/HMM-beads/Images/NewTrialWC.png","practice","0","3","0","0","1","0","true","",""
"image-keyboard-response","23","234201","0.0-3.0-4.0-1.0-1.3","610038371297afd6f2db9323","6662009ae78f21dd82fcd179","66620eb1ec34f31ab08d4bfa","null","","null","","","","","","","","./tasks/HMM-beads/Images/BlackBeadChoice.png","","","","","","","","","",""
"image-keyboard-response","24","234704","0.0-3.0-4.0-1.0-2.3","610038371297afd6f2db9323","6662009ae78f21dd82fcd179","66620eb1ec34f31ab08d4bfa","null","","null","","","","","","","","./tasks/HMM-beads/Images/BlackBeadChoiceCorrect.png","","","","","","","","","",""
"image-keyboard-response","25","237131","0.0-3.0-4.0-1.0-0.4","610038371297afd6f2db9323","6662009ae78f21dd82fcd179","66620eb1ec34f31ab08d4bfa","2427","","f","","","","","","","","./tasks/HMM-beads/Images/NewTrialBC.png","practice","0","4","0","0","0","0","true","",""
"image-keyboard-response","26","237434","0.0-3.0-4.0-1.0-1.4","610038371297afd6f2db9323","6662009ae78f21dd82fcd179","66620eb1ec34f31ab08d4bfa","null","","null","","","","","","","","./tasks/HMM-beads/Images/BlackBeadChoice.png","","","","","","","","","",""
"image-keyboard-response","27","237935","0.0-3.0-4.0-1.0-2.4","610038371297afd6f2db9323","6662009ae78f21dd82fcd179","66620eb1ec34f31ab08d4bfa","null","","null","","","","","","","","./tasks/HMM-beads/Images/BlackBeadChoiceCorrect.png","","","","","","","","","",""
"image-keyboard-response","28","240332","0.0-3.0-4.0-1.0-0.5","610038371297afd6f2db9323","6662009ae78f21dd82fcd179","66620eb1ec34f31ab08d4bfa","2397","","f","","","","","","","","./tasks/HMM-beads/Images/NewTrialBC.png","practice","0","5","0","1","0","0","false","",""
"image-keyboard-response","29","240643","0.0-3.0-4.0-1.0-1.5","610038371297afd6f2db9323","6662009ae78f21dd82fcd179","66620eb1ec34f31ab08d4bfa","null","","null","","","","","","","","./tasks/HMM-beads/Images/BlackBeadChoice.png","","","","","","","","","",""
"image-keyboard-response","30","241144","0.0-3.0-4.0-1.0-2.5","610038371297afd6f2db9323","6662009ae78f21dd82fcd179","66620eb1ec34f31ab08d4bfa","null","","null","","","","","","","","./tasks/HMM-beads/Images/BlackBeadChoiceWrong.png","","","","","","","","","",""
"image-keyboard-response","31","243048","0.0-3.0-4.0-1.0-0.6","610038371297afd6f2db9323","6662009ae78f21dd82fcd179","66620eb1ec34f31ab08d4bfa","1904","","f","","","","","","","","./tasks/HMM-beads/Images/NewTrialWC.png","practice","0","6","0","0","1","0","true","",""
"image-keyboard-response","32","243362","0.0-3.0-4.0-1.0-1.6","610038371297afd6f2db9323","6662009ae78f21dd82fcd179","66620eb1ec34f31ab08d4bfa","null","","null","","","","","","","","./tasks/HMM-beads/Images/BlackBeadChoice.png","","","","","","","","","",""
"image-keyboard-response","33","243873","0.0-3.0-4.0-1.0-2.6","610038371297afd6f2db9323","6662009ae78f21dd82fcd179","66620eb1ec34f31ab08d4bfa","null","","null","","","","","","","","./tasks/HMM-beads/Images/BlackBeadChoiceCorrect.png","","","","","","","","","",""
"image-keyboard-response","34","245168","0.0-3.0-4.0-1.0-0.7","610038371297afd6f2db9323","6662009ae78f21dd82fcd179","66620eb1ec34f31ab08d4bfa","1294","","f","","","","","","","","./tasks/HMM-beads/Images/NewTrialBC.png","practice","0","7","0","0","0","0","true","",""
"image-keyboard-response","35","245470","0.0-3.0-4.0-1.0-1.7","610038371297afd6f2db9323","6662009ae78f21dd82fcd179","66620eb1ec34f31ab08d4bfa","null","","null","","","","","","","","./tasks/HMM-beads/Images/BlackBeadChoice.png","","","","","","","","","",""
"image-keyboard-response","36","245973","0.0-3.0-4.0-1.0-2.7","610038371297afd6f2db9323","6662009ae78f21dd82fcd179","66620eb1ec34f31ab08d4bfa","null","","null","","","","","","","","./tasks/HMM-beads/Images/BlackBeadChoiceCorrect.png","","","","","","","","","",""
"image-keyboard-response","37","247312","0.0-3.0-4.0-1.0-0.8","610038371297afd6f2db9323","6662009ae78f21dd82fcd179","66620eb1ec34f31ab08d4bfa","1338","","f","","","","","","","","./tasks/HMM-beads/Images/NewTrialBC.png","practice","0","8","0","0","0","0","true","",""
"image-keyboard-response","38","247616","0.0-3.0-4.0-1.0-1.8","610038371297afd6f2db9323","6662009ae78f21dd82fcd179","66620eb1ec34f31ab08d4bfa","null","","null","","","","","","","","./tasks/HMM-beads/Images/BlackBeadChoice.png","","","","","","","","","",""
"image-keyboard-response","39","248133","0.0-3.0-4.0-1.0-2.8","610038371297afd6f2db9323","6662009ae78f21dd82fcd179","66620eb1ec34f31ab08d4bfa","null","","null","","","","","","","","./tasks/HMM-beads/Images/BlackBeadChoiceCorrect.png","","","","","","","","","",""
"image-keyboard-response","40","249547","0.0-3.0-4.0-1.0-0.9","610038371297afd6f2db9323","6662009ae78f21dd82fcd179","66620eb1ec34f31ab08d4bfa","1414","","j","","","","","","","","./tasks/HMM-beads/Images/NewTrialBC.png","practice","0","9","0","1","0","1","true","",""
"image-keyboard-response","41","249853","0.0-3.0-4.0-1.0-1.9","610038371297afd6f2db9323","6662009ae78f21dd82fcd179","66620eb1ec34f31ab08d4bfa","null","","null","","","","","","","","./tasks/HMM-beads/Images/WhiteBeadChoice.png","","","","","","","","","",""
"image-keyboard-response","42","250355","0.0-3.0-4.0-1.0-2.9","610038371297afd6f2db9323","6662009ae78f21dd82fcd179","66620eb1ec34f31ab08d4bfa","null","","null","","","","","","","","./tasks/HMM-beads/Images/WhiteBeadChoiceCorrect.png","","","","","","","","","",""
"image-keyboard-response","43","253868","0.0-3.0-4.0-1.0-0.10","610038371297afd6f2db9323","6662009ae78f21dd82fcd179","66620eb1ec34f31ab08d4bfa","3513","","f","","","","","","","","./tasks/HMM-beads/Images/NewTrialWC.png","practice","0","10","0","0","1","0","true","",""
"image-keyboard-response","44","254176","0.0-3.0-4.0-1.0-1.10","610038371297afd6f2db9323","6662009ae78f21dd82fcd179","66620eb1ec34f31ab08d4bfa","null","","null","","","","","","","","./tasks/HMM-beads/Images/BlackBeadChoice.png","","","","","","","","","",""
"image-keyboard-response","45","254680","0.0-3.0-4.0-1.0-2.10","610038371297afd6f2db9323","6662009ae78f21dd82fcd179","66620eb1ec34f31ab08d4bfa","null","","null","","","","","","","","./tasks/HMM-beads/Images/BlackBeadChoiceCorrect.png","","","","","","","","","",""
"image-keyboard-response","46","255658","0.0-3.0-4.0-1.0-0.11","610038371297afd6f2db9323","6662009ae78f21dd82fcd179","66620eb1ec34f31ab08d4bfa","978","","f","","","","","","","","./tasks/HMM-beads/Images/NewTrialBC.png","practice","0","11","0","1","0","0","false","",""
"image-keyboard-response","47","255960","0.0-3.0-4.0-1.0-1.11","610038371297afd6f2db9323","6662009ae78f21dd82fcd179","66620eb1ec34f31ab08d4bfa","null","","null","","","","","","","","./tasks/HMM-beads/Images/BlackBeadChoice.png","","","","","","","","","",""
"image-keyboard-response","48","256464","0.0-3.0-4.0-1.0-2.11","610038371297afd6f2db9323","6662009ae78f21dd82fcd179","66620eb1ec34f31ab08d4bfa","null","","null","","","","","","","","./tasks/HMM-beads/Images/BlackBeadChoiceWrong.png","","","","","","","","","",""
"image-keyboard-response","49","258116","0.0-3.0-4.0-1.0-0.12","610038371297afd6f2db9323","6662009ae78f21dd82fcd179","66620eb1ec34f31ab08d4bfa","1652","","j","","","","","","","","./tasks/HMM-beads/Images/NewTrialWC.png","practice","0","12","0","0","1","1","false","",""
"image-keyboard-response","50","258430","0.0-3.0-4.0-1.0-1.12","610038371297afd6f2db9323","6662009ae78f21dd82fcd179","66620eb1ec34f31ab08d4bfa","null","","null","","","","","","","","./tasks/HMM-beads/Images/WhiteBeadChoice.png","","","","","","","","","",""
"image-keyboard-response","51","258944","0.0-3.0-4.0-1.0-2.12","610038371297afd6f2db9323","6662009ae78f21dd82fcd179","66620eb1ec34f31ab08d4bfa","null","","null","","","","","","","","./tasks/HMM-beads/Images/WhiteBeadChoiceWrong.png","","","","","","","","","",""
"image-keyboard-response","52","260377","0.0-3.0-4.0-1.0-0.13","610038371297afd6f2db9323","6662009ae78f21dd82fcd179","66620eb1ec34f31ab08d4bfa","1432","","j","","","","","","","","./tasks/HMM-beads/Images/NewTrialBC.png","practice","0","13","0","0","0","1","false","",""
"image-keyboard-response","53","260683","0.0-3.0-4.0-1.0-1.13","610038371297afd6f2db9323","6662009ae78f21dd82fcd179","66620eb1ec34f31ab08d4bfa","null","","null","","","","","","","","./tasks/HMM-beads/Images/WhiteBeadChoice.png","","","","","","","","","",""
"image-keyboard-response","54","261185","0.0-3.0-4.0-1.0-2.13","610038371297afd6f2db9323","6662009ae78f21dd82fcd179","66620eb1ec34f31ab08d4bfa","null","","null","","","","","","","","./tasks/HMM-beads/Images/WhiteBeadChoiceWrong.png","","","","","","","","","",""
"image-keyboard-response","55","262429","0.0-3.0-4.0-1.0-0.14","610038371297afd6f2db9323","6662009ae78f21dd82fcd179","66620eb1ec34f31ab08d4bfa","1244","","f","","","","","","","","./tasks/HMM-beads/Images/NewTrialBC.png","practice","0","14","0","0","0","0","true","",""
"image-keyboard-response","56","262737","0.0-3.0-4.0-1.0-1.14","610038371297afd6f2db9323","6662009ae78f21dd82fcd179","66620eb1ec34f31ab08d4bfa","null","","null","","","","","","","","./tasks/HMM-beads/Images/BlackBeadChoice.png","","","","","","","","","",""
"image-keyboard-response","57","263253","0.0-3.0-4.0-1.0-2.14","610038371297afd6f2db9323","6662009ae78f21dd82fcd179","66620eb1ec34f31ab08d4bfa","null","","null","","","","","","","","./tasks/HMM-beads/Images/BlackBeadChoiceCorrect.png","","","","","","","","","",""
"image-keyboard-response","58","264290","0.0-3.0-4.0-1.0-0.15","610038371297afd6f2db9323","6662009ae78f21dd82fcd179","66620eb1ec34f31ab08d4bfa","1036","","f","","","","","","","","./tasks/HMM-beads/Images/NewTrialBC.png","practice","0","15","0","0","0","0","true","",""
"image-keyboard-response","59","264593","0.0-3.0-4.0-1.0-1.15","610038371297afd6f2db9323","6662009ae78f21dd82fcd179","66620eb1ec34f31ab08d4bfa","null","","null","","","","","","","","./tasks/HMM-beads/Images/BlackBeadChoice.png","","","","","","","","","",""
"image-keyboard-response","60","265094","0.0-3.0-4.0-1.0-2.15","610038371297afd6f2db9323","6662009ae78f21dd82fcd179","66620eb1ec34f31ab08d4bfa","null","","null","","","","","","","","./tasks/HMM-beads/Images/BlackBeadChoiceCorrect.png","","","","","","","","","",""
"image-keyboard-response","61","266026","0.0-3.0-4.0-1.0-0.16","610038371297afd6f2db9323","6662009ae78f21dd82fcd179","66620eb1ec34f31ab08d4bfa","931","","j","","","","","","","","./tasks/HMM-beads/Images/NewTrialBC.png","practice","0","16","0","0","0","1","false","",""
"image-keyboard-response","62","266341","0.0-3.0-4.0-1.0-1.16","610038371297afd6f2db9323","6662009ae78f21dd82fcd179","66620eb1ec34f31ab08d4bfa","null","","null","","","","","","","","./tasks/HMM-beads/Images/WhiteBeadChoice.png","","","","","","","","","",""
"image-keyboard-response","63","266857","0.0-3.0-4.0-1.0-2.16","610038371297afd6f2db9323","6662009ae78f21dd82fcd179","66620eb1ec34f31ab08d4bfa","null","","null","","","","","","","","./tasks/HMM-beads/Images/WhiteBeadChoiceWrong.png","","","","","","","","","",""
"image-keyboard-response","64","267841","0.0-3.0-4.0-1.0-0.17","610038371297afd6f2db9323","6662009ae78f21dd82fcd179","66620eb1ec34f31ab08d4bfa","983","","j","","","","","","","","./tasks/HMM-beads/Images/NewTrialBC.png","practice","0","17","0","0","0","1","false","",""
"image-keyboard-response","65","268156","0.0-3.0-4.0-1.0-1.17","610038371297afd6f2db9323","6662009ae78f21dd82fcd179","66620eb1ec34f31ab08d4bfa","null","","null","","","","","","","","./tasks/HMM-beads/Images/WhiteBeadChoice.png","","","","","","","","","",""
"image-keyboard-response","66","268658","0.0-3.0-4.0-1.0-2.17","610038371297afd6f2db9323","6662009ae78f21dd82fcd179","66620eb1ec34f31ab08d4bfa","null","","null","","","","","","","","./tasks/HMM-beads/Images/WhiteBeadChoiceWrong.png","","","","","","","","","",""
"image-keyboard-response","67","269304","0.0-3.0-4.0-1.0-0.18","610038371297afd6f2db9323","6662009ae78f21dd82fcd179","66620eb1ec34f31ab08d4bfa","645","","f","","","","","","","","./tasks/HMM-beads/Images/NewTrialBC.png","practice","0","18","0","1","0","0","false","",""
"image-keyboard-response","68","269609","0.0-3.0-4.0-1.0-1.18","610038371297afd6f2db9323","6662009ae78f21dd82fcd179","66620eb1ec34f31ab08d4bfa","null","","null","","","","","","","","./tasks/HMM-beads/Images/BlackBeadChoice.png","","","","","","","","","",""
"image-keyboard-response","69","270122","0.0-3.0-4.0-1.0-2.18","610038371297afd6f2db9323","6662009ae78f21dd82fcd179","66620eb1ec34f31ab08d4bfa","null","","null","","","","","","","","./tasks/HMM-beads/Images/BlackBeadChoiceWrong.png","","","","","","","","","",""
"image-keyboard-response","70","271135","0.0-3.0-4.0-1.0-0.19","610038371297afd6f2db9323","6662009ae78f21dd82fcd179","66620eb1ec34f31ab08d4bfa","1012","","f","","","","","","","","./tasks/HMM-beads/Images/NewTrialWC.png","practice","0","19","0","0","1","0","true","",""
"image-keyboard-response","71","271450","0.0-3.0-4.0-1.0-1.19","610038371297afd6f2db9323","6662009ae78f21dd82fcd179","66620eb1ec34f31ab08d4bfa","null","","null","","","","","","","","./tasks/HMM-beads/Images/BlackBeadChoice.png","","","","","","","","","",""
"image-keyboard-response","72","271952","0.0-3.0-4.0-1.0-2.19","610038371297afd6f2db9323","6662009ae78f21dd82fcd179","66620eb1ec34f31ab08d4bfa","null","","null","","","","","","","","./tasks/HMM-beads/Images/BlackBeadChoiceCorrect.png","","","","","","","","","",""
"image-keyboard-response","73","272940","0.0-3.0-4.0-1.0-0.20","610038371297afd6f2db9323","6662009ae78f21dd82fcd179","66620eb1ec34f31ab08d4bfa","988","","f","","","","","","","","./tasks/HMM-beads/Images/NewTrialBC.png","practice","0","20","0","0","0","0","true","",""
"image-keyboard-response","74","273246","0.0-3.0-4.0-1.0-1.20","610038371297afd6f2db9323","6662009ae78f21dd82fcd179","66620eb1ec34f31ab08d4bfa","null","","null","","","","","","","","./tasks/HMM-beads/Images/BlackBeadChoice.png","","","","","","","","","",""
"image-keyboard-response","75","273749","0.0-3.0-4.0-1.0-2.20","610038371297afd6f2db9323","6662009ae78f21dd82fcd179","66620eb1ec34f31ab08d4bfa","null","","null","","","","","","","","./tasks/HMM-beads/Images/BlackBeadChoiceCorrect.png","","","","","","","","","",""
"image-keyboard-response","76","274423","0.0-3.0-4.0-1.0-0.21","610038371297afd6f2db9323","6662009ae78f21dd82fcd179","66620eb1ec34f31ab08d4bfa","673","","f","","","","","","","","./tasks/HMM-beads/Images/NewTrialBC.png","practice","0","21","0","1","0","0","false","",""
"image-keyboard-response","77","274736","0.0-3.0-4.0-1.0-1.21","610038371297afd6f2db9323","6662009ae78f21dd82fcd179","66620eb1ec34f31ab08d4bfa","null","","null","","","","","","","","./tasks/HMM-beads/Images/BlackBeadChoice.png","","","","","","","","","",""
"image-keyboard-response","78","275250","0.0-3.0-4.0-1.0-2.21","610038371297afd6f2db9323","6662009ae78f21dd82fcd179","66620eb1ec34f31ab08d4bfa","null","","null","","","","","","","","./tasks/HMM-beads/Images/BlackBeadChoiceWrong.png","","","","","","","","","",""
"image-keyboard-response","79","275795","0.0-3.0-4.0-1.0-0.22","610038371297afd6f2db9323","6662009ae78f21dd82fcd179","66620eb1ec34f31ab08d4bfa","545","","f","","","","","","","","./tasks/HMM-beads/Images/NewTrialWC.png","practice","0","22","1","1","1","0","false","",""
"image-keyboard-response","80","276098","0.0-3.0-4.0-1.0-1.22","610038371297afd6f2db9323","6662009ae78f21dd82fcd179","66620eb1ec34f31ab08d4bfa","null","","null","","","","","","","","./tasks/HMM-beads/Images/BlackBeadChoice.png","","","","","","","","","",""
"image-keyboard-response","81","276599","0.0-3.0-4.0-1.0-2.22","610038371297afd6f2db9323","6662009ae78f21dd82fcd179","66620eb1ec34f31ab08d4bfa","null","","null","","","","","","","","./tasks/HMM-beads/Images/BlackBeadChoiceWrong.png","","","","","","","","","",""
"image-keyboard-response","82","277455","0.0-3.0-4.0-1.0-0.23","610038371297afd6f2db9323","6662009ae78f21dd82fcd179","66620eb1ec34f31ab08d4bfa","855","","j","","","","","","","","./tasks/HMM-beads/Images/NewTrialWC.png","practice","0","23","1","0","1","1","false","",""
"image-keyboard-response","83","277769","0.0-3.0-4.0-1.0-1.23","610038371297afd6f2db9323","6662009ae78f21dd82fcd179","66620eb1ec34f31ab08d4bfa","null","","null","","","","","","","","./tasks/HMM-beads/Images/WhiteBeadChoice.png","","","","","","","","","",""
"image-keyboard-response","84","278280","0.0-3.0-4.0-1.0-2.23","610038371297afd6f2db9323","6662009ae78f21dd82fcd179","66620eb1ec34f31ab08d4bfa","null","","null","","","","","","","","./tasks/HMM-beads/Images/WhiteBeadChoiceWrong.png","","","","","","","","","",""
"image-keyboard-response","85","278831","0.0-3.0-4.0-1.0-0.24","610038371297afd6f2db9323","6662009ae78f21dd82fcd179","66620eb1ec34f31ab08d4bfa","550","","f","","","","","","","","./tasks/HMM-beads/Images/NewTrialBC.png","practice","0","24","1","1","0","0","false","",""
"image-keyboard-response","86","279144","0.0-3.0-4.0-1.0-1.24","610038371297afd6f2db9323","6662009ae78f21dd82fcd179","66620eb1ec34f31ab08d4bfa","null","","null","","","","","","","","./tasks/HMM-beads/Images/BlackBeadChoice.png","","","","","","","","","",""
"image-keyboard-response","87","279660","0.0-3.0-4.0-1.0-2.24","610038371297afd6f2db9323","6662009ae78f21dd82fcd179","66620eb1ec34f31ab08d4bfa","null","","null","","","","","","","","./tasks/HMM-beads/Images/BlackBeadChoiceWrong.png","","","","","","","","","",""
"image-keyboard-response","88","280052","0.0-3.0-4.0-1.0-0.25","610038371297afd6f2db9323","6662009ae78f21dd82fcd179","66620eb1ec34f31ab08d4bfa","392","","j","","","","","","","","./tasks/HMM-beads/Images/NewTrialWC.png","practice","0","25","1","1","1","1","true","",""
"image-keyboard-response","89","280367","0.0-3.0-4.0-1.0-1.25","610038371297afd6f2db9323","6662009ae78f21dd82fcd179","66620eb1ec34f31ab08d4bfa","null","","null","","","","","","","","./tasks/HMM-beads/Images/WhiteBeadChoice.png","","","","","","","","","",""
"image-keyboard-response","90","280884","0.0-3.0-4.0-1.0-2.25","610038371297afd6f2db9323","6662009ae78f21dd82fcd179","66620eb1ec34f31ab08d4bfa","null","","null","","","","","","","","./tasks/HMM-beads/Images/WhiteBeadChoiceCorrect.png","","","","","","","","","",""
"image-keyboard-response","91","281407","0.0-3.0-4.0-1.0-0.26","610038371297afd6f2db9323","6662009ae78f21dd82fcd179","66620eb1ec34f31ab08d4bfa","523","","j","","","","","","","","./tasks/HMM-beads/Images/NewTrialWC.png","practice","0","26","1","1","1","1","true","",""
"image-keyboard-response","92","281713","0.0-3.0-4.0-1.0-1.26","610038371297afd6f2db9323","6662009ae78f21dd82fcd179","66620eb1ec34f31ab08d4bfa","null","","null","","","","","","","","./tasks/HMM-beads/Images/WhiteBeadChoice.png","","","","","","","","","",""
"image-keyboard-response","93","282227","0.0-3.0-4.0-1.0-2.26","610038371297afd6f2db9323","6662009ae78f21dd82fcd179","66620eb1ec34f31ab08d4bfa","null","","null","","","","","","","","./tasks/HMM-beads/Images/WhiteBeadChoiceCorrect.png","","","","","","","","","",""
"image-keyboard-response","94","282741","0.0-3.0-4.0-1.0-0.27","610038371297afd6f2db9323","6662009ae78f21dd82fcd179","66620eb1ec34f31ab08d4bfa","514","","j","","","","","","","","./tasks/HMM-beads/Images/NewTrialWC.png","practice","0","27","1","1","1","1","true","",""
"image-keyboard-response","95","283057","0.0-3.0-4.0-1.0-1.27","610038371297afd6f2db9323","6662009ae78f21dd82fcd179","66620eb1ec34f31ab08d4bfa","null","","null","","","","","","","","./tasks/HMM-beads/Images/WhiteBeadChoice.png","","","","","","","","","",""
"image-keyboard-response","96","283573","0.0-3.0-4.0-1.0-2.27","610038371297afd6f2db9323","6662009ae78f21dd82fcd179","66620eb1ec34f31ab08d4bfa","null","","null","","","","","","","","./tasks/HMM-beads/Images/WhiteBeadChoiceCorrect.png","","","","","","","","","",""
"image-keyboard-response","97","284043","0.0-3.0-4.0-1.0-0.28","610038371297afd6f2db9323","6662009ae78f21dd82fcd179","66620eb1ec34f31ab08d4bfa","470","","j","","","","","","","","./tasks/HMM-beads/Images/NewTrialWC.png","practice","0","28","1","0","1","1","false","",""
"image-keyboard-response","98","284349","0.0-3.0-4.0-1.0-1.28","610038371297afd6f2db9323","6662009ae78f21dd82fcd179","66620eb1ec34f31ab08d4bfa","null","","null","","","","","","","","./tasks/HMM-beads/Images/WhiteBeadChoice.png","","","","","","","","","",""
"image-keyboard-response","99","284863","0.0-3.0-4.0-1.0-2.28","610038371297afd6f2db9323","6662009ae78f21dd82fcd179","66620eb1ec34f31ab08d4bfa","null","","null","","","","","","","","./tasks/HMM-beads/Images/WhiteBeadChoiceWrong.png","","","","","","","","","",""
"image-keyboard-response","100","285505","0.0-3.0-4.0-1.0-0.29","610038371297afd6f2db9323","6662009ae78f21dd82fcd179","66620eb1ec34f31ab08d4bfa","641","","j","","","","","","","","./tasks/HMM-beads/Images/NewTrialBC.png","practice","0","29","1","1","0","1","true","",""
"image-keyboard-response","101","285807","0.0-3.0-4.0-1.0-1.29","610038371297afd6f2db9323","6662009ae78f21dd82fcd179","66620eb1ec34f31ab08d4bfa","null","","null","","","","","","","","./tasks/HMM-beads/Images/WhiteBeadChoice.png","","","","","","","","","",""
"image-keyboard-response","102","286309","0.0-3.0-4.0-1.0-2.29","610038371297afd6f2db9323","6662009ae78f21dd82fcd179","66620eb1ec34f31ab08d4bfa","null","","null","","","","","","","","./tasks/HMM-beads/Images/WhiteBeadChoiceCorrect.png","","","","","","","","","",""
"image-keyboard-response","103","287282","0.0-3.0-4.0-1.0-0.30","610038371297afd6f2db9323","6662009ae78f21dd82fcd179","66620eb1ec34f31ab08d4bfa","973","","j","","","","","","","","./tasks/HMM-beads/Images/NewTrialWC.png","practice","0","30","1","0","1","1","false","",""
"image-keyboard-response","104","287590","0.0-3.0-4.0-1.0-1.30","610038371297afd6f2db9323","6662009ae78f21dd82fcd179","66620eb1ec34f31ab08d4bfa","null","","null","","","","","","","","./tasks/HMM-beads/Images/WhiteBeadChoice.png","","","","","","","","","",""
"image-keyboard-response","105","288106","0.0-3.0-4.0-1.0-2.30","610038371297afd6f2db9323","6662009ae78f21dd82fcd179","66620eb1ec34f31ab08d4bfa","null","","null","","","","","","","","./tasks/HMM-beads/Images/WhiteBeadChoiceWrong.png","","","","","","","","","",""
"image-keyboard-response","106","288766","0.0-3.0-4.0-1.0-0.31","610038371297afd6f2db9323","6662009ae78f21dd82fcd179","66620eb1ec34f31ab08d4bfa","660","","j","","","","","","","","./tasks/HMM-beads/Images/NewTrialBC.png","practice","0","31","1","1","0","1","true","",""
"image-keyboard-response","107","289074","0.0-3.0-4.0-1.0-1.31","610038371297afd6f2db9323","6662009ae78f21dd82fcd179","66620eb1ec34f31ab08d4bfa","null","","null","","","","","","","","./tasks/HMM-beads/Images/WhiteBeadChoice.png","","","","","","","","","",""
"image-keyboard-response","108","289586","0.0-3.0-4.0-1.0-2.31","610038371297afd6f2db9323","6662009ae78f21dd82fcd179","66620eb1ec34f31ab08d4bfa","null","","null","","","","","","","","./tasks/HMM-beads/Images/WhiteBeadChoiceCorrect.png","","","","","","","","","",""
"image-keyboard-response","109","290055","0.0-3.0-4.0-1.0-0.32","610038371297afd6f2db9323","6662009ae78f21dd82fcd179","66620eb1ec34f31ab08d4bfa","468","","j","","","","","","","","./tasks/HMM-beads/Images/NewTrialWC.png","practice","0","32","1","1","1","1","true","",""
"image-keyboard-response","110","290370","0.0-3.0-4.0-1.0-1.32","610038371297afd6f2db9323","6662009ae78f21dd82fcd179","66620eb1ec34f31ab08d4bfa","null","","null","","","","","","","","./tasks/HMM-beads/Images/WhiteBeadChoice.png","","","","","","","","","",""
"image-keyboard-response","111","290886","0.0-3.0-4.0-1.0-2.32","610038371297afd6f2db9323","6662009ae78f21dd82fcd179","66620eb1ec34f31ab08d4bfa","null","","null","","","","","","","","./tasks/HMM-beads/Images/WhiteBeadChoiceCorrect.png","","","","","","","","","",""
"image-keyboard-response","112","291406","0.0-3.0-4.0-1.0-0.33","610038371297afd6f2db9323","6662009ae78f21dd82fcd179","66620eb1ec34f31ab08d4bfa","519","","j","","","","","","","","./tasks/HMM-beads/Images/NewTrialWC.png","practice","0","33","1","1","1","1","true","",""
"image-keyboard-response","113","291712","0.0-3.0-4.0-1.0-1.33","610038371297afd6f2db9323","6662009ae78f21dd82fcd179","66620eb1ec34f31ab08d4bfa","null","","null","","","","","","","","./tasks/HMM-beads/Images/WhiteBeadChoice.png","","","","","","","","","",""
"image-keyboard-response","114","292213","0.0-3.0-4.0-1.0-2.33","610038371297afd6f2db9323","6662009ae78f21dd82fcd179","66620eb1ec34f31ab08d4bfa","null","","null","","","","","","","","./tasks/HMM-beads/Images/WhiteBeadChoiceCorrect.png","","","","","","","","","",""
"image-keyboard-response","115","292724","0.0-3.0-4.0-1.0-0.34","610038371297afd6f2db9323","6662009ae78f21dd82fcd179","66620eb1ec34f31ab08d4bfa","511","","f","","","","","","","","./tasks/HMM-beads/Images/NewTrialWC.png","practice","0","34","1","1","1","0","false","",""
"image-keyboard-response","116","293039","0.0-3.0-4.0-1.0-1.34","610038371297afd6f2db9323","6662009ae78f21dd82fcd179","66620eb1ec34f31ab08d4bfa","null","","null","","","","","","","","./tasks/HMM-beads/Images/BlackBeadChoice.png","","","","","","","","","",""
"image-keyboard-response","117","293540","0.0-3.0-4.0-1.0-2.34","610038371297afd6f2db9323","6662009ae78f21dd82fcd179","66620eb1ec34f31ab08d4bfa","null","","null","","","","","","","","./tasks/HMM-beads/Images/BlackBeadChoiceWrong.png","","","","","","","","","",""
"image-keyboard-response","118","294049","0.0-3.0-4.0-1.0-0.35","610038371297afd6f2db9323","6662009ae78f21dd82fcd179","66620eb1ec34f31ab08d4bfa","509","","j","","","","","","","","./tasks/HMM-beads/Images/NewTrialWC.png","practice","0","35","1","1","1","1","true","",""
"image-keyboard-response","119","294355","0.0-3.0-4.0-1.0-1.35","610038371297afd6f2db9323","6662009ae78f21dd82fcd179","66620eb1ec34f31ab08d4bfa","null","","null","","","","","","","","./tasks/HMM-beads/Images/WhiteBeadChoice.png","","","","","","","","","",""
"image-keyboard-response","120","294868","0.0-3.0-4.0-1.0-2.35","610038371297afd6f2db9323","6662009ae78f21dd82fcd179","66620eb1ec34f31ab08d4bfa","null","","null","","","","","","","","./tasks/HMM-beads/Images/WhiteBeadChoiceCorrect.png","","","","","","","","","",""
"image-keyboard-response","121","295415","0.0-3.0-4.0-1.0-0.36","610038371297afd6f2db9323","6662009ae78f21dd82fcd179","66620eb1ec34f31ab08d4bfa","546","","f","","","","","","","","./tasks/HMM-beads/Images/NewTrialWC.png","practice","0","36","1","0","1","0","true","",""
"image-keyboard-response","122","295722","0.0-3.0-4.0-1.0-1.36","610038371297afd6f2db9323","6662009ae78f21dd82fcd179","66620eb1ec34f31ab08d4bfa","null","","null","","","","","","","","./tasks/HMM-beads/Images/BlackBeadChoice.png","","","","","","","","","",""
"image-keyboard-response","123","296235","0.0-3.0-4.0-1.0-2.36","610038371297afd6f2db9323","6662009ae78f21dd82fcd179","66620eb1ec34f31ab08d4bfa","null","","null","","","","","","","","./tasks/HMM-beads/Images/BlackBeadChoiceCorrect.png","","","","","","","","","",""
"image-keyboard-response","124","296776","0.0-3.0-4.0-1.0-0.37","610038371297afd6f2db9323","6662009ae78f21dd82fcd179","66620eb1ec34f31ab08d4bfa","540","","j","","","","","","","","./tasks/HMM-beads/Images/NewTrialBC.png","practice","0","37","1","1","0","1","true","",""
"image-keyboard-response","125","297092","0.0-3.0-4.0-1.0-1.37","610038371297afd6f2db9323","6662009ae78f21dd82fcd179","66620eb1ec34f31ab08d4bfa","null","","null","","","","","","","","./tasks/HMM-beads/Images/WhiteBeadChoice.png","","","","","","","","","",""
"image-keyboard-response","126","297605","0.0-3.0-4.0-1.0-2.37","610038371297afd6f2db9323","6662009ae78f21dd82fcd179","66620eb1ec34f31ab08d4bfa","null","","null","","","","","","","","./tasks/HMM-beads/Images/WhiteBeadChoiceCorrect.png","","","","","","","","","",""
"image-keyboard-response","127","298137","0.0-3.0-4.0-1.0-0.38","610038371297afd6f2db9323","6662009ae78f21dd82fcd179","66620eb1ec34f31ab08d4bfa","532","","j","","","","","","","","./tasks/HMM-beads/Images/NewTrialWC.png","practice","0","38","1","1","1","1","true","",""
"image-keyboard-response","128","298450","0.0-3.0-4.0-1.0-1.38","610038371297afd6f2db9323","6662009ae78f21dd82fcd179","66620eb1ec34f31ab08d4bfa","null","","null","","","","","","","","./tasks/HMM-beads/Images/WhiteBeadChoice.png","","","","","","","","","",""
"image-keyboard-response","129","298968","0.0-3.0-4.0-1.0-2.38","610038371297afd6f2db9323","6662009ae78f21dd82fcd179","66620eb1ec34f31ab08d4bfa","null","","null","","","","","","","","./tasks/HMM-beads/Images/WhiteBeadChoiceCorrect.png","","","","","","","","","",""
"image-keyboard-response","130","299530","0.0-3.0-4.0-1.0-0.39","610038371297afd6f2db9323","6662009ae78f21dd82fcd179","66620eb1ec34f31ab08d4bfa","562","","j","","","","","","","","./tasks/HMM-beads/Images/NewTrialWC.png","practice","0","39","1","1","1","1","true","",""
"image-keyboard-response","131","299835","0.0-3.0-4.0-1.0-1.39","610038371297afd6f2db9323","6662009ae78f21dd82fcd179","66620eb1ec34f31ab08d4bfa","null","","null","","","","","","","","./tasks/HMM-beads/Images/WhiteBeadChoice.png","","","","","","","","","",""
"image-keyboard-response","132","300341","0.0-3.0-4.0-1.0-2.39","610038371297afd6f2db9323","6662009ae78f21dd82fcd179","66620eb1ec34f31ab08d4bfa","null","","null","","","","","","","","./tasks/HMM-beads/Images/WhiteBeadChoiceCorrect.png","","","","","","","","","",""
"html-keyboard-response","133","322495","0.0-3.0-4.0-2.0","610038371297afd6f2db9323","6662009ae78f21dd82fcd179","66620eb1ec34f31ab08d4bfa","22153",""," ","","","","","","","","","","","","","","","","","",""
"instructions","134","449642","0.0-3.0-5.0","610038371297afd6f2db9323","6662009ae78f21dd82fcd179","66620eb1ec34f31ab08d4bfa","127147","","","","[{""page_index"":0,""viewing_time"":122410},{""page_index"":1,""viewing_time"":4737}]","","","","","","","","","","","","","","","",""
"html-keyboard-response","135","461292","0.0-3.0-6.0-0.0","610038371297afd6f2db9323","6662009ae78f21dd82fcd179","66620eb1ec34f31ab08d4bfa","11650",""," ","","","","","","","","<div align=center>In this block, there will be a <b>1% chance</b> that the jar on the next trial will be different from the jar on the current trial.<br><br></div>","","","","","","","","","",""
"image-keyboard-response","136","462539","0.0-3.0-6.0-1.0-0.0","610038371297afd6f2db9323","6662009ae78f21dd82fcd179","66620eb1ec34f31ab08d4bfa","1246","","f","","","","","","","","./tasks/HMM-beads/Images/NoChoice.png","lowH","1","0","1","0","9","0","true","",""
"image-keyboard-response","137","462841","0.0-3.0-6.0-1.0-1.0","610038371297afd6f2db9323","6662009ae78f21dd82fcd179","66620eb1ec34f31ab08d4bfa","null","","null","","","","","","","","./tasks/HMM-beads/Images/BlackBeadChoice.png","","","","","","","","","",""
"image-keyboard-response","138","463342","0.0-3.0-6.0-1.0-2.0","610038371297afd6f2db9323","6662009ae78f21dd82fcd179","66620eb1ec34f31ab08d4bfa","null","","null","","","","","","","","./tasks/HMM-beads/Images/BlackBeadChoiceCorrect.png","","","","","","","","","",""
"image-keyboard-response","139","463759","0.0-3.0-6.0-1.0-0.1","610038371297afd6f2db9323","6662009ae78f21dd82fcd179","66620eb1ec34f31ab08d4bfa","416","","f","","","","","","","","./tasks/HMM-beads/Images/NewTrialBC.png","lowH","1","1","1","1","0","0","false","",""
"image-keyboard-response","140","464075","0.0-3.0-6.0-1.0-1.1","610038371297afd6f2db9323","6662009ae78f21dd82fcd179","66620eb1ec34f31ab08d4bfa","null","","null","","","","","","","","./tasks/HMM-beads/Images/BlackBeadChoice.png","","","","","","","","","",""
"image-keyboard-response","141","464577","0.0-3.0-6.0-1.0-2.1","610038371297afd6f2db9323","6662009ae78f21dd82fcd179","66620eb1ec34f31ab08d4bfa","null","","null","","","","","","","","./tasks/HMM-beads/Images/BlackBeadChoiceWrong.png","","","","","","","","","",""
"image-keyboard-response","142","464992","0.0-3.0-6.0-1.0-0.2","610038371297afd6f2db9323","6662009ae78f21dd82fcd179","66620eb1ec34f31ab08d4bfa","415","","j","","","","","","","","./tasks/HMM-beads/Images/NewTrialWC.png","lowH","1","2","1","1","1","1","true","",""
"image-keyboard-response","143","465300","0.0-3.0-6.0-1.0-1.2","610038371297afd6f2db9323","6662009ae78f21dd82fcd179","66620eb1ec34f31ab08d4bfa","null","","null","","","","","","","","./tasks/HMM-beads/Images/WhiteBeadChoice.png","","","","","","","","","",""
"image-keyboard-response","144","465814","0.0-3.0-6.0-1.0-2.2","610038371297afd6f2db9323","6662009ae78f21dd82fcd179","66620eb1ec34f31ab08d4bfa","null","","null","","","","","","","","./tasks/HMM-beads/Images/WhiteBeadChoiceCorrect.png","","","","","","","","","",""
"image-keyboard-response","145","466253","0.0-3.0-6.0-1.0-0.3","610038371297afd6f2db9323","6662009ae78f21dd82fcd179","66620eb1ec34f31ab08d4bfa","438","","j","","","","","","","","./tasks/HMM-beads/Images/NewTrialWC.png","lowH","1","3","1","1","1","1","true","",""
"image-keyboard-response","146","466558","0.0-3.0-6.0-1.0-1.3","610038371297afd6f2db9323","6662009ae78f21dd82fcd179","66620eb1ec34f31ab08d4bfa","null","","null","","","","","","","","./tasks/HMM-beads/Images/WhiteBeadChoice.png","","","","","","","","","",""
"image-keyboard-response","147","467059","0.0-3.0-6.0-1.0-2.3","610038371297afd6f2db9323","6662009ae78f21dd82fcd179","66620eb1ec34f31ab08d4bfa","null","","null","","","","","","","","./tasks/HMM-beads/Images/WhiteBeadChoiceCorrect.png","","","","","","","","","",""
"image-keyboard-response","148","467999","0.0-3.0-6.0-1.0-0.4","610038371297afd6f2db9323","6662009ae78f21dd82fcd179","66620eb1ec34f31ab08d4bfa","939","","j","","","","","","","","./tasks/HMM-beads/Images/NewTrialWC.png","lowH","1","4","1","1","1","1","true","",""
"image-keyboard-response","149","468309","0.0-3.0-6.0-1.0-1.4","610038371297afd6f2db9323","6662009ae78f21dd82fcd179","66620eb1ec34f31ab08d4bfa","null","","null","","","","","","","","./tasks/HMM-beads/Images/WhiteBeadChoice.png","","","","","","","","","",""
"image-keyboard-response","150","468824","0.0-3.0-6.0-1.0-2.4","610038371297afd6f2db9323","6662009ae78f21dd82fcd179","66620eb1ec34f31ab08d4bfa","null","","null","","","","","","","","./tasks/HMM-beads/Images/WhiteBeadChoiceCorrect.png","","","","","","","","","",""
"image-keyboard-response","151","469783","0.0-3.0-6.0-1.0-0.5","610038371297afd6f2db9323","6662009ae78f21dd82fcd179","66620eb1ec34f31ab08d4bfa","959","","j","","","","","","","","./tasks/HMM-beads/Images/NewTrialWC.png","lowH","1","5","1","1","1","1","true","",""
"image-keyboard-response","152","470089","0.0-3.0-6.0-1.0-1.5","610038371297afd6f2db9323","6662009ae78f21dd82fcd179","66620eb1ec34f31ab08d4bfa","null","","null","","","","","","","","./tasks/HMM-beads/Images/WhiteBeadChoice.png","","","","","","","","","",""
"image-keyboard-response","153","470593","0.0-3.0-6.0-1.0-2.5","610038371297afd6f2db9323","6662009ae78f21dd82fcd179","66620eb1ec34f31ab08d4bfa","null","","null","","","","","","","","./tasks/HMM-beads/Images/WhiteBeadChoiceCorrect.png","","","","","","","","","",""
"image-keyboard-response","154","471253","0.0-3.0-6.0-1.0-0.6","610038371297afd6f2db9323","6662009ae78f21dd82fcd179","66620eb1ec34f31ab08d4bfa","659","","j","","","","","","","","./tasks/HMM-beads/Images/NewTrialWC.png","lowH","1","6","1","0","1","1","false","",""
"image-keyboard-response","155","471561","0.0-3.0-6.0-1.0-1.6","610038371297afd6f2db9323","6662009ae78f21dd82fcd179","66620eb1ec34f31ab08d4bfa","null","","null","","","","","","","","./tasks/HMM-beads/Images/WhiteBeadChoice.png","","","","","","","","","",""
"image-keyboard-response","156","472062","0.0-3.0-6.0-1.0-2.6","610038371297afd6f2db9323","6662009ae78f21dd82fcd179","66620eb1ec34f31ab08d4bfa","null","","null","","","","","","","","./tasks/HMM-beads/Images/WhiteBeadChoiceWrong.png","","","","","","","","","",""
"image-keyboard-response","157","472304","0.0-3.0-6.0-1.0-0.7","610038371297afd6f2db9323","6662009ae78f21dd82fcd179","66620eb1ec34f31ab08d4bfa","241","","j","","","","","","","","./tasks/HMM-beads/Images/NewTrialBC.png","lowH","1","7","1","1","0","1","true","",""
"image-keyboard-response","158","472609","0.0-3.0-6.0-1.0-1.7","610038371297afd6f2db9323","6662009ae78f21dd82fcd179","66620eb1ec34f31ab08d4bfa","null","","null","","","","","","","","./tasks/HMM-beads/Images/WhiteBeadChoice.png","","","","","","","","","",""
"image-keyboard-response","159","473123","0.0-3.0-6.0-1.0-2.7","610038371297afd6f2db9323","6662009ae78f21dd82fcd179","66620eb1ec34f31ab08d4bfa","null","","null","","","","","","","","./tasks/HMM-beads/Images/WhiteBeadChoiceCorrect.png","","","","","","","","","",""
"image-keyboard-response","160","473519","0.0-3.0-6.0-1.0-0.8","610038371297afd6f2db9323","6662009ae78f21dd82fcd179","66620eb1ec34f31ab08d4bfa","395","","j","","","","","","","","./tasks/HMM-beads/Images/NewTrialWC.png","lowH","1","8","1","1","1","1","true","",""
"image-keyboard-response","161","473826","0.0-3.0-6.0-1.0-1.8","610038371297afd6f2db9323","6662009ae78f21dd82fcd179","66620eb1ec34f31ab08d4bfa","null","","null","","","","","","","","./tasks/HMM-beads/Images/WhiteBeadChoice.png","","","","","","","","","",""
"image-keyboard-response","162","474340","0.0-3.0-6.0-1.0-2.8","610038371297afd6f2db9323","6662009ae78f21dd82fcd179","66620eb1ec34f31ab08d4bfa","null","","null","","","","","","","","./tasks/HMM-beads/Images/WhiteBeadChoiceCorrect.png","","","","","","","","","",""
"image-keyboard-response","163","474519","0.0-3.0-6.0-1.0-0.9","610038371297afd6f2db9323","6662009ae78f21dd82fcd179","66620eb1ec34f31ab08d4bfa","178","","j","","","","","","","","./tasks/HMM-beads/Images/NewTrialWC.png","lowH","1","9","1","1","1","1","true","",""
"image-keyboard-response","164","474825","0.0-3.0-6.0-1.0-1.9","610038371297afd6f2db9323","6662009ae78f21dd82fcd179","66620eb1ec34f31ab08d4bfa","null","","null","","","","","","","","./tasks/HMM-beads/Images/WhiteBeadChoice.png","","","","","","","","","",""
"image-keyboard-response","165","475326","0.0-3.0-6.0-1.0-2.9","610038371297afd6f2db9323","6662009ae78f21dd82fcd179","66620eb1ec34f31ab08d4bfa","null","","null","","","","","","","","./tasks/HMM-beads/Images/WhiteBeadChoiceCorrect.png","","","","","","","","","",""
"image-keyboard-response","166","481431","0.0-3.0-6.0-1.0-0.10","610038371297afd6f2db9323","6662009ae78f21dd82fcd179","66620eb1ec34f31ab08d4bfa","6105","","j","","","","","","","","./tasks/HMM-beads/Images/NewTrialWC.png","lowH","1","10","1","1","1","1","true","",""
"image-keyboard-response","167","481733","0.0-3.0-6.0-1.0-1.10","610038371297afd6f2db9323","6662009ae78f21dd82fcd179","66620eb1ec34f31ab08d4bfa","null","","null","","","","","","","","./tasks/HMM-beads/Images/WhiteBeadChoice.png","","","","","","","","","",""
"image-keyboard-response","168","482235","0.0-3.0-6.0-1.0-2.10","610038371297afd6f2db9323","6662009ae78f21dd82fcd179","66620eb1ec34f31ab08d4bfa","null","","null","","","","","","","","./tasks/HMM-beads/Images/WhiteBeadChoiceCorrect.png","","","","","","","","","",""
"image-keyboard-response","169","482407","0.0-3.0-6.0-1.0-0.11","610038371297afd6f2db9323","6662009ae78f21dd82fcd179","66620eb1ec34f31ab08d4bfa","172","","j","","","","","","","","./tasks/HMM-beads/Images/NewTrialWC.png","lowH","1","11","1","1","1","1","true","",""
"image-keyboard-response","170","482719","0.0-3.0-6.0-1.0-1.11","610038371297afd6f2db9323","6662009ae78f21dd82fcd179","66620eb1ec34f31ab08d4bfa","null","","null","","","","","","","","./tasks/HMM-beads/Images/WhiteBeadChoice.png","","","","","","","","","",""
"image-keyboard-response","171","483229","0.0-3.0-6.0-1.0-2.11","610038371297afd6f2db9323","6662009ae78f21dd82fcd179","66620eb1ec34f31ab08d4bfa","null","","null","","","","","","","","./tasks/HMM-beads/Images/WhiteBeadChoiceCorrect.png","","","","","","","","","",""
"image-keyboard-response","172","484381","0.0-3.0-6.0-1.0-0.12","610038371297afd6f2db9323","6662009ae78f21dd82fcd179","66620eb1ec34f31ab08d4bfa","1151","","j","","","","","","","","./tasks/HMM-beads/Images/NewTrialWC.png","lowH","1","12","1","1","1","1","true","",""
"image-keyboard-response","173","484685","0.0-3.0-6.0-1.0-1.12","610038371297afd6f2db9323","6662009ae78f21dd82fcd179","66620eb1ec34f31ab08d4bfa","null","","null","","","","","","","","./tasks/HMM-beads/Images/WhiteBeadChoice.png","","","","","","","","","",""
"image-keyboard-response","174","485199","0.0-3.0-6.0-1.0-2.12","610038371297afd6f2db9323","6662009ae78f21dd82fcd179","66620eb1ec34f31ab08d4bfa","null","","null","","","","","","","","./tasks/HMM-beads/Images/WhiteBeadChoiceCorrect.png","","","","","","","","","",""
"image-keyboard-response","175","485580","0.0-3.0-6.0-1.0-0.13","610038371297afd6f2db9323","6662009ae78f21dd82fcd179","66620eb1ec34f31ab08d4bfa","381","","j","","","","","","","","./tasks/HMM-beads/Images/NewTrialWC.png","lowH","1","13","1","0","1","1","false","",""
"image-keyboard-response","176","485887","0.0-3.0-6.0-1.0-1.13","610038371297afd6f2db9323","6662009ae78f21dd82fcd179","66620eb1ec34f31ab08d4bfa","null","","null","","","","","","","","./tasks/HMM-beads/Images/WhiteBeadChoice.png","","","","","","","","","",""
"image-keyboard-response","177","486403","0.0-3.0-6.0-1.0-2.13","610038371297afd6f2db9323","6662009ae78f21dd82fcd179","66620eb1ec34f31ab08d4bfa","null","","null","","","","","","","","./tasks/HMM-beads/Images/WhiteBeadChoiceWrong.png","","","","","","","","","",""
"image-keyboard-response","178","486746","0.0-3.0-6.0-1.0-0.14","610038371297afd6f2db9323","6662009ae78f21dd82fcd179","66620eb1ec34f31ab08d4bfa","343","","j","","","","","","","","./tasks/HMM-beads/Images/NewTrialBC.png","lowH","1","14","1","0","0","1","false","",""
"image-keyboard-response","179","487059","0.0-3.0-6.0-1.0-1.14","610038371297afd6f2db9323","6662009ae78f21dd82fcd179","66620eb1ec34f31ab08d4bfa","null","","null","","","","","","","","./tasks/HMM-beads/Images/WhiteBeadChoice.png","","","","","","","","","",""
"image-keyboard-response","180","487561","0.0-3.0-6.0-1.0-2.14","610038371297afd6f2db9323","6662009ae78f21dd82fcd179","66620eb1ec34f31ab08d4bfa","null","","null","","","","","","","","./tasks/HMM-beads/Images/WhiteBeadChoiceWrong.png","","","","","","","","","",""
"image-keyboard-response","181","488205","0.0-3.0-6.0-1.0-0.15","610038371297afd6f2db9323","6662009ae78f21dd82fcd179","66620eb1ec34f31ab08d4bfa","644","","j","","","","","","","","./tasks/HMM-beads/Images/NewTrialBC.png","lowH","1","15","1","1","0","1","true","",""
"image-keyboard-response","182","488510","0.0-3.0-6.0-1.0-1.15","610038371297afd6f2db9323","6662009ae78f21dd82fcd179","66620eb1ec34f31ab08d4bfa","null","","null","","","","","","","","./tasks/HMM-beads/Images/WhiteBeadChoice.png","","","","","","","","","",""
"image-keyboard-response","183","489013","0.0-3.0-6.0-1.0-2.15","610038371297afd6f2db9323","6662009ae78f21dd82fcd179","66620eb1ec34f31ab08d4bfa","null","","null","","","","","","","","./tasks/HMM-beads/Images/WhiteBeadChoiceCorrect.png","","","","","","","","","",""
"image-keyboard-response","184","489437","0.0-3.0-6.0-1.0-0.16","610038371297afd6f2db9323","6662009ae78f21dd82fcd179","66620eb1ec34f31ab08d4bfa","423","","j","","","","","","","","./tasks/HMM-beads/Images/NewTrialWC.png","lowH","1","16","1","1","1","1","true","",""
"image-keyboard-response","185","489747","0.0-3.0-6.0-1.0-1.16","610038371297afd6f2db9323","6662009ae78f21dd82fcd179","66620eb1ec34f31ab08d4bfa","null","","null","","","","","","","","./tasks/HMM-beads/Images/WhiteBeadChoice.png","","","","","","","","","",""
"image-keyboard-response","186","490261","0.0-3.0-6.0-1.0-2.16","610038371297afd6f2db9323","6662009ae78f21dd82fcd179","66620eb1ec34f31ab08d4bfa","null","","null","","","","","","","","./tasks/HMM-beads/Images/WhiteBeadChoiceCorrect.png","","","","","","","","","",""
"image-keyboard-response","187","490558","0.0-3.0-6.0-1.0-0.17","610038371297afd6f2db9323","6662009ae78f21dd82fcd179","66620eb1ec34f31ab08d4bfa","296","","j","","","","","","","","./tasks/HMM-beads/Images/NewTrialWC.png","lowH","1","17","1","1","1","1","true","",""
"image-keyboard-response","188","490868","0.0-3.0-6.0-1.0-1.17","610038371297afd6f2db9323","6662009ae78f21dd82fcd179","66620eb1ec34f31ab08d4bfa","null","","null","","","","","","","","./tasks/HMM-beads/Images/WhiteBeadChoice.png","","","","","","","","","",""
"image-keyboard-response","189","491382","0.0-3.0-6.0-1.0-2.17","610038371297afd6f2db9323","6662009ae78f21dd82fcd179","66620eb1ec34f31ab08d4bfa","null","","null","","","","","","","","./tasks/HMM-beads/Images/WhiteBeadChoiceCorrect.png","","","","","","","","","",""
"image-keyboard-response","190","491722","0.0-3.0-6.0-1.0-0.18","610038371297afd6f2db9323","6662009ae78f21dd82fcd179","66620eb1ec34f31ab08d4bfa","339","","j","","","","","","","","./tasks/HMM-beads/Images/NewTrialWC.png","lowH","1","18","1","1","1","1","true","",""
"image-keyboard-response","191","492038","0.0-3.0-6.0-1.0-1.18","610038371297afd6f2db9323","6662009ae78f21dd82fcd179","66620eb1ec34f31ab08d4bfa","null","","null","","","","","","","","./tasks/HMM-beads/Images/WhiteBeadChoice.png","","","","","","","","","",""
"image-keyboard-response","192","492539","0.0-3.0-6.0-1.0-2.18","610038371297afd6f2db9323","6662009ae78f21dd82fcd179","66620eb1ec34f31ab08d4bfa","null","","null","","","","","","","","./tasks/HMM-beads/Images/WhiteBeadChoiceCorrect.png","","","","","","","","","",""
"image-keyboard-response","193","492953","0.0-3.0-6.0-1.0-0.19","610038371297afd6f2db9323","6662009ae78f21dd82fcd179","66620eb1ec34f31ab08d4bfa","413","","j","","","","","","","","./tasks/HMM-beads/Images/NewTrialWC.png","lowH","1","19","1","1","1","1","true","",""
"image-keyboard-response","194","493255","0.0-3.0-6.0-1.0-1.19","610038371297afd6f2db9323","6662009ae78f21dd82fcd179","66620eb1ec34f31ab08d4bfa","null","","null","","","","","","","","./tasks/HMM-beads/Images/WhiteBeadChoice.png","","","","","","","","","",""
"image-keyboard-response","195","493770","0.0-3.0-6.0-1.0-2.19","610038371297afd6f2db9323","6662009ae78f21dd82fcd179","66620eb1ec34f31ab08d4bfa","null","","null","","","","","","","","./tasks/HMM-beads/Images/WhiteBeadChoiceCorrect.png","","","","","","","","","",""
"image-keyboard-response","196","494062","0.0-3.0-6.0-1.0-0.20","610038371297afd6f2db9323","6662009ae78f21dd82fcd179","66620eb1ec34f31ab08d4bfa","292","","f","","","","","","","","./tasks/HMM-beads/Images/NewTrialWC.png","lowH","1","20","1","1","1","0","false","",""
"image-keyboard-response","197","494364","0.0-3.0-6.0-1.0-1.20","610038371297afd6f2db9323","6662009ae78f21dd82fcd179","66620eb1ec34f31ab08d4bfa","null","","null","","","","","","","","./tasks/HMM-beads/Images/BlackBeadChoice.png","","","","","","","","","",""
"image-keyboard-response","198","494877","0.0-3.0-6.0-1.0-2.20","610038371297afd6f2db9323","6662009ae78f21dd82fcd179","66620eb1ec34f31ab08d4bfa","null","","null","","","","","","","","./tasks/HMM-beads/Images/BlackBeadChoiceWrong.png","","","","","","","","","",""
"image-keyboard-response","199","495261","0.0-3.0-6.0-1.0-0.21","610038371297afd6f2db9323","6662009ae78f21dd82fcd179","66620eb1ec34f31ab08d4bfa","384","","j","","","","","","","","./tasks/HMM-beads/Images/NewTrialWC.png","lowH","1","21","1","1","1","1","true","",""
"image-keyboard-response","200","495578","0.0-3.0-6.0-1.0-1.21","610038371297afd6f2db9323","6662009ae78f21dd82fcd179","66620eb1ec34f31ab08d4bfa","null","","null","","","","","","","","./tasks/HMM-beads/Images/WhiteBeadChoice.png","","","","","","","","","",""
"image-keyboard-response","201","496093","0.0-3.0-6.0-1.0-2.21","610038371297afd6f2db9323","6662009ae78f21dd82fcd179","66620eb1ec34f31ab08d4bfa","null","","null","","","","","","","","./tasks/HMM-beads/Images/WhiteBeadChoiceCorrect.png","","","","","","","","","",""
"image-keyboard-response","202","496510","0.0-3.0-6.0-1.0-0.22","610038371297afd6f2db9323","6662009ae78f21dd82fcd179","66620eb1ec34f31ab08d4bfa","416","","j","","","","","","","","./tasks/HMM-beads/Images/NewTrialWC.png","lowH","1","22","1","1","1","1","true","",""
"image-keyboard-response","203","496811","0.0-3.0-6.0-1.0-1.22","610038371297afd6f2db9323","6662009ae78f21dd82fcd179","66620eb1ec34f31ab08d4bfa","null","","null","","","","","","","","./tasks/HMM-beads/Images/WhiteBeadChoice.png","","","","","","","","","",""
"image-keyboard-response","204","497327","0.0-3.0-6.0-1.0-2.22","610038371297afd6f2db9323","6662009ae78f21dd82fcd179","66620eb1ec34f31ab08d4bfa","null","","null","","","","","","","","./tasks/HMM-beads/Images/WhiteBeadChoiceCorrect.png","","","","","","","","","",""
"image-keyboard-response","205","497674","0.0-3.0-6.0-1.0-0.23","610038371297afd6f2db9323","6662009ae78f21dd82fcd179","66620eb1ec34f31ab08d4bfa","347","","f","","","","","","","","./tasks/HMM-beads/Images/NewTrialWC.png","lowH","1","23","1","1","1","0","false","",""
"image-keyboard-response","206","497985","0.0-3.0-6.0-1.0-1.23","610038371297afd6f2db9323","6662009ae78f21dd82fcd179","66620eb1ec34f31ab08d4bfa","null","","null","","","","","","","","./tasks/HMM-beads/Images/BlackBeadChoice.png","","","","","","","","","",""
"image-keyboard-response","207","498489","0.0-3.0-6.0-1.0-2.23","610038371297afd6f2db9323","6662009ae78f21dd82fcd179","66620eb1ec34f31ab08d4bfa","null","","null","","","","","","","","./tasks/HMM-beads/Images/BlackBeadChoiceWrong.png","","","","","","","","","",""
"image-keyboard-response","208","498824","0.0-3.0-6.0-1.0-0.24","610038371297afd6f2db9323","6662009ae78f21dd82fcd179","66620eb1ec34f31ab08d4bfa","335","","j","","","","","","","","./tasks/HMM-beads/Images/NewTrialWC.png","lowH","1","24","1","0","1","1","false","",""
"image-keyboard-response","209","499129","0.0-3.0-6.0-1.0-1.24","610038371297afd6f2db9323","6662009ae78f21dd82fcd179","66620eb1ec34f31ab08d4bfa","null","","null","","","","","","","","./tasks/HMM-beads/Images/WhiteBeadChoice.png","","","","","","","","","",""
"image-keyboard-response","210","499632","0.0-3.0-6.0-1.0-2.24","610038371297afd6f2db9323","6662009ae78f21dd82fcd179","66620eb1ec34f31ab08d4bfa","null","","null","","","","","","","","./tasks/HMM-beads/Images/WhiteBeadChoiceWrong.png","","","","","","","","","",""
"image-keyboard-response","211","500000","0.0-3.0-6.0-1.0-0.25","610038371297afd6f2db9323","6662009ae78f21dd82fcd179","66620eb1ec34f31ab08d4bfa","368","","j","","","","","","","","./tasks/HMM-beads/Images/NewTrialBC.png","lowH","1","25","1","1","0","1","true","",""
"image-keyboard-response","212","500305","0.0-3.0-6.0-1.0-1.25","610038371297afd6f2db9323","6662009ae78f21dd82fcd179","66620eb1ec34f31ab08d4bfa","null","","null","","","","","","","","./tasks/HMM-beads/Images/WhiteBeadChoice.png","","","","","","","","","",""
"image-keyboard-response","213","500809","0.0-3.0-6.0-1.0-2.25","610038371297afd6f2db9323","6662009ae78f21dd82fcd179","66620eb1ec34f31ab08d4bfa","null","","null","","","","","","","","./tasks/HMM-beads/Images/WhiteBeadChoiceCorrect.png","","","","","","","","","",""
"image-keyboard-response","214","501178","0.0-3.0-6.0-1.0-0.26","610038371297afd6f2db9323","6662009ae78f21dd82fcd179","66620eb1ec34f31ab08d4bfa","368","","j","","","","","","","","./tasks/HMM-beads/Images/NewTrialWC.png","lowH","1","26","1","0","1","1","false","",""
"image-keyboard-response","215","501480","0.0-3.0-6.0-1.0-1.26","610038371297afd6f2db9323","6662009ae78f21dd82fcd179","66620eb1ec34f31ab08d4bfa","null","","null","","","","","","","","./tasks/HMM-beads/Images/WhiteBeadChoice.png","","","","","","","","","",""
"image-keyboard-response","216","501982","0.0-3.0-6.0-1.0-2.26","610038371297afd6f2db9323","6662009ae78f21dd82fcd179","66620eb1ec34f31ab08d4bfa","null","","null","","","","","","","","./tasks/HMM-beads/Images/WhiteBeadChoiceWrong.png","","","","","","","","","",""
"image-keyboard-response","217","502314","0.0-3.0-6.0-1.0-0.27","610038371297afd6f2db9323","6662009ae78f21dd82fcd179","66620eb1ec34f31ab08d4bfa","331","","j","","","","","","","","./tasks/HMM-beads/Images/NewTrialBC.png","lowH","1","27","1","1","0","1","true","",""
"image-keyboard-response","218","502621","0.0-3.0-6.0-1.0-1.27","610038371297afd6f2db9323","6662009ae78f21dd82fcd179","66620eb1ec34f31ab08d4bfa","null","","null","","","","","","","","./tasks/HMM-beads/Images/WhiteBeadChoice.png","","","","","","","","","",""
"image-keyboard-response","219","503135","0.0-3.0-6.0-1.0-2.27","610038371297afd6f2db9323","6662009ae78f21dd82fcd179","66620eb1ec34f31ab08d4bfa","null","","null","","","","","","","","./tasks/HMM-beads/Images/WhiteBeadChoiceCorrect.png","","","","","","","","","",""
"image-keyboard-response","220","503489","0.0-3.0-6.0-1.0-0.28","610038371297afd6f2db9323","6662009ae78f21dd82fcd179","66620eb1ec34f31ab08d4bfa","354","","f","","","","","","","","./tasks/HMM-beads/Images/NewTrialWC.png","lowH","1","28","1","1","1","0","false","",""
"image-keyboard-response","221","503795","0.0-3.0-6.0-1.0-1.28","610038371297afd6f2db9323","6662009ae78f21dd82fcd179","66620eb1ec34f31ab08d4bfa","null","","null","","","","","","","","./tasks/HMM-beads/Images/BlackBeadChoice.png","","","","","","","","","",""
"image-keyboard-response","222","504309","0.0-3.0-6.0-1.0-2.28","610038371297afd6f2db9323","6662009ae78f21dd82fcd179","66620eb1ec34f31ab08d4bfa","null","","null","","","","","","","","./tasks/HMM-beads/Images/BlackBeadChoiceWrong.png","","","","","","","","","",""
"image-keyboard-response","223","504608","0.0-3.0-6.0-1.0-0.29","610038371297afd6f2db9323","6662009ae78f21dd82fcd179","66620eb1ec34f31ab08d4bfa","298","","j","","","","","","","","./tasks/HMM-beads/Images/NewTrialWC.png","lowH","1","29","1","1","1","1","true","",""
"image-keyboard-response","224","504922","0.0-3.0-6.0-1.0-1.29","610038371297afd6f2db9323","6662009ae78f21dd82fcd179","66620eb1ec34f31ab08d4bfa","null","","null","","","","","","","","./tasks/HMM-beads/Images/WhiteBeadChoice.png","","","","","","","","","",""
"image-keyboard-response","225","505436","0.0-3.0-6.0-1.0-2.29","610038371297afd6f2db9323","6662009ae78f21dd82fcd179","66620eb1ec34f31ab08d4bfa","null","","null","","","","","","","","./tasks/HMM-beads/Images/WhiteBeadChoiceCorrect.png","","","","","","","","","",""
"image-keyboard-response","226","505795","0.0-3.0-6.0-1.0-0.30","610038371297afd6f2db9323","6662009ae78f21dd82fcd179","66620eb1ec34f31ab08d4bfa","358","","j","","","","","","","","./tasks/HMM-beads/Images/NewTrialWC.png","lowH","1","30","1","1","1","1","true","",""
"image-keyboard-response","227","506098","0.0-3.0-6.0-1.0-1.30","610038371297afd6f2db9323","6662009ae78f21dd82fcd179","66620eb1ec34f31ab08d4bfa","null","","null","","","","","","","","./tasks/HMM-beads/Images/WhiteBeadChoice.png","","","","","","","","","",""
"image-keyboard-response","228","506603","0.0-3.0-6.0-1.0-2.30","610038371297afd6f2db9323","6662009ae78f21dd82fcd179","66620eb1ec34f31ab08d4bfa","null","","null","","","","","","","","./tasks/HMM-beads/Images/WhiteBeadChoiceCorrect.png","","","","","","","","","",""
"image-keyboard-response","229","506886","0.0-3.0-6.0-1.0-0.31","610038371297afd6f2db9323","6662009ae78f21dd82fcd179","66620eb1ec34f31ab08d4bfa","282","","f","","","","","","","","./tasks/HMM-beads/Images/NewTrialWC.png","lowH","1","31","1","1","1","0","false","",""
"image-keyboard-response","230","507199","0.0-3.0-6.0-1.0-1.31","610038371297afd6f2db9323","6662009ae78f21dd82fcd179","66620eb1ec34f31ab08d4bfa","null","","null","","","","","","","","./tasks/HMM-beads/Images/BlackBeadChoice.png","","","","","","","","","",""
"image-keyboard-response","231","507714","0.0-3.0-6.0-1.0-2.31","610038371297afd6f2db9323","6662009ae78f21dd82fcd179","66620eb1ec34f31ab08d4bfa","null","","null","","","","","","","","./tasks/HMM-beads/Images/BlackBeadChoiceWrong.png","","","","","","","","","",""
"image-keyboard-response","232","507948","0.0-3.0-6.0-1.0-0.32","610038371297afd6f2db9323","6662009ae78f21dd82fcd179","66620eb1ec34f31ab08d4bfa","233","","j","","","","","","","","./tasks/HMM-beads/Images/NewTrialWC.png","lowH","1","32","1","1","1","1","true","",""
"image-keyboard-response","233","508260","0.0-3.0-6.0-1.0-1.32","610038371297afd6f2db9323","6662009ae78f21dd82fcd179","66620eb1ec34f31ab08d4bfa","null","","null","","","","","","","","./tasks/HMM-beads/Images/WhiteBeadChoice.png","","","","","","","","","",""
"image-keyboard-response","234","508762","0.0-3.0-6.0-1.0-2.32","610038371297afd6f2db9323","6662009ae78f21dd82fcd179","66620eb1ec34f31ab08d4bfa","null","","null","","","","","","","","./tasks/HMM-beads/Images/WhiteBeadChoiceCorrect.png","","","","","","","","","",""
"image-keyboard-response","235","509105","0.0-3.0-6.0-1.0-0.33","610038371297afd6f2db9323","6662009ae78f21dd82fcd179","66620eb1ec34f31ab08d4bfa","343","","j","","","","","","","","./tasks/HMM-beads/Images/NewTrialWC.png","lowH","1","33","1","1","1","1","true","",""
"image-keyboard-response","236","509407","0.0-3.0-6.0-1.0-1.33","610038371297afd6f2db9323","6662009ae78f21dd82fcd179","66620eb1ec34f31ab08d4bfa","null","","null","","","","","","","","./tasks/HMM-beads/Images/WhiteBeadChoice.png","","","","","","","","","",""
"image-keyboard-response","237","509909","0.0-3.0-6.0-1.0-2.33","610038371297afd6f2db9323","6662009ae78f21dd82fcd179","66620eb1ec34f31ab08d4bfa","null","","null","","","","","","","","./tasks/HMM-beads/Images/WhiteBeadChoiceCorrect.png","","","","","","","","","",""
"image-keyboard-response","238","510330","0.0-3.0-6.0-1.0-0.34","610038371297afd6f2db9323","6662009ae78f21dd82fcd179","66620eb1ec34f31ab08d4bfa","420","","j","","","","","","","","./tasks/HMM-beads/Images/NewTrialWC.png","lowH","1","34","1","1","1","1","true","",""
"image-keyboard-response","239","510643","0.0-3.0-6.0-1.0-1.34","610038371297afd6f2db9323","6662009ae78f21dd82fcd179","66620eb1ec34f31ab08d4bfa","null","","null","","","","","","","","./tasks/HMM-beads/Images/WhiteBeadChoice.png","","","","","","","","","",""
"image-keyboard-response","240","511156","0.0-3.0-6.0-1.0-2.34","610038371297afd6f2db9323","6662009ae78f21dd82fcd179","66620eb1ec34f31ab08d4bfa","null","","null","","","","","","","","./tasks/HMM-beads/Images/WhiteBeadChoiceCorrect.png","","","","","","","","","",""
"image-keyboard-response","241","511630","0.0-3.0-6.0-1.0-0.35","610038371297afd6f2db9323","6662009ae78f21dd82fcd179","66620eb1ec34f31ab08d4bfa","474","","f","","","","","","","","./tasks/HMM-beads/Images/NewTrialWC.png","lowH","1","35","1","1","1","0","false","",""
"image-keyboard-response","242","511940","0.0-3.0-6.0-1.0-1.35","610038371297afd6f2db9323","6662009ae78f21dd82fcd179","66620eb1ec34f31ab08d4bfa","null","","null","","","","","","","","./tasks/HMM-beads/Images/BlackBeadChoice.png","","","","","","","","","",""
"image-keyboard-response","243","512447","0.0-3.0-6.0-1.0-2.35","610038371297afd6f2db9323","6662009ae78f21dd82fcd179","66620eb1ec34f31ab08d4bfa","null","","null","","","","","","","","./tasks/HMM-beads/Images/BlackBeadChoiceWrong.png","","","","","","","","","",""
"image-keyboard-response","244","512739","0.0-3.0-6.0-1.0-0.36","610038371297afd6f2db9323","6662009ae78f21dd82fcd179","66620eb1ec34f31ab08d4bfa","292","","j","","","","","","","","./tasks/HMM-beads/Images/NewTrialWC.png","lowH","1","36","1","1","1","1","true","",""
"image-keyboard-response","245","513051","0.0-3.0-6.0-1.0-1.36","610038371297afd6f2db9323","6662009ae78f21dd82fcd179","66620eb1ec34f31ab08d4bfa","null","","null","","","","","","","","./tasks/HMM-beads/Images/WhiteBeadChoice.png","","","","","","","","","",""
"image-keyboard-response","246","513553","0.0-3.0-6.0-1.0-2.36","610038371297afd6f2db9323","6662009ae78f21dd82fcd179","66620eb1ec34f31ab08d4bfa","null","","null","","","","","","","","./tasks/HMM-beads/Images/WhiteBeadChoiceCorrect.png","","","","","","","","","",""
"image-keyboard-response","247","514022","0.0-3.0-6.0-1.0-0.37","610038371297afd6f2db9323","6662009ae78f21dd82fcd179","66620eb1ec34f31ab08d4bfa","469","","f","","","","","","","","./tasks/HMM-beads/Images/NewTrialWC.png","lowH","1","37","1","1","1","0","false","",""
"image-keyboard-response","248","514334","0.0-3.0-6.0-1.0-1.37","610038371297afd6f2db9323","6662009ae78f21dd82fcd179","66620eb1ec34f31ab08d4bfa","null","","null","","","","","","","","./tasks/HMM-beads/Images/BlackBeadChoice.png","","","","","","","","","",""
"image-keyboard-response","249","514837","0.0-3.0-6.0-1.0-2.37","610038371297afd6f2db9323","6662009ae78f21dd82fcd179","66620eb1ec34f31ab08d4bfa","null","","null","","","","","","","","./tasks/HMM-beads/Images/BlackBeadChoiceWrong.png","","","","","","","","","",""
"image-keyboard-response","250","515103","0.0-3.0-6.0-1.0-0.38","610038371297afd6f2db9323","6662009ae78f21dd82fcd179","66620eb1ec34f31ab08d4bfa","265","","j","","","","","","","","./tasks/HMM-beads/Images/NewTrialWC.png","lowH","1","38","1","1","1","1","true","",""
"image-keyboard-response","251","515412","0.0-3.0-6.0-1.0-1.38","610038371297afd6f2db9323","6662009ae78f21dd82fcd179","66620eb1ec34f31ab08d4bfa","null","","null","","","","","","","","./tasks/HMM-beads/Images/WhiteBeadChoice.png","","","","","","","","","",""
"image-keyboard-response","252","515917","0.0-3.0-6.0-1.0-2.38","610038371297afd6f2db9323","6662009ae78f21dd82fcd179","66620eb1ec34f31ab08d4bfa","null","","null","","","","","","","","./tasks/HMM-beads/Images/WhiteBeadChoiceCorrect.png","","","","","","","","","",""
"image-keyboard-response","253","516296","0.0-3.0-6.0-1.0-0.39","610038371297afd6f2db9323","6662009ae78f21dd82fcd179","66620eb1ec34f31ab08d4bfa","378","","j","","","","","","","","./tasks/HMM-beads/Images/NewTrialWC.png","lowH","1","39","1","1","1","1","true","",""
"image-keyboard-response","254","516605","0.0-3.0-6.0-1.0-1.39","610038371297afd6f2db9323","6662009ae78f21dd82fcd179","66620eb1ec34f31ab08d4bfa","null","","null","","","","","","","","./tasks/HMM-beads/Images/WhiteBeadChoice.png","","","","","","","","","",""
"image-keyboard-response","255","517121","0.0-3.0-6.0-1.0-2.39","610038371297afd6f2db9323","6662009ae78f21dd82fcd179","66620eb1ec34f31ab08d4bfa","null","","null","","","","","","","","./tasks/HMM-beads/Images/WhiteBeadChoiceCorrect.png","","","","","","","","","",""
"image-keyboard-response","256","517463","0.0-3.0-6.0-1.0-0.40","610038371297afd6f2db9323","6662009ae78f21dd82fcd179","66620eb1ec34f31ab08d4bfa","341","","j","","","","","","","","./tasks/HMM-beads/Images/NewTrialWC.png","lowH","1","40","1","1","1","1","true","",""
"image-keyboard-response","257","517766","0.0-3.0-6.0-1.0-1.40","610038371297afd6f2db9323","6662009ae78f21dd82fcd179","66620eb1ec34f31ab08d4bfa","null","","null","","","","","","","","./tasks/HMM-beads/Images/WhiteBeadChoice.png","","","","","","","","","",""
"image-keyboard-response","258","518268","0.0-3.0-6.0-1.0-2.40","610038371297afd6f2db9323","6662009ae78f21dd82fcd179","66620eb1ec34f31ab08d4bfa","null","","null","","","","","","","","./tasks/HMM-beads/Images/WhiteBeadChoiceCorrect.png","","","","","","","","","",""
"image-keyboard-response","259","518579","0.0-3.0-6.0-1.0-0.41","610038371297afd6f2db9323","6662009ae78f21dd82fcd179","66620eb1ec34f31ab08d4bfa","310","","j","","","","","","","","./tasks/HMM-beads/Images/NewTrialWC.png","lowH","1","41","1","1","1","1","true","",""
"image-keyboard-response","260","518880","0.0-3.0-6.0-1.0-1.41","610038371297afd6f2db9323","6662009ae78f21dd82fcd179","66620eb1ec34f31ab08d4bfa","null","","null","","","","","","","","./tasks/HMM-beads/Images/WhiteBeadChoice.png","","","","","","","","","",""
"image-keyboard-response","261","519381","0.0-3.0-6.0-1.0-2.41","610038371297afd6f2db9323","6662009ae78f21dd82fcd179","66620eb1ec34f31ab08d4bfa","null","","null","","","","","","","","./tasks/HMM-beads/Images/WhiteBeadChoiceCorrect.png","","","","","","","","","",""
"image-keyboard-response","262","519709","0.0-3.0-6.0-1.0-0.42","610038371297afd6f2db9323","6662009ae78f21dd82fcd179","66620eb1ec34f31ab08d4bfa","327","","j","","","","","","","","./tasks/HMM-beads/Images/NewTrialWC.png","lowH","1","42","1","1","1","1","true","",""
"image-keyboard-response","263","520011","0.0-3.0-6.0-1.0-1.42","610038371297afd6f2db9323","6662009ae78f21dd82fcd179","66620eb1ec34f31ab08d4bfa","null","","null","","","","","","","","./tasks/HMM-beads/Images/WhiteBeadChoice.png","","","","","","","","","",""
"image-keyboard-response","264","520524","0.0-3.0-6.0-1.0-2.42","610038371297afd6f2db9323","6662009ae78f21dd82fcd179","66620eb1ec34f31ab08d4bfa","null","","null","","","","","","","","./tasks/HMM-beads/Images/WhiteBeadChoiceCorrect.png","","","","","","","","","",""
"image-keyboard-response","265","520845","0.0-3.0-6.0-1.0-0.43","610038371297afd6f2db9323","6662009ae78f21dd82fcd179","66620eb1ec34f31ab08d4bfa","320","","j","","","","","","","","./tasks/HMM-beads/Images/NewTrialWC.png","lowH","1","43","1","1","1","1","true","",""
"image-keyboard-response","266","521147","0.0-3.0-6.0-1.0-1.43","610038371297afd6f2db9323","6662009ae78f21dd82fcd179","66620eb1ec34f31ab08d4bfa","null","","null","","","","","","","","./tasks/HMM-beads/Images/WhiteBeadChoice.png","","","","","","","","","",""
"image-keyboard-response","267","521660","0.0-3.0-6.0-1.0-2.43","610038371297afd6f2db9323","6662009ae78f21dd82fcd179","66620eb1ec34f31ab08d4bfa","null","","null","","","","","","","","./tasks/HMM-beads/Images/WhiteBeadChoiceCorrect.png","","","","","","","","","",""
"image-keyboard-response","268","522007","0.0-3.0-6.0-1.0-0.44","610038371297afd6f2db9323","6662009ae78f21dd82fcd179","66620eb1ec34f31ab08d4bfa","346","","j","","","","","","","","./tasks/HMM-beads/Images/NewTrialWC.png","lowH","1","44","1","1","1","1","true","",""
"image-keyboard-response","269","522321","0.0-3.0-6.0-1.0-1.44","610038371297afd6f2db9323","6662009ae78f21dd82fcd179","66620eb1ec34f31ab08d4bfa","null","","null","","","","","","","","./tasks/HMM-beads/Images/WhiteBeadChoice.png","","","","","","","","","",""
"image-keyboard-response","270","522833","0.0-3.0-6.0-1.0-2.44","610038371297afd6f2db9323","6662009ae78f21dd82fcd179","66620eb1ec34f31ab08d4bfa","null","","null","","","","","","","","./tasks/HMM-beads/Images/WhiteBeadChoiceCorrect.png","","","","","","","","","",""
"image-keyboard-response","271","523172","0.0-3.0-6.0-1.0-0.45","610038371297afd6f2db9323","6662009ae78f21dd82fcd179","66620eb1ec34f31ab08d4bfa","338","","j","","","","","","","","./tasks/HMM-beads/Images/NewTrialWC.png","lowH","1","45","1","1","1","1","true","",""
"image-keyboard-response","272","523473","0.0-3.0-6.0-1.0-1.45","610038371297afd6f2db9323","6662009ae78f21dd82fcd179","66620eb1ec34f31ab08d4bfa","null","","null","","","","","","","","./tasks/HMM-beads/Images/WhiteBeadChoice.png","","","","","","","","","",""
"image-keyboard-response","273","523987","0.0-3.0-6.0-1.0-2.45","610038371297afd6f2db9323","6662009ae78f21dd82fcd179","66620eb1ec34f31ab08d4bfa","null","","null","","","","","","","","./tasks/HMM-beads/Images/WhiteBeadChoiceCorrect.png","","","","","","","","","",""
"image-keyboard-response","274","524284","0.0-3.0-6.0-1.0-0.46","610038371297afd6f2db9323","6662009ae78f21dd82fcd179","66620eb1ec34f31ab08d4bfa","296","","j","","","","","","","","./tasks/HMM-beads/Images/NewTrialWC.png","lowH","1","46","1","1","1","1","true","",""
"image-keyboard-response","275","524585","0.0-3.0-6.0-1.0-1.46","610038371297afd6f2db9323","6662009ae78f21dd82fcd179","66620eb1ec34f31ab08d4bfa","null","","null","","","","","","","","./tasks/HMM-beads/Images/WhiteBeadChoice.png","","","","","","","","","",""
"image-keyboard-response","276","525088","0.0-3.0-6.0-1.0-2.46","610038371297afd6f2db9323","6662009ae78f21dd82fcd179","66620eb1ec34f31ab08d4bfa","null","","null","","","","","","","","./tasks/HMM-beads/Images/WhiteBeadChoiceCorrect.png","","","","","","","","","",""
"image-keyboard-response","277","525519","0.0-3.0-6.0-1.0-0.47","610038371297afd6f2db9323","6662009ae78f21dd82fcd179","66620eb1ec34f31ab08d4bfa","430","","j","","","","","","","","./tasks/HMM-beads/Images/NewTrialWC.png","lowH","1","47","1","0","1","1","false","",""
"image-keyboard-response","278","525823","0.0-3.0-6.0-1.0-1.47","610038371297afd6f2db9323","6662009ae78f21dd82fcd179","66620eb1ec34f31ab08d4bfa","null","","null","","","","","","","","./tasks/HMM-beads/Images/WhiteBeadChoice.png","","","","","","","","","",""
"image-keyboard-response","279","526339","0.0-3.0-6.0-1.0-2.47","610038371297afd6f2db9323","6662009ae78f21dd82fcd179","66620eb1ec34f31ab08d4bfa","null","","null","","","","","","","","./tasks/HMM-beads/Images/WhiteBeadChoiceWrong.png","","","","","","","","","",""
"image-keyboard-response","280","526759","0.0-3.0-6.0-1.0-0.48","610038371297afd6f2db9323","6662009ae78f21dd82fcd179","66620eb1ec34f31ab08d4bfa","419","","j","","","","","","","","./tasks/HMM-beads/Images/NewTrialBC.png","lowH","1","48","1","0","0","1","false","",""
"image-keyboard-response","281","527061","0.0-3.0-6.0-1.0-1.48","610038371297afd6f2db9323","6662009ae78f21dd82fcd179","66620eb1ec34f31ab08d4bfa","null","","null","","","","","","","","./tasks/HMM-beads/Images/WhiteBeadChoice.png","","","","","","","","","",""
"image-keyboard-response","282","527577","0.0-3.0-6.0-1.0-2.48","610038371297afd6f2db9323","6662009ae78f21dd82fcd179","66620eb1ec34f31ab08d4bfa","null","","null","","","","","","","","./tasks/HMM-beads/Images/WhiteBeadChoiceWrong.png","","","","","","","","","",""
"image-keyboard-response","283","527951","0.0-3.0-6.0-1.0-0.49","610038371297afd6f2db9323","6662009ae78f21dd82fcd179","66620eb1ec34f31ab08d4bfa","373","","f","","","","","","","","./tasks/HMM-beads/Images/NewTrialBC.png","lowH","1","49","1","0","0","0","true","",""
"image-keyboard-response","284","528262","0.0-3.0-6.0-1.0-1.49","610038371297afd6f2db9323","6662009ae78f21dd82fcd179","66620eb1ec34f31ab08d4bfa","null","","null","","","","","","","","./tasks/HMM-beads/Images/BlackBeadChoice.png","","","","","","","","","",""
"image-keyboard-response","285","528775","0.0-3.0-6.0-1.0-2.49","610038371297afd6f2db9323","6662009ae78f21dd82fcd179","66620eb1ec34f31ab08d4bfa","null","","null","","","","","","","","./tasks/HMM-beads/Images/BlackBeadChoiceCorrect.png","","","","","","","","","",""
"image-keyboard-response","286","529418","0.0-3.0-6.0-1.0-0.50","610038371297afd6f2db9323","6662009ae78f21dd82fcd179","66620eb1ec34f31ab08d4bfa","642","","f","","","","","","","","./tasks/HMM-beads/Images/NewTrialBC.png","lowH","1","50","1","1","0","0","false","",""
"image-keyboard-response","287","529727","0.0-3.0-6.0-1.0-1.50","610038371297afd6f2db9323","6662009ae78f21dd82fcd179","66620eb1ec34f31ab08d4bfa","null","","null","","","","","","","","./tasks/HMM-beads/Images/BlackBeadChoice.png","","","","","","","","","",""
"image-keyboard-response","288","530230","0.0-3.0-6.0-1.0-2.50","610038371297afd6f2db9323","6662009ae78f21dd82fcd179","66620eb1ec34f31ab08d4bfa","null","","null","","","","","","","","./tasks/HMM-beads/Images/BlackBeadChoiceWrong.png","","","","","","","","","",""
"image-keyboard-response","289","530737","0.0-3.0-6.0-1.0-0.51","610038371297afd6f2db9323","6662009ae78f21dd82fcd179","66620eb1ec34f31ab08d4bfa","506","","j","","","","","","","","./tasks/HMM-beads/Images/NewTrialWC.png","lowH","1","51","1","1","1","1","true","",""
"image-keyboard-response","290","531042","0.0-3.0-6.0-1.0-1.51","610038371297afd6f2db9323","6662009ae78f21dd82fcd179","66620eb1ec34f31ab08d4bfa","null","","null","","","","","","","","./tasks/HMM-beads/Images/WhiteBeadChoice.png","","","","","","","","","",""
"image-keyboard-response","291","531558","0.0-3.0-6.0-1.0-2.51","610038371297afd6f2db9323","6662009ae78f21dd82fcd179","66620eb1ec34f31ab08d4bfa","null","","null","","","","","","","","./tasks/HMM-beads/Images/WhiteBeadChoiceCorrect.png","","","","","","","","","",""
"image-keyboard-response","292","531986","0.0-3.0-6.0-1.0-0.52","610038371297afd6f2db9323","6662009ae78f21dd82fcd179","66620eb1ec34f31ab08d4bfa","427","","j","","","","","","","","./tasks/HMM-beads/Images/NewTrialWC.png","lowH","1","52","1","1","1","1","true","",""
"image-keyboard-response","293","532293","0.0-3.0-6.0-1.0-1.52","610038371297afd6f2db9323","6662009ae78f21dd82fcd179","66620eb1ec34f31ab08d4bfa","null","","null","","","","","","","","./tasks/HMM-beads/Images/WhiteBeadChoice.png","","","","","","","","","",""
"image-keyboard-response","294","532795","0.0-3.0-6.0-1.0-2.52","610038371297afd6f2db9323","6662009ae78f21dd82fcd179","66620eb1ec34f31ab08d4bfa","null","","null","","","","","","","","./tasks/HMM-beads/Images/WhiteBeadChoiceCorrect.png","","","","","","","","","",""
"image-keyboard-response","295","533128","0.0-3.0-6.0-1.0-0.53","610038371297afd6f2db9323","6662009ae78f21dd82fcd179","66620eb1ec34f31ab08d4bfa","332","","j","","","","","","","","./tasks/HMM-beads/Images/NewTrialWC.png","lowH","1","53","1","1","1","1","true","",""
"image-keyboard-response","296","533433","0.0-3.0-6.0-1.0-1.53","610038371297afd6f2db9323","6662009ae78f21dd82fcd179","66620eb1ec34f31ab08d4bfa","null","","null","","","","","","","","./tasks/HMM-beads/Images/WhiteBeadChoice.png","","","","","","","","","",""
"image-keyboard-response","297","533934","0.0-3.0-6.0-1.0-2.53","610038371297afd6f2db9323","6662009ae78f21dd82fcd179","66620eb1ec34f31ab08d4bfa","null","","null","","","","","","","","./tasks/HMM-beads/Images/WhiteBeadChoiceCorrect.png","","","","","","","","","",""
"image-keyboard-response","298","534218","0.0-3.0-6.0-1.0-0.54","610038371297afd6f2db9323","6662009ae78f21dd82fcd179","66620eb1ec34f31ab08d4bfa","283","","j","","","","","","","","./tasks/HMM-beads/Images/NewTrialWC.png","lowH","1","54","1","1","1","1","true","",""
"image-keyboard-response","299","534531","0.0-3.0-6.0-1.0-1.54","610038371297afd6f2db9323","6662009ae78f21dd82fcd179","66620eb1ec34f31ab08d4bfa","null","","null","","","","","","","","./tasks/HMM-beads/Images/WhiteBeadChoice.png","","","","","","","","","",""
"image-keyboard-response","300","535037","0.0-3.0-6.0-1.0-2.54","610038371297afd6f2db9323","6662009ae78f21dd82fcd179","66620eb1ec34f31ab08d4bfa","null","","null","","","","","","","","./tasks/HMM-beads/Images/WhiteBeadChoiceCorrect.png","","","","","","","","","",""
"image-keyboard-response","301","535303","0.0-3.0-6.0-1.0-0.55","610038371297afd6f2db9323","6662009ae78f21dd82fcd179","66620eb1ec34f31ab08d4bfa","265","","j","","","","","","","","./tasks/HMM-beads/Images/NewTrialWC.png","lowH","1","55","1","1","1","1","true","",""
"image-keyboard-response","302","535604","0.0-3.0-6.0-1.0-1.55","610038371297afd6f2db9323","6662009ae78f21dd82fcd179","66620eb1ec34f31ab08d4bfa","null","","null","","","","","","","","./tasks/HMM-beads/Images/WhiteBeadChoice.png","","","","","","","","","",""
"image-keyboard-response","303","536120","0.0-3.0-6.0-1.0-2.55","610038371297afd6f2db9323","6662009ae78f21dd82fcd179","66620eb1ec34f31ab08d4bfa","null","","null","","","","","","","","./tasks/HMM-beads/Images/WhiteBeadChoiceCorrect.png","","","","","","","","","",""
"image-keyboard-response","304","536421","0.0-3.0-6.0-1.0-0.56","610038371297afd6f2db9323","6662009ae78f21dd82fcd179","66620eb1ec34f31ab08d4bfa","300","","j","","","","","","","","./tasks/HMM-beads/Images/NewTrialWC.png","lowH","1","56","1","1","1","1","true","",""
"image-keyboard-response","305","536730","0.0-3.0-6.0-1.0-1.56","610038371297afd6f2db9323","6662009ae78f21dd82fcd179","66620eb1ec34f31ab08d4bfa","null","","null","","","","","","","","./tasks/HMM-beads/Images/WhiteBeadChoice.png","","","","","","","","","",""
"image-keyboard-response","306","537244","0.0-3.0-6.0-1.0-2.56","610038371297afd6f2db9323","6662009ae78f21dd82fcd179","66620eb1ec34f31ab08d4bfa","null","","null","","","","","","","","./tasks/HMM-beads/Images/WhiteBeadChoiceCorrect.png","","","","","","","","","",""
"image-keyboard-response","307","537426","0.0-3.0-6.0-1.0-0.57","610038371297afd6f2db9323","6662009ae78f21dd82fcd179","66620eb1ec34f31ab08d4bfa","181","","j","","","","","","","","./tasks/HMM-beads/Images/NewTrialWC.png","lowH","1","57","1","1","1","1","true","",""
"image-keyboard-response","308","537728","0.0-3.0-6.0-1.0-1.57","610038371297afd6f2db9323","6662009ae78f21dd82fcd179","66620eb1ec34f31ab08d4bfa","null","","null","","","","","","","","./tasks/HMM-beads/Images/WhiteBeadChoice.png","","","","","","","","","",""
"image-keyboard-response","309","538243","0.0-3.0-6.0-1.0-2.57","610038371297afd6f2db9323","6662009ae78f21dd82fcd179","66620eb1ec34f31ab08d4bfa","null","","null","","","","","","","","./tasks/HMM-beads/Images/WhiteBeadChoiceCorrect.png","","","","","","","","","",""
"image-keyboard-response","310","538532","0.0-3.0-6.0-1.0-0.58","610038371297afd6f2db9323","6662009ae78f21dd82fcd179","66620eb1ec34f31ab08d4bfa","288","","j","","","","","","","","./tasks/HMM-beads/Images/NewTrialWC.png","lowH","1","58","1","1","1","1","true","",""
"image-keyboard-response","311","538837","0.0-3.0-6.0-1.0-1.58","610038371297afd6f2db9323","6662009ae78f21dd82fcd179","66620eb1ec34f31ab08d4bfa","null","","null","","","","","","","","./tasks/HMM-beads/Images/WhiteBeadChoice.png","","","","","","","","","",""
"image-keyboard-response","312","539353","0.0-3.0-6.0-1.0-2.58","610038371297afd6f2db9323","6662009ae78f21dd82fcd179","66620eb1ec34f31ab08d4bfa","null","","null","","","","","","","","./tasks/HMM-beads/Images/WhiteBeadChoiceCorrect.png","","","","","","","","","",""
"image-keyboard-response","313","539714","0.0-3.0-6.0-1.0-0.59","610038371297afd6f2db9323","6662009ae78f21dd82fcd179","66620eb1ec34f31ab08d4bfa","361","","j","","","","","","","","./tasks/HMM-beads/Images/NewTrialWC.png","lowH","1","59","1","0","1","1","false","",""
"image-keyboard-response","314","540028","0.0-3.0-6.0-1.0-1.59","610038371297afd6f2db9323","6662009ae78f21dd82fcd179","66620eb1ec34f31ab08d4bfa","null","","null","","","","","","","","./tasks/HMM-beads/Images/WhiteBeadChoice.png","","","","","","","","","",""
"image-keyboard-response","315","540530","0.0-3.0-6.0-1.0-2.59","610038371297afd6f2db9323","6662009ae78f21dd82fcd179","66620eb1ec34f31ab08d4bfa","null","","null","","","","","","","","./tasks/HMM-beads/Images/WhiteBeadChoiceWrong.png","","","","","","","","","",""
"image-keyboard-response","316","540793","0.0-3.0-6.0-1.0-0.60","610038371297afd6f2db9323","6662009ae78f21dd82fcd179","66620eb1ec34f31ab08d4bfa","263","","j","","","","","","","","./tasks/HMM-beads/Images/NewTrialBC.png","lowH","1","60","1","1","0","1","true","",""
"image-keyboard-response","317","541105","0.0-3.0-6.0-1.0-1.60","610038371297afd6f2db9323","6662009ae78f21dd82fcd179","66620eb1ec34f31ab08d4bfa","null","","null","","","","","","","","./tasks/HMM-beads/Images/WhiteBeadChoice.png","","","","","","","","","",""
"image-keyboard-response","318","541607","0.0-3.0-6.0-1.0-2.60","610038371297afd6f2db9323","6662009ae78f21dd82fcd179","66620eb1ec34f31ab08d4bfa","null","","null","","","","","","","","./tasks/HMM-beads/Images/WhiteBeadChoiceCorrect.png","","","","","","","","","",""
"image-keyboard-response","319","541840","0.0-3.0-6.0-1.0-0.61","610038371297afd6f2db9323","6662009ae78f21dd82fcd179","66620eb1ec34f31ab08d4bfa","232","","j","","","","","","","","./tasks/HMM-beads/Images/NewTrialWC.png","lowH","1","61","1","1","1","1","true","",""
"image-keyboard-response","320","542154","0.0-3.0-6.0-1.0-1.61","610038371297afd6f2db9323","6662009ae78f21dd82fcd179","66620eb1ec34f31ab08d4bfa","null","","null","","","","","","","","./tasks/HMM-beads/Images/WhiteBeadChoice.png","","","","","","","","","",""
"image-keyboard-response","321","542671","0.0-3.0-6.0-1.0-2.61","610038371297afd6f2db9323","6662009ae78f21dd82fcd179","66620eb1ec34f31ab08d4bfa","null","","null","","","","","","","","./tasks/HMM-beads/Images/WhiteBeadChoiceCorrect.png","","","","","","","","","",""
"image-keyboard-response","322","542867","0.0-3.0-6.0-1.0-0.62","610038371297afd6f2db9323","6662009ae78f21dd82fcd179","66620eb1ec34f31ab08d4bfa","195","","j","","","","","","","","./tasks/HMM-beads/Images/NewTrialWC.png","lowH","1","62","1","0","1","1","false","",""
"image-keyboard-response","323","543168","0.0-3.0-6.0-1.0-1.62","610038371297afd6f2db9323","6662009ae78f21dd82fcd179","66620eb1ec34f31ab08d4bfa","null","","null","","","","","","","","./tasks/HMM-beads/Images/WhiteBeadChoice.png","","","","","","","","","",""
"image-keyboard-response","324","543683","0.0-3.0-6.0-1.0-2.62","610038371297afd6f2db9323","6662009ae78f21dd82fcd179","66620eb1ec34f31ab08d4bfa","null","","null","","","","","","","","./tasks/HMM-beads/Images/WhiteBeadChoiceWrong.png","","","","","","","","","",""
"image-keyboard-response","325","543862","0.0-3.0-6.0-1.0-0.63","610038371297afd6f2db9323","6662009ae78f21dd82fcd179","66620eb1ec34f31ab08d4bfa","178","","j","","","","","","","","./tasks/HMM-beads/Images/NewTrialBC.png","lowH","1","63","1","1","0","1","true","",""
"image-keyboard-response","326","544169","0.0-3.0-6.0-1.0-1.63","610038371297afd6f2db9323","6662009ae78f21dd82fcd179","66620eb1ec34f31ab08d4bfa","null","","null","","","","","","","","./tasks/HMM-beads/Images/WhiteBeadChoice.png","","","","","","","","","",""
"image-keyboard-response","327","544673","0.0-3.0-6.0-1.0-2.63","610038371297afd6f2db9323","6662009ae78f21dd82fcd179","66620eb1ec34f31ab08d4bfa","null","","null","","","","","","","","./tasks/HMM-beads/Images/WhiteBeadChoiceCorrect.png","","","","","","","","","",""
"image-keyboard-response","328","544943","0.0-3.0-6.0-1.0-0.64","610038371297afd6f2db9323","6662009ae78f21dd82fcd179","66620eb1ec34f31ab08d4bfa","269","","j","","","","","","","","./tasks/HMM-beads/Images/NewTrialWC.png","lowH","1","64","1","1","1","1","true","",""
"image-keyboard-response","329","545255","0.0-3.0-6.0-1.0-1.64","610038371297afd6f2db9323","6662009ae78f21dd82fcd179","66620eb1ec34f31ab08d4bfa","null","","null","","","","","","","","./tasks/HMM-beads/Images/WhiteBeadChoice.png","","","","","","","","","",""
"image-keyboard-response","330","545772","0.0-3.0-6.0-1.0-2.64","610038371297afd6f2db9323","6662009ae78f21dd82fcd179","66620eb1ec34f31ab08d4bfa","null","","null","","","","","","","","./tasks/HMM-beads/Images/WhiteBeadChoiceCorrect.png","","","","","","","","","",""
"image-keyboard-response","331","546060","0.0-3.0-6.0-1.0-0.65","610038371297afd6f2db9323","6662009ae78f21dd82fcd179","66620eb1ec34f31ab08d4bfa","287","","j","","","","","","","","./tasks/HMM-beads/Images/NewTrialWC.png","lowH","1","65","1","1","1","1","true","",""
"image-keyboard-response","332","546367","0.0-3.0-6.0-1.0-1.65","610038371297afd6f2db9323","6662009ae78f21dd82fcd179","66620eb1ec34f31ab08d4bfa","null","","null","","","","","","","","./tasks/HMM-beads/Images/WhiteBeadChoice.png","","","","","","","","","",""
"image-keyboard-response","333","546884","0.0-3.0-6.0-1.0-2.65","610038371297afd6f2db9323","6662009ae78f21dd82fcd179","66620eb1ec34f31ab08d4bfa","null","","null","","","","","","","","./tasks/HMM-beads/Images/WhiteBeadChoiceCorrect.png","","","","","","","","","",""
"image-keyboard-response","334","547186","0.0-3.0-6.0-1.0-0.66","610038371297afd6f2db9323","6662009ae78f21dd82fcd179","66620eb1ec34f31ab08d4bfa","302","","j","","","","","","","","./tasks/HMM-beads/Images/NewTrialWC.png","lowH","1","66","1","1","1","1","true","",""
"image-keyboard-response","335","547493","0.0-3.0-6.0-1.0-1.66","610038371297afd6f2db9323","6662009ae78f21dd82fcd179","66620eb1ec34f31ab08d4bfa","null","","null","","","","","","","","./tasks/HMM-beads/Images/WhiteBeadChoice.png","","","","","","","","","",""
"image-keyboard-response","336","547998","0.0-3.0-6.0-1.0-2.66","610038371297afd6f2db9323","6662009ae78f21dd82fcd179","66620eb1ec34f31ab08d4bfa","null","","null","","","","","","","","./tasks/HMM-beads/Images/WhiteBeadChoiceCorrect.png","","","","","","","","","",""
"image-keyboard-response","337","548072","0.0-3.0-6.0-1.0-0.67","610038371297afd6f2db9323","6662009ae78f21dd82fcd179","66620eb1ec34f31ab08d4bfa","74","","f","","","","","","","","./tasks/HMM-beads/Images/NewTrialWC.png","lowH","1","67","1","0","1","0","true","",""
"image-keyboard-response","338","548387","0.0-3.0-6.0-1.0-1.67","610038371297afd6f2db9323","6662009ae78f21dd82fcd179","66620eb1ec34f31ab08d4bfa","null","","null","","","","","","","","./tasks/HMM-beads/Images/BlackBeadChoice.png","","","","","","","","","",""
"image-keyboard-response","339","548889","0.0-3.0-6.0-1.0-2.67","610038371297afd6f2db9323","6662009ae78f21dd82fcd179","66620eb1ec34f31ab08d4bfa","null","","null","","","","","","","","./tasks/HMM-beads/Images/BlackBeadChoiceCorrect.png","","","","","","","","","",""
"image-keyboard-response","340","549337","0.0-3.0-6.0-1.0-0.68","610038371297afd6f2db9323","6662009ae78f21dd82fcd179","66620eb1ec34f31ab08d4bfa","447","","j","","","","","","","","./tasks/HMM-beads/Images/NewTrialBC.png","lowH","1","68","1","1","0","1","true","",""
"image-keyboard-response","341","549637","0.0-3.0-6.0-1.0-1.68","610038371297afd6f2db9323","6662009ae78f21dd82fcd179","66620eb1ec34f31ab08d4bfa","null","","null","","","","","","","","./tasks/HMM-beads/Images/WhiteBeadChoice.png","","","","","","","","","",""
"image-keyboard-response","342","550152","0.0-3.0-6.0-1.0-2.68","610038371297afd6f2db9323","6662009ae78f21dd82fcd179","66620eb1ec34f31ab08d4bfa","null","","null","","","","","","","","./tasks/HMM-beads/Images/WhiteBeadChoiceCorrect.png","","","","","","","","","",""
"image-keyboard-response","343","550670","0.0-3.0-6.0-1.0-0.69","610038371297afd6f2db9323","6662009ae78f21dd82fcd179","66620eb1ec34f31ab08d4bfa","517","","j","","","","","","","","./tasks/HMM-beads/Images/NewTrialWC.png","lowH","1","69","0","1","1","1","true","",""
"image-keyboard-response","344","550986","0.0-3.0-6.0-1.0-1.69","610038371297afd6f2db9323","6662009ae78f21dd82fcd179","66620eb1ec34f31ab08d4bfa","null","","null","","","","","","","","./tasks/HMM-beads/Images/WhiteBeadChoice.png","","","","","","","","","",""
"image-keyboard-response","345","551489","0.0-3.0-6.0-1.0-2.69","610038371297afd6f2db9323","6662009ae78f21dd82fcd179","66620eb1ec34f31ab08d4bfa","null","","null","","","","","","","","./tasks/HMM-beads/Images/WhiteBeadChoiceCorrect.png","","","","","","","","","",""
"image-keyboard-response","346","551750","0.0-3.0-6.0-1.0-0.70","610038371297afd6f2db9323","6662009ae78f21dd82fcd179","66620eb1ec34f31ab08d4bfa","260","","j","","","","","","","","./tasks/HMM-beads/Images/NewTrialWC.png","lowH","1","70","0","1","1","1","true","",""
"image-keyboard-response","347","552051","0.0-3.0-6.0-1.0-1.70","610038371297afd6f2db9323","6662009ae78f21dd82fcd179","66620eb1ec34f31ab08d4bfa","null","","null","","","","","","","","./tasks/HMM-beads/Images/WhiteBeadChoice.png","","","","","","","","","",""
"image-keyboard-response","348","552567","0.0-3.0-6.0-1.0-2.70","610038371297afd6f2db9323","6662009ae78f21dd82fcd179","66620eb1ec34f31ab08d4bfa","null","","null","","","","","","","","./tasks/HMM-beads/Images/WhiteBeadChoiceCorrect.png","","","","","","","","","",""
"image-keyboard-response","349","552893","0.0-3.0-6.0-1.0-0.71","610038371297afd6f2db9323","6662009ae78f21dd82fcd179","66620eb1ec34f31ab08d4bfa","325","","j","","","","","","","","./tasks/HMM-beads/Images/NewTrialWC.png","lowH","1","71","0","0","1","1","false","",""
"image-keyboard-response","350","553193","0.0-3.0-6.0-1.0-1.71","610038371297afd6f2db9323","6662009ae78f21dd82fcd179","66620eb1ec34f31ab08d4bfa","null","","null","","","","","","","","./tasks/HMM-beads/Images/WhiteBeadChoice.png","","","","","","","","","",""
"image-keyboard-response","351","553695","0.0-3.0-6.0-1.0-2.71","610038371297afd6f2db9323","6662009ae78f21dd82fcd179","66620eb1ec34f31ab08d4bfa","null","","null","","","","","","","","./tasks/HMM-beads/Images/WhiteBeadChoiceWrong.png","","","","","","","","","",""
"image-keyboard-response","352","553882","0.0-3.0-6.0-1.0-0.72","610038371297afd6f2db9323","6662009ae78f21dd82fcd179","66620eb1ec34f31ab08d4bfa","187","","j","","","","","","","","./tasks/HMM-beads/Images/NewTrialBC.png","lowH","1","72","0","0","0","1","false","",""
"image-keyboard-response","353","554196","0.0-3.0-6.0-1.0-1.72","610038371297afd6f2db9323","6662009ae78f21dd82fcd179","66620eb1ec34f31ab08d4bfa","null","","null","","","","","","","","./tasks/HMM-beads/Images/WhiteBeadChoice.png","","","","","","","","","",""
"image-keyboard-response","354","554697","0.0-3.0-6.0-1.0-2.72","610038371297afd6f2db9323","6662009ae78f21dd82fcd179","66620eb1ec34f31ab08d4bfa","null","","null","","","","","","","","./tasks/HMM-beads/Images/WhiteBeadChoiceWrong.png","","","","","","","","","",""
"image-keyboard-response","355","554879","0.0-3.0-6.0-1.0-0.73","610038371297afd6f2db9323","6662009ae78f21dd82fcd179","66620eb1ec34f31ab08d4bfa","181","","j","","","","","","","","./tasks/HMM-beads/Images/NewTrialBC.png","lowH","1","73","0","1","0","1","true","",""
"image-keyboard-response","356","555184","0.0-3.0-6.0-1.0-1.73","610038371297afd6f2db9323","6662009ae78f21dd82fcd179","66620eb1ec34f31ab08d4bfa","null","","null","","","","","","","","./tasks/HMM-beads/Images/WhiteBeadChoice.png","","","","","","","","","",""
"image-keyboard-response","357","555688","0.0-3.0-6.0-1.0-2.73","610038371297afd6f2db9323","6662009ae78f21dd82fcd179","66620eb1ec34f31ab08d4bfa","null","","null","","","","","","","","./tasks/HMM-beads/Images/WhiteBeadChoiceCorrect.png","","","","","","","","","",""
"image-keyboard-response","358","555876","0.0-3.0-6.0-1.0-0.74","610038371297afd6f2db9323","6662009ae78f21dd82fcd179","66620eb1ec34f31ab08d4bfa","187","","j","","","","","","","","./tasks/HMM-beads/Images/NewTrialWC.png","lowH","1","74","0","0","1","1","false","",""
"image-keyboard-response","359","556186","0.0-3.0-6.0-1.0-1.74","610038371297afd6f2db9323","6662009ae78f21dd82fcd179","66620eb1ec34f31ab08d4bfa","null","","null","","","","","","","","./tasks/HMM-beads/Images/WhiteBeadChoice.png","","","","","","","","","",""
"image-keyboard-response","360","556702","0.0-3.0-6.0-1.0-2.74","610038371297afd6f2db9323","6662009ae78f21dd82fcd179","66620eb1ec34f31ab08d4bfa","null","","null","","","","","","","","./tasks/HMM-beads/Images/WhiteBeadChoiceWrong.png","","","","","","","","","",""
"image-keyboard-response","361","557178","0.0-3.0-6.0-1.0-0.75","610038371297afd6f2db9323","6662009ae78f21dd82fcd179","66620eb1ec34f31ab08d4bfa","475","","f","","","","","","","","./tasks/HMM-beads/Images/NewTrialBC.png","lowH","1","75","0","1","0","0","false","",""
"image-keyboard-response","362","557483","0.0-3.0-6.0-1.0-1.75","610038371297afd6f2db9323","6662009ae78f21dd82fcd179","66620eb1ec34f31ab08d4bfa","null","","null","","","","","","","","./tasks/HMM-beads/Images/BlackBeadChoice.png","","","","","","","","","",""
"image-keyboard-response","363","557984","0.0-3.0-6.0-1.0-2.75","610038371297afd6f2db9323","6662009ae78f21dd82fcd179","66620eb1ec34f31ab08d4bfa","null","","null","","","","","","","","./tasks/HMM-beads/Images/BlackBeadChoiceWrong.png","","","","","","","","","",""
"image-keyboard-response","364","558130","0.0-3.0-6.0-1.0-0.76","610038371297afd6f2db9323","6662009ae78f21dd82fcd179","66620eb1ec34f31ab08d4bfa","145","","j","","","","","","","","./tasks/HMM-beads/Images/NewTrialWC.png","lowH","1","76","0","1","1","1","true","",""
"image-keyboard-response","365","558437","0.0-3.0-6.0-1.0-1.76","610038371297afd6f2db9323","6662009ae78f21dd82fcd179","66620eb1ec34f31ab08d4bfa","null","","null","","","","","","","","./tasks/HMM-beads/Images/WhiteBeadChoice.png","","","","","","","","","",""
"image-keyboard-response","366","558952","0.0-3.0-6.0-1.0-2.76","610038371297afd6f2db9323","6662009ae78f21dd82fcd179","66620eb1ec34f31ab08d4bfa","null","","null","","","","","","","","./tasks/HMM-beads/Images/WhiteBeadChoiceCorrect.png","","","","","","","","","",""
"image-keyboard-response","367","559265","0.0-3.0-6.0-1.0-0.77","610038371297afd6f2db9323","6662009ae78f21dd82fcd179","66620eb1ec34f31ab08d4bfa","312","","j","","","","","","","","./tasks/HMM-beads/Images/NewTrialWC.png","lowH","1","77","0","0","1","1","false","",""
"image-keyboard-response","368","559577","0.0-3.0-6.0-1.0-1.77","610038371297afd6f2db9323","6662009ae78f21dd82fcd179","66620eb1ec34f31ab08d4bfa","null","","null","","","","","","","","./tasks/HMM-beads/Images/WhiteBeadChoice.png","","","","","","","","","",""
"image-keyboard-response","369","560092","0.0-3.0-6.0-1.0-2.77","610038371297afd6f2db9323","6662009ae78f21dd82fcd179","66620eb1ec34f31ab08d4bfa","null","","null","","","","","","","","./tasks/HMM-beads/Images/WhiteBeadChoiceWrong.png","","","","","","","","","",""
"image-keyboard-response","370","560435","0.0-3.0-6.0-1.0-0.78","610038371297afd6f2db9323","6662009ae78f21dd82fcd179","66620eb1ec34f31ab08d4bfa","342","","j","","","","","","","","./tasks/HMM-beads/Images/NewTrialBC.png","lowH","1","78","0","0","0","1","false","",""
"image-keyboard-response","371","560750","0.0-3.0-6.0-1.0-1.78","610038371297afd6f2db9323","6662009ae78f21dd82fcd179","66620eb1ec34f31ab08d4bfa","null","","null","","","","","","","","./tasks/HMM-beads/Images/WhiteBeadChoice.png","","","","","","","","","",""
"image-keyboard-response","372","561263","0.0-3.0-6.0-1.0-2.78","610038371297afd6f2db9323","6662009ae78f21dd82fcd179","66620eb1ec34f31ab08d4bfa","null","","null","","","","","","","","./tasks/HMM-beads/Images/WhiteBeadChoiceWrong.png","","","","","","","","","",""
"image-keyboard-response","373","561400","0.0-3.0-6.0-1.0-0.79","610038371297afd6f2db9323","6662009ae78f21dd82fcd179","66620eb1ec34f31ab08d4bfa","136","","f","","","","","","","","./tasks/HMM-beads/Images/NewTrialBC.png","lowH","1","79","0","0","0","0","true","",""
