"trial_type","trial_index","time_elapsed","internal_node_id","subject_id","study_id","session_id","rt","url","response","question_order","view_history","success","timeout","failed_images","failed_audio","failed_video","stimulus","block","block_rep","trial_number","jar","bead","previous_bead","choice","correct","lowH_score","total_bonus"
"pavlovia","0","1302","0.0-0.0","6307bee7b345c1bf0fb2f362","6662009ae78f21dd82fcd179","66620a5f9474f26fc8eabba5","","","","","","","","","","","","","","","","","","","","",""
"external-html","1","34918","0.0-1.0-0.0","6307bee7b345c1bf0fb2f362","6662009ae78f21dd82fcd179","66620a5f9474f26fc8eabba5","32968","new_consent.html","","","","","","","","","","","","","","","","","","",""
"survey-multi-choice","2","40047","0.0-1.0-1.0","6307bee7b345c1bf0fb2f362","6662009ae78f21dd82fcd179","66620a5f9474f26fc8eabba5","5127","","{""Q0"":""Male"",""Q1"":""White""}","[0,1]","","","","","","","","","","","","","","","","",""
"survey-text","3","42782","0.0-1.0-2.0","6307bee7b345c1bf0fb2f362","6662009ae78f21dd82fcd179","66620a5f9474f26fc8eabba5","2732","","{""Q0"":""5""}","","","","","","","","","","","","","","","","","",""
"instructions","4","43814","0.0-2.0","6307bee7b345c1bf0fb2f362","6662009ae78f21dd82fcd179","66620a5f9474f26fc8eabba5","920","","","","[{""page_index"":0,""viewing_time"":920}]","","","","","","","","","","","","","","","",""
"preload","5","60459","0.0-3.0-0.0","6307bee7b345c1bf0fb2f362","6662009ae78f21dd82fcd179","66620a5f9474f26fc8eabba5","","","","","","true","false","[]","[]","[]","","","","","","","","","","",""
"instructions","6","106005","0.0-3.0-1.0","6307bee7b345c1bf0fb2f362","6662009ae78f21dd82fcd179","66620a5f9474f26fc8eabba5","45546","","","","[{""page_index"":0,""viewing_time"":14818},{""page_index"":1,""viewing_time"":1992},{""page_index"":2,""viewing_time"":1800},{""page_index"":3,""viewing_time"":944},{""page_index"":4,""viewing_time"":2848},{""page_index"":5,""viewing_time"":3560},{""page_index"":6,""viewing_time"":2960},{""page_index"":7,""viewing_time"":5544},{""page_index"":8,""viewing_time"":3056},{""page_index"":9,""viewing_time"":3352},{""page_index"":10,""viewing_time"":2864},{""page_index"":11,""viewing_time"":1808}]","","","","","","","","","","","","","","","",""
"html-button-response","7","108077","0.0-3.0-2.0-0.0-0.0","6307bee7b345c1bf0fb2f362","6662009ae78f21dd82fcd179","66620a5f9474f26fc8eabba5","2071","","1","","","","","","","","<div align=center>Your goal is to predict…?<br><br></div>","","","","","","","","","",""
"html-button-response","8","111557","0.0-3.0-2.0-1.0-0.0","6307bee7b345c1bf0fb2f362","6662009ae78f21dd82fcd179","66620a5f9474f26fc8eabba5","2079","","2","","","","","","","","<div align=center>In the jar with mostly white beads, there are ___% white beads and ___% black beads?<br><br></div>","","","","","","","","","",""
"html-button-response","9","116316","0.0-3.0-2.0-2.0-0.0","6307bee7b345c1bf0fb2f362","6662009ae78f21dd82fcd179","66620a5f9474f26fc8eabba5","3911","","0","","","","","","","","<div align=center>When there is a 1% probability that the jars will switch, the next bead will most likely be drawn from the…<br><br></div>","","","","","","","","","",""
"html-button-response","10","119596","0.0-3.0-2.0-3.0-0.0","6307bee7b345c1bf0fb2f362","6662009ae78f21dd82fcd179","66620a5f9474f26fc8eabba5","2175","","1","","","","","","","","<div align=center>When there is a 99% probability that the jars will switch, the next bead will most likely be drawn from the…<br><br></div>","","","","","","","","","",""
"instructions","11","123661","0.0-3.0-3.0","6307bee7b345c1bf0fb2f362","6662009ae78f21dd82fcd179","66620a5f9474f26fc8eabba5","3136","","","","[{""page_index"":0,""viewing_time"":3136}]","","","","","","","","","","","","","","","",""
"html-keyboard-response","12","128967","0.0-3.0-4.0-0.0","6307bee7b345c1bf0fb2f362","6662009ae78f21dd82fcd179","66620a5f9474f26fc8eabba5","5305",""," ","","","","","","","","<div align=center>In this practice block, there will be a <b>1% chance</b> that the jar on the next trial will be different from the jar on the current trial.<br><br></div>","","","","","","","","","",""
"image-keyboard-response","13","132694","0.0-3.0-4.0-1.0-0.0","6307bee7b345c1bf0fb2f362","6662009ae78f21dd82fcd179","66620a5f9474f26fc8eabba5","3722","","j","","","","","","","","./tasks/HMM-beads/Images/NoChoice.png","practice","0","0","0","0","9","1","false","",""
"image-keyboard-response","14","133000","0.0-3.0-4.0-1.0-1.0","6307bee7b345c1bf0fb2f362","6662009ae78f21dd82fcd179","66620a5f9474f26fc8eabba5","null","","null","","","","","","","","./tasks/HMM-beads/Images/WhiteBeadChoice.png","","","","","","","","","",""
"image-keyboard-response","15","133516","0.0-3.0-4.0-1.0-2.0","6307bee7b345c1bf0fb2f362","6662009ae78f21dd82fcd179","66620a5f9474f26fc8eabba5","null","","null","","","","","","","","./tasks/HMM-beads/Images/WhiteBeadChoiceWrong.png","","","","","","","","","",""
"image-keyboard-response","16","134758","0.0-3.0-4.0-1.0-0.1","6307bee7b345c1bf0fb2f362","6662009ae78f21dd82fcd179","66620a5f9474f26fc8eabba5","1240","","f","","","","","","","","./tasks/HMM-beads/Images/NewTrialBC.png","practice","0","1","0","0","0","0","true","",""
"image-keyboard-response","17","135066","0.0-3.0-4.0-1.0-1.1","6307bee7b345c1bf0fb2f362","6662009ae78f21dd82fcd179","66620a5f9474f26fc8eabba5","null","","null","","","","","","","","./tasks/HMM-beads/Images/BlackBeadChoice.png","","","","","","","","","",""
"image-keyboard-response","18","135569","0.0-3.0-4.0-1.0-2.1","6307bee7b345c1bf0fb2f362","6662009ae78f21dd82fcd179","66620a5f9474f26fc8eabba5","null","","null","","","","","","","","./tasks/HMM-beads/Images/BlackBeadChoiceCorrect.png","","","","","","","","","",""
"image-keyboard-response","19","136006","0.0-3.0-4.0-1.0-0.2","6307bee7b345c1bf0fb2f362","6662009ae78f21dd82fcd179","66620a5f9474f26fc8eabba5","435","","f","","","","","","","","./tasks/HMM-beads/Images/NewTrialBC.png","practice","0","2","0","1","0","0","false","",""
"image-keyboard-response","20","136318","0.0-3.0-4.0-1.0-1.2","6307bee7b345c1bf0fb2f362","6662009ae78f21dd82fcd179","66620a5f9474f26fc8eabba5","null","","null","","","","","","","","./tasks/HMM-beads/Images/BlackBeadChoice.png","","","","","","","","","",""
"image-keyboard-response","21","136821","0.0-3.0-4.0-1.0-2.2","6307bee7b345c1bf0fb2f362","6662009ae78f21dd82fcd179","66620a5f9474f26fc8eabba5","null","","null","","","","","","","","./tasks/HMM-beads/Images/BlackBeadChoiceWrong.png","","","","","","","","","",""
"image-keyboard-response","22","137350","0.0-3.0-4.0-1.0-0.3","6307bee7b345c1bf0fb2f362","6662009ae78f21dd82fcd179","66620a5f9474f26fc8eabba5","527","","f","","","","","","","","./tasks/HMM-beads/Images/NewTrialWC.png","practice","0","3","0","0","1","0","true","",""
"image-keyboard-response","23","137667","0.0-3.0-4.0-1.0-1.3","6307bee7b345c1bf0fb2f362","6662009ae78f21dd82fcd179","66620a5f9474f26fc8eabba5","null","","null","","","","","","","","./tasks/HMM-beads/Images/BlackBeadChoice.png","","","","","","","","","",""
"image-keyboard-response","24","138171","0.0-3.0-4.0-1.0-2.3","6307bee7b345c1bf0fb2f362","6662009ae78f21dd82fcd179","66620a5f9474f26fc8eabba5","null","","null","","","","","","","","./tasks/HMM-beads/Images/BlackBeadChoiceCorrect.png","","","","","","","","","",""
"image-keyboard-response","25","138902","0.0-3.0-4.0-1.0-0.4","6307bee7b345c1bf0fb2f362","6662009ae78f21dd82fcd179","66620a5f9474f26fc8eabba5","729","","f","","","","","","","","./tasks/HMM-beads/Images/NewTrialBC.png","practice","0","4","0","0","0","0","true","",""
"image-keyboard-response","26","139217","0.0-3.0-4.0-1.0-1.4","6307bee7b345c1bf0fb2f362","6662009ae78f21dd82fcd179","66620a5f9474f26fc8eabba5","null","","null","","","","","","","","./tasks/HMM-beads/Images/BlackBeadChoice.png","","","","","","","","","",""
"image-keyboard-response","27","139721","0.0-3.0-4.0-1.0-2.4","6307bee7b345c1bf0fb2f362","6662009ae78f21dd82fcd179","66620a5f9474f26fc8eabba5","null","","null","","","","","","","","./tasks/HMM-beads/Images/BlackBeadChoiceCorrect.png","","","","","","","","","",""
"image-keyboard-response","28","140022","0.0-3.0-4.0-1.0-0.5","6307bee7b345c1bf0fb2f362","6662009ae78f21dd82fcd179","66620a5f9474f26fc8eabba5","300","","f","","","","","","","","./tasks/HMM-beads/Images/NewTrialBC.png","practice","0","5","0","1","0","0","false","",""
"image-keyboard-response","29","140335","0.0-3.0-4.0-1.0-1.5","6307bee7b345c1bf0fb2f362","6662009ae78f21dd82fcd179","66620a5f9474f26fc8eabba5","null","","null","","","","","","","","./tasks/HMM-beads/Images/BlackBeadChoice.png","","","","","","","","","",""
"image-keyboard-response","30","140837","0.0-3.0-4.0-1.0-2.5","6307bee7b345c1bf0fb2f362","6662009ae78f21dd82fcd179","66620a5f9474f26fc8eabba5","null","","null","","","","","","","","./tasks/HMM-beads/Images/BlackBeadChoiceWrong.png","","","","","","","","","",""
"image-keyboard-response","31","141174","0.0-3.0-4.0-1.0-0.6","6307bee7b345c1bf0fb2f362","6662009ae78f21dd82fcd179","66620a5f9474f26fc8eabba5","335","","f","","","","","","","","./tasks/HMM-beads/Images/NewTrialWC.png","practice","0","6","0","0","1","0","true","",""
"image-keyboard-response","32","141484","0.0-3.0-4.0-1.0-1.6","6307bee7b345c1bf0fb2f362","6662009ae78f21dd82fcd179","66620a5f9474f26fc8eabba5","null","","null","","","","","","","","./tasks/HMM-beads/Images/BlackBeadChoice.png","","","","","","","","","",""
"image-keyboard-response","33","141987","0.0-3.0-4.0-1.0-2.6","6307bee7b345c1bf0fb2f362","6662009ae78f21dd82fcd179","66620a5f9474f26fc8eabba5","null","","null","","","","","","","","./tasks/HMM-beads/Images/BlackBeadChoiceCorrect.png","","","","","","","","","",""
"image-keyboard-response","34","142934","0.0-3.0-4.0-1.0-0.7","6307bee7b345c1bf0fb2f362","6662009ae78f21dd82fcd179","66620a5f9474f26fc8eabba5","945","","f","","","","","","","","./tasks/HMM-beads/Images/NewTrialBC.png","practice","0","7","0","0","0","0","true","",""
"image-keyboard-response","35","143251","0.0-3.0-4.0-1.0-1.7","6307bee7b345c1bf0fb2f362","6662009ae78f21dd82fcd179","66620a5f9474f26fc8eabba5","null","","null","","","","","","","","./tasks/HMM-beads/Images/BlackBeadChoice.png","","","","","","","","","",""
"image-keyboard-response","36","143753","0.0-3.0-4.0-1.0-2.7","6307bee7b345c1bf0fb2f362","6662009ae78f21dd82fcd179","66620a5f9474f26fc8eabba5","null","","null","","","","","","","","./tasks/HMM-beads/Images/BlackBeadChoiceCorrect.png","","","","","","","","","",""
"image-keyboard-response","37","144374","0.0-3.0-4.0-1.0-0.8","6307bee7b345c1bf0fb2f362","6662009ae78f21dd82fcd179","66620a5f9474f26fc8eabba5","619","","f","","","","","","","","./tasks/HMM-beads/Images/NewTrialBC.png","practice","0","8","0","0","0","0","true","",""
"image-keyboard-response","38","144683","0.0-3.0-4.0-1.0-1.8","6307bee7b345c1bf0fb2f362","6662009ae78f21dd82fcd179","66620a5f9474f26fc8eabba5","null","","null","","","","","","","","./tasks/HMM-beads/Images/BlackBeadChoice.png","","","","","","","","","",""
"image-keyboard-response","39","145187","0.0-3.0-4.0-1.0-2.8","6307bee7b345c1bf0fb2f362","6662009ae78f21dd82fcd179","66620a5f9474f26fc8eabba5","null","","null","","","","","","","","./tasks/HMM-beads/Images/BlackBeadChoiceCorrect.png","","","","","","","","","",""
"image-keyboard-response","40","145686","0.0-3.0-4.0-1.0-0.9","6307bee7b345c1bf0fb2f362","6662009ae78f21dd82fcd179","66620a5f9474f26fc8eabba5","497","","f","","","","","","","","./tasks/HMM-beads/Images/NewTrialBC.png","practice","0","9","0","1","0","0","false","",""
"image-keyboard-response","41","145999","0.0-3.0-4.0-1.0-1.9","6307bee7b345c1bf0fb2f362","6662009ae78f21dd82fcd179","66620a5f9474f26fc8eabba5","null","","null","","","","","","","","./tasks/HMM-beads/Images/BlackBeadChoice.png","","","","","","","","","",""
"image-keyboard-response","42","146504","0.0-3.0-4.0-1.0-2.9","6307bee7b345c1bf0fb2f362","6662009ae78f21dd82fcd179","66620a5f9474f26fc8eabba5","null","","null","","","","","","","","./tasks/HMM-beads/Images/BlackBeadChoiceWrong.png","","","","","","","","","",""
"image-keyboard-response","43","147078","0.0-3.0-4.0-1.0-0.10","6307bee7b345c1bf0fb2f362","6662009ae78f21dd82fcd179","66620a5f9474f26fc8eabba5","572","","f","","","","","","","","./tasks/HMM-beads/Images/NewTrialWC.png","practice","0","10","0","0","1","0","true","",""
"image-keyboard-response","44","147383","0.0-3.0-4.0-1.0-1.10","6307bee7b345c1bf0fb2f362","6662009ae78f21dd82fcd179","66620a5f9474f26fc8eabba5","null","","null","","","","","","","","./tasks/HMM-beads/Images/BlackBeadChoice.png","","","","","","","","","",""
"image-keyboard-response","45","147885","0.0-3.0-4.0-1.0-2.10","6307bee7b345c1bf0fb2f362","6662009ae78f21dd82fcd179","66620a5f9474f26fc8eabba5","null","","null","","","","","","","","./tasks/HMM-beads/Images/BlackBeadChoiceCorrect.png","","","","","","","","","",""
"image-keyboard-response","46","148710","0.0-3.0-4.0-1.0-0.11","6307bee7b345c1bf0fb2f362","6662009ae78f21dd82fcd179","66620a5f9474f26fc8eabba5","823","","f","","","","","","","","./tasks/HMM-beads/Images/NewTrialBC.png","practice","0","11","0","1","0","0","false","",""
"image-keyboard-response","47","149017","0.0-3.0-4.0-1.0-1.11","6307bee7b345c1bf0fb2f362","6662009ae78f21dd82fcd179","66620a5f9474f26fc8eabba5","null","","null","","","","","","","","./tasks/HMM-beads/Images/BlackBeadChoice.png","","","","","","","","","",""
"image-keyboard-response","48","149534","0.0-3.0-4.0-1.0-2.11","6307bee7b345c1bf0fb2f362","6662009ae78f21dd82fcd179","66620a5f9474f26fc8eabba5","null","","null","","","","","","","","./tasks/HMM-beads/Images/BlackBeadChoiceWrong.png","","","","","","","","","",""
"image-keyboard-response","49","149942","0.0-3.0-4.0-1.0-0.12","6307bee7b345c1bf0fb2f362","6662009ae78f21dd82fcd179","66620a5f9474f26fc8eabba5","406","","f","","","","","","","","./tasks/HMM-beads/Images/NewTrialWC.png","practice","0","12","0","0","1","0","true","",""
"image-keyboard-response","50","150249","0.0-3.0-4.0-1.0-1.12","6307bee7b345c1bf0fb2f362","6662009ae78f21dd82fcd179","66620a5f9474f26fc8eabba5","null","","null","","","","","","","","./tasks/HMM-beads/Images/BlackBeadChoice.png","","","","","","","","","",""
"image-keyboard-response","51","150751","0.0-3.0-4.0-1.0-2.12","6307bee7b345c1bf0fb2f362","6662009ae78f21dd82fcd179","66620a5f9474f26fc8eabba5","null","","null","","","","","","","","./tasks/HMM-beads/Images/BlackBeadChoiceCorrect.png","","","","","","","","","",""
"image-keyboard-response","52","151718","0.0-3.0-4.0-1.0-0.13","6307bee7b345c1bf0fb2f362","6662009ae78f21dd82fcd179","66620a5f9474f26fc8eabba5","965","","f","","","","","","","","./tasks/HMM-beads/Images/NewTrialBC.png","practice","0","13","0","0","0","0","true","",""
"image-keyboard-response","53","152032","0.0-3.0-4.0-1.0-1.13","6307bee7b345c1bf0fb2f362","6662009ae78f21dd82fcd179","66620a5f9474f26fc8eabba5","null","","null","","","","","","","","./tasks/HMM-beads/Images/BlackBeadChoice.png","","","","","","","","","",""
"image-keyboard-response","54","152534","0.0-3.0-4.0-1.0-2.13","6307bee7b345c1bf0fb2f362","6662009ae78f21dd82fcd179","66620a5f9474f26fc8eabba5","null","","null","","","","","","","","./tasks/HMM-beads/Images/BlackBeadChoiceCorrect.png","","","","","","","","","",""
"image-keyboard-response","55","153078","0.0-3.0-4.0-1.0-0.14","6307bee7b345c1bf0fb2f362","6662009ae78f21dd82fcd179","66620a5f9474f26fc8eabba5","542","","f","","","","","","","","./tasks/HMM-beads/Images/NewTrialBC.png","practice","0","14","0","0","0","0","true","",""
"image-keyboard-response","56","153381","0.0-3.0-4.0-1.0-1.14","6307bee7b345c1bf0fb2f362","6662009ae78f21dd82fcd179","66620a5f9474f26fc8eabba5","null","","null","","","","","","","","./tasks/HMM-beads/Images/BlackBeadChoice.png","","","","","","","","","",""
"image-keyboard-response","57","153884","0.0-3.0-4.0-1.0-2.14","6307bee7b345c1bf0fb2f362","6662009ae78f21dd82fcd179","66620a5f9474f26fc8eabba5","null","","null","","","","","","","","./tasks/HMM-beads/Images/BlackBeadChoiceCorrect.png","","","","","","","","","",""
"image-keyboard-response","58","154358","0.0-3.0-4.0-1.0-0.15","6307bee7b345c1bf0fb2f362","6662009ae78f21dd82fcd179","66620a5f9474f26fc8eabba5","472","","f","","","","","","","","./tasks/HMM-beads/Images/NewTrialBC.png","practice","0","15","0","0","0","0","true","",""
"image-keyboard-response","59","154664","0.0-3.0-4.0-1.0-1.15","6307bee7b345c1bf0fb2f362","6662009ae78f21dd82fcd179","66620a5f9474f26fc8eabba5","null","","null","","","","","","","","./tasks/HMM-beads/Images/BlackBeadChoice.png","","","","","","","","","",""
"image-keyboard-response","60","155167","0.0-3.0-4.0-1.0-2.15","6307bee7b345c1bf0fb2f362","6662009ae78f21dd82fcd179","66620a5f9474f26fc8eabba5","null","","null","","","","","","","","./tasks/HMM-beads/Images/BlackBeadChoiceCorrect.png","","","","","","","","","",""
"image-keyboard-response","61","156342","0.0-3.0-4.0-1.0-0.16","6307bee7b345c1bf0fb2f362","6662009ae78f21dd82fcd179","66620a5f9474f26fc8eabba5","1173","","f","","","","","","","","./tasks/HMM-beads/Images/NewTrialBC.png","practice","0","16","0","0","0","0","true","",""
"image-keyboard-response","62","156647","0.0-3.0-4.0-1.0-1.16","6307bee7b345c1bf0fb2f362","6662009ae78f21dd82fcd179","66620a5f9474f26fc8eabba5","null","","null","","","","","","","","./tasks/HMM-beads/Images/BlackBeadChoice.png","","","","","","","","","",""
"image-keyboard-response","63","157150","0.0-3.0-4.0-1.0-2.16","6307bee7b345c1bf0fb2f362","6662009ae78f21dd82fcd179","66620a5f9474f26fc8eabba5","null","","null","","","","","","","","./tasks/HMM-beads/Images/BlackBeadChoiceCorrect.png","","","","","","","","","",""
"image-keyboard-response","64","157782","0.0-3.0-4.0-1.0-0.17","6307bee7b345c1bf0fb2f362","6662009ae78f21dd82fcd179","66620a5f9474f26fc8eabba5","630","","f","","","","","","","","./tasks/HMM-beads/Images/NewTrialBC.png","practice","0","17","0","0","0","0","true","",""
"image-keyboard-response","65","158094","0.0-3.0-4.0-1.0-1.17","6307bee7b345c1bf0fb2f362","6662009ae78f21dd82fcd179","66620a5f9474f26fc8eabba5","null","","null","","","","","","","","./tasks/HMM-beads/Images/BlackBeadChoice.png","","","","","","","","","",""
"image-keyboard-response","66","158599","0.0-3.0-4.0-1.0-2.17","6307bee7b345c1bf0fb2f362","6662009ae78f21dd82fcd179","66620a5f9474f26fc8eabba5","null","","null","","","","","","","","./tasks/HMM-beads/Images/BlackBeadChoiceCorrect.png","","","","","","","","","",""
"image-keyboard-response","67","159494","0.0-3.0-4.0-1.0-0.18","6307bee7b345c1bf0fb2f362","6662009ae78f21dd82fcd179","66620a5f9474f26fc8eabba5","893","","f","","","","","","","","./tasks/HMM-beads/Images/NewTrialBC.png","practice","0","18","0","1","0","0","false","",""
"image-keyboard-response","68","159811","0.0-3.0-4.0-1.0-1.18","6307bee7b345c1bf0fb2f362","6662009ae78f21dd82fcd179","66620a5f9474f26fc8eabba5","null","","null","","","","","","","","./tasks/HMM-beads/Images/BlackBeadChoice.png","","","","","","","","","",""
"image-keyboard-response","69","160316","0.0-3.0-4.0-1.0-2.18","6307bee7b345c1bf0fb2f362","6662009ae78f21dd82fcd179","66620a5f9474f26fc8eabba5","null","","null","","","","","","","","./tasks/HMM-beads/Images/BlackBeadChoiceWrong.png","","","","","","","","","",""
"image-keyboard-response","70","160694","0.0-3.0-4.0-1.0-0.19","6307bee7b345c1bf0fb2f362","6662009ae78f21dd82fcd179","66620a5f9474f26fc8eabba5","376","","f","","","","","","","","./tasks/HMM-beads/Images/NewTrialWC.png","practice","0","19","0","0","1","0","true","",""
"image-keyboard-response","71","161012","0.0-3.0-4.0-1.0-1.19","6307bee7b345c1bf0fb2f362","6662009ae78f21dd82fcd179","66620a5f9474f26fc8eabba5","null","","null","","","","","","","","./tasks/HMM-beads/Images/BlackBeadChoice.png","","","","","","","","","",""
"image-keyboard-response","72","161515","0.0-3.0-4.0-1.0-2.19","6307bee7b345c1bf0fb2f362","6662009ae78f21dd82fcd179","66620a5f9474f26fc8eabba5","null","","null","","","","","","","","./tasks/HMM-beads/Images/BlackBeadChoiceCorrect.png","","","","","","","","","",""
"image-keyboard-response","73","161590","0.0-3.0-4.0-1.0-0.20","6307bee7b345c1bf0fb2f362","6662009ae78f21dd82fcd179","66620a5f9474f26fc8eabba5","73","","f","","","","","","","","./tasks/HMM-beads/Images/NewTrialBC.png","practice","0","20","0","0","0","0","true","",""
"image-keyboard-response","74","161895","0.0-3.0-4.0-1.0-1.20","6307bee7b345c1bf0fb2f362","6662009ae78f21dd82fcd179","66620a5f9474f26fc8eabba5","null","","null","","","","","","","","./tasks/HMM-beads/Images/BlackBeadChoice.png","","","","","","","","","",""
"image-keyboard-response","75","162411","0.0-3.0-4.0-1.0-2.20","6307bee7b345c1bf0fb2f362","6662009ae78f21dd82fcd179","66620a5f9474f26fc8eabba5","null","","null","","","","","","","","./tasks/HMM-beads/Images/BlackBeadChoiceCorrect.png","","","","","","","","","",""
"image-keyboard-response","76","162998","0.0-3.0-4.0-1.0-0.21","6307bee7b345c1bf0fb2f362","6662009ae78f21dd82fcd179","66620a5f9474f26fc8eabba5","585","","f","","","","","","","","./tasks/HMM-beads/Images/NewTrialBC.png","practice","0","21","0","1","0","0","false","",""
"image-keyboard-response","77","163302","0.0-3.0-4.0-1.0-1.21","6307bee7b345c1bf0fb2f362","6662009ae78f21dd82fcd179","66620a5f9474f26fc8eabba5","null","","null","","","","","","","","./tasks/HMM-beads/Images/BlackBeadChoice.png","","","","","","","","","",""
"image-keyboard-response","78","163818","0.0-3.0-4.0-1.0-2.21","6307bee7b345c1bf0fb2f362","6662009ae78f21dd82fcd179","66620a5f9474f26fc8eabba5","null","","null","","","","","","","","./tasks/HMM-beads/Images/BlackBeadChoiceWrong.png","","","","","","","","","",""
"image-keyboard-response","79","164070","0.0-3.0-4.0-1.0-0.22","6307bee7b345c1bf0fb2f362","6662009ae78f21dd82fcd179","66620a5f9474f26fc8eabba5","250","","f","","","","","","","","./tasks/HMM-beads/Images/NewTrialWC.png","practice","0","22","1","1","1","0","false","",""
"image-keyboard-response","80","164384","0.0-3.0-4.0-1.0-1.22","6307bee7b345c1bf0fb2f362","6662009ae78f21dd82fcd179","66620a5f9474f26fc8eabba5","null","","null","","","","","","","","./tasks/HMM-beads/Images/BlackBeadChoice.png","","","","","","","","","",""
"image-keyboard-response","81","164902","0.0-3.0-4.0-1.0-2.22","6307bee7b345c1bf0fb2f362","6662009ae78f21dd82fcd179","66620a5f9474f26fc8eabba5","null","","null","","","","","","","","./tasks/HMM-beads/Images/BlackBeadChoiceWrong.png","","","","","","","","","",""
"image-keyboard-response","82","164998","0.0-3.0-4.0-1.0-0.23","6307bee7b345c1bf0fb2f362","6662009ae78f21dd82fcd179","66620a5f9474f26fc8eabba5","94","","j","","","","","","","","./tasks/HMM-beads/Images/NewTrialWC.png","practice","0","23","1","0","1","1","false","",""
"image-keyboard-response","83","165309","0.0-3.0-4.0-1.0-1.23","6307bee7b345c1bf0fb2f362","6662009ae78f21dd82fcd179","66620a5f9474f26fc8eabba5","null","","null","","","","","","","","./tasks/HMM-beads/Images/WhiteBeadChoice.png","","","","","","","","","",""
"image-keyboard-response","84","165825","0.0-3.0-4.0-1.0-2.23","6307bee7b345c1bf0fb2f362","6662009ae78f21dd82fcd179","66620a5f9474f26fc8eabba5","null","","null","","","","","","","","./tasks/HMM-beads/Images/WhiteBeadChoiceWrong.png","","","","","","","","","",""
"image-keyboard-response","85","166022","0.0-3.0-4.0-1.0-0.24","6307bee7b345c1bf0fb2f362","6662009ae78f21dd82fcd179","66620a5f9474f26fc8eabba5","194","","j","","","","","","","","./tasks/HMM-beads/Images/NewTrialBC.png","practice","0","24","1","1","0","1","true","",""
"image-keyboard-response","86","166329","0.0-3.0-4.0-1.0-1.24","6307bee7b345c1bf0fb2f362","6662009ae78f21dd82fcd179","66620a5f9474f26fc8eabba5","null","","null","","","","","","","","./tasks/HMM-beads/Images/WhiteBeadChoice.png","","","","","","","","","",""
"image-keyboard-response","87","166847","0.0-3.0-4.0-1.0-2.24","6307bee7b345c1bf0fb2f362","6662009ae78f21dd82fcd179","66620a5f9474f26fc8eabba5","null","","null","","","","","","","","./tasks/HMM-beads/Images/WhiteBeadChoiceCorrect.png","","","","","","","","","",""
"image-keyboard-response","88","167049","0.0-3.0-4.0-1.0-0.25","6307bee7b345c1bf0fb2f362","6662009ae78f21dd82fcd179","66620a5f9474f26fc8eabba5","197","","j","","","","","","","","./tasks/HMM-beads/Images/NewTrialWC.png","practice","0","25","1","1","1","1","true","",""
"image-keyboard-response","89","167363","0.0-3.0-4.0-1.0-1.25","6307bee7b345c1bf0fb2f362","6662009ae78f21dd82fcd179","66620a5f9474f26fc8eabba5","null","","null","","","","","","","","./tasks/HMM-beads/Images/WhiteBeadChoice.png","","","","","","","","","",""
"image-keyboard-response","90","167868","0.0-3.0-4.0-1.0-2.25","6307bee7b345c1bf0fb2f362","6662009ae78f21dd82fcd179","66620a5f9474f26fc8eabba5","null","","null","","","","","","","","./tasks/HMM-beads/Images/WhiteBeadChoiceCorrect.png","","","","","","","","","",""
"image-keyboard-response","91","168422","0.0-3.0-4.0-1.0-0.26","6307bee7b345c1bf0fb2f362","6662009ae78f21dd82fcd179","66620a5f9474f26fc8eabba5","552","","j","","","","","","","","./tasks/HMM-beads/Images/NewTrialWC.png","practice","0","26","1","1","1","1","true","",""
"image-keyboard-response","92","168724","0.0-3.0-4.0-1.0-1.26","6307bee7b345c1bf0fb2f362","6662009ae78f21dd82fcd179","66620a5f9474f26fc8eabba5","null","","null","","","","","","","","./tasks/HMM-beads/Images/WhiteBeadChoice.png","","","","","","","","","",""
"image-keyboard-response","93","169228","0.0-3.0-4.0-1.0-2.26","6307bee7b345c1bf0fb2f362","6662009ae78f21dd82fcd179","66620a5f9474f26fc8eabba5","null","","null","","","","","","","","./tasks/HMM-beads/Images/WhiteBeadChoiceCorrect.png","","","","","","","","","",""
"image-keyboard-response","94","169589","0.0-3.0-4.0-1.0-0.27","6307bee7b345c1bf0fb2f362","6662009ae78f21dd82fcd179","66620a5f9474f26fc8eabba5","360","","j","","","","","","","","./tasks/HMM-beads/Images/NewTrialWC.png","practice","0","27","1","1","1","1","true","",""
"image-keyboard-response","95","169901","0.0-3.0-4.0-1.0-1.27","6307bee7b345c1bf0fb2f362","6662009ae78f21dd82fcd179","66620a5f9474f26fc8eabba5","null","","null","","","","","","","","./tasks/HMM-beads/Images/WhiteBeadChoice.png","","","","","","","","","",""
"image-keyboard-response","96","170404","0.0-3.0-4.0-1.0-2.27","6307bee7b345c1bf0fb2f362","6662009ae78f21dd82fcd179","66620a5f9474f26fc8eabba5","null","","null","","","","","","","","./tasks/HMM-beads/Images/WhiteBeadChoiceCorrect.png","","","","","","","","","",""
"image-keyboard-response","97","170758","0.0-3.0-4.0-1.0-0.28","6307bee7b345c1bf0fb2f362","6662009ae78f21dd82fcd179","66620a5f9474f26fc8eabba5","352","","j","","","","","","","","./tasks/HMM-beads/Images/NewTrialWC.png","practice","0","28","1","0","1","1","false","",""
"image-keyboard-response","98","171065","0.0-3.0-4.0-1.0-1.28","6307bee7b345c1bf0fb2f362","6662009ae78f21dd82fcd179","66620a5f9474f26fc8eabba5","null","","null","","","","","","","","./tasks/HMM-beads/Images/WhiteBeadChoice.png","","","","","","","","","",""
"image-keyboard-response","99","171569","0.0-3.0-4.0-1.0-2.28","6307bee7b345c1bf0fb2f362","6662009ae78f21dd82fcd179","66620a5f9474f26fc8eabba5","null","","null","","","","","","","","./tasks/HMM-beads/Images/WhiteBeadChoiceWrong.png","","","","","","","","","",""
"image-keyboard-response","100","171974","0.0-3.0-4.0-1.0-0.29","6307bee7b345c1bf0fb2f362","6662009ae78f21dd82fcd179","66620a5f9474f26fc8eabba5","403","","j","","","","","","","","./tasks/HMM-beads/Images/NewTrialBC.png","practice","0","29","1","1","0","1","true","",""
"image-keyboard-response","101","172277","0.0-3.0-4.0-1.0-1.29","6307bee7b345c1bf0fb2f362","6662009ae78f21dd82fcd179","66620a5f9474f26fc8eabba5","null","","null","","","","","","","","./tasks/HMM-beads/Images/WhiteBeadChoice.png","","","","","","","","","",""
"image-keyboard-response","102","172793","0.0-3.0-4.0-1.0-2.29","6307bee7b345c1bf0fb2f362","6662009ae78f21dd82fcd179","66620a5f9474f26fc8eabba5","null","","null","","","","","","","","./tasks/HMM-beads/Images/WhiteBeadChoiceCorrect.png","","","","","","","","","",""
"image-keyboard-response","103","173110","0.0-3.0-4.0-1.0-0.30","6307bee7b345c1bf0fb2f362","6662009ae78f21dd82fcd179","66620a5f9474f26fc8eabba5","315","","j","","","","","","","","./tasks/HMM-beads/Images/NewTrialWC.png","practice","0","30","1","0","1","1","false","",""
"image-keyboard-response","104","173418","0.0-3.0-4.0-1.0-1.30","6307bee7b345c1bf0fb2f362","6662009ae78f21dd82fcd179","66620a5f9474f26fc8eabba5","null","","null","","","","","","","","./tasks/HMM-beads/Images/WhiteBeadChoice.png","","","","","","","","","",""
"image-keyboard-response","105","173935","0.0-3.0-4.0-1.0-2.30","6307bee7b345c1bf0fb2f362","6662009ae78f21dd82fcd179","66620a5f9474f26fc8eabba5","null","","null","","","","","","","","./tasks/HMM-beads/Images/WhiteBeadChoiceWrong.png","","","","","","","","","",""
"image-keyboard-response","106","175110","0.0-3.0-4.0-1.0-0.31","6307bee7b345c1bf0fb2f362","6662009ae78f21dd82fcd179","66620a5f9474f26fc8eabba5","1173","","j","","","","","","","","./tasks/HMM-beads/Images/NewTrialBC.png","practice","0","31","1","1","0","1","true","",""
"image-keyboard-response","107","175421","0.0-3.0-4.0-1.0-1.31","6307bee7b345c1bf0fb2f362","6662009ae78f21dd82fcd179","66620a5f9474f26fc8eabba5","null","","null","","","","","","","","./tasks/HMM-beads/Images/WhiteBeadChoice.png","","","","","","","","","",""
"image-keyboard-response","108","175925","0.0-3.0-4.0-1.0-2.31","6307bee7b345c1bf0fb2f362","6662009ae78f21dd82fcd179","66620a5f9474f26fc8eabba5","null","","null","","","","","","","","./tasks/HMM-beads/Images/WhiteBeadChoiceCorrect.png","","","","","","","","","",""
"image-keyboard-response","109","176454","0.0-3.0-4.0-1.0-0.32","6307bee7b345c1bf0fb2f362","6662009ae78f21dd82fcd179","66620a5f9474f26fc8eabba5","528","","j","","","","","","","","./tasks/HMM-beads/Images/NewTrialWC.png","practice","0","32","1","1","1","1","true","",""
"image-keyboard-response","110","176759","0.0-3.0-4.0-1.0-1.32","6307bee7b345c1bf0fb2f362","6662009ae78f21dd82fcd179","66620a5f9474f26fc8eabba5","null","","null","","","","","","","","./tasks/HMM-beads/Images/WhiteBeadChoice.png","","","","","","","","","",""
"image-keyboard-response","111","177270","0.0-3.0-4.0-1.0-2.32","6307bee7b345c1bf0fb2f362","6662009ae78f21dd82fcd179","66620a5f9474f26fc8eabba5","null","","null","","","","","","","","./tasks/HMM-beads/Images/WhiteBeadChoiceCorrect.png","","","","","","","","","",""
"image-keyboard-response","112","177542","0.0-3.0-4.0-1.0-0.33","6307bee7b345c1bf0fb2f362","6662009ae78f21dd82fcd179","66620a5f9474f26fc8eabba5","270","","j","","","","","","","","./tasks/HMM-beads/Images/NewTrialWC.png","practice","0","33","1","1","1","1","true","",""
"image-keyboard-response","113","177858","0.0-3.0-4.0-1.0-1.33","6307bee7b345c1bf0fb2f362","6662009ae78f21dd82fcd179","66620a5f9474f26fc8eabba5","null","","null","","","","","","","","./tasks/HMM-beads/Images/WhiteBeadChoice.png","","","","","","","","","",""
"image-keyboard-response","114","178361","0.0-3.0-4.0-1.0-2.33","6307bee7b345c1bf0fb2f362","6662009ae78f21dd82fcd179","66620a5f9474f26fc8eabba5","null","","null","","","","","","","","./tasks/HMM-beads/Images/WhiteBeadChoiceCorrect.png","","","","","","","","","",""
"image-keyboard-response","115","178678","0.0-3.0-4.0-1.0-0.34","6307bee7b345c1bf0fb2f362","6662009ae78f21dd82fcd179","66620a5f9474f26fc8eabba5","315","","j","","","","","","","","./tasks/HMM-beads/Images/NewTrialWC.png","practice","0","34","1","1","1","1","true","",""
"image-keyboard-response","116","178990","0.0-3.0-4.0-1.0-1.34","6307bee7b345c1bf0fb2f362","6662009ae78f21dd82fcd179","66620a5f9474f26fc8eabba5","null","","null","","","","","","","","./tasks/HMM-beads/Images/WhiteBeadChoice.png","","","","","","","","","",""
"image-keyboard-response","117","179495","0.0-3.0-4.0-1.0-2.34","6307bee7b345c1bf0fb2f362","6662009ae78f21dd82fcd179","66620a5f9474f26fc8eabba5","null","","null","","","","","","","","./tasks/HMM-beads/Images/WhiteBeadChoiceCorrect.png","","","","","","","","","",""
"image-keyboard-response","118","179798","0.0-3.0-4.0-1.0-0.35","6307bee7b345c1bf0fb2f362","6662009ae78f21dd82fcd179","66620a5f9474f26fc8eabba5","302","","j","","","","","","","","./tasks/HMM-beads/Images/NewTrialWC.png","practice","0","35","1","1","1","1","true","",""
"image-keyboard-response","119","180108","0.0-3.0-4.0-1.0-1.35","6307bee7b345c1bf0fb2f362","6662009ae78f21dd82fcd179","66620a5f9474f26fc8eabba5","null","","null","","","","","","","","./tasks/HMM-beads/Images/WhiteBeadChoice.png","","","","","","","","","",""
"image-keyboard-response","120","180611","0.0-3.0-4.0-1.0-2.35","6307bee7b345c1bf0fb2f362","6662009ae78f21dd82fcd179","66620a5f9474f26fc8eabba5","null","","null","","","","","","","","./tasks/HMM-beads/Images/WhiteBeadChoiceCorrect.png","","","","","","","","","",""
"image-keyboard-response","121","180902","0.0-3.0-4.0-1.0-0.36","6307bee7b345c1bf0fb2f362","6662009ae78f21dd82fcd179","66620a5f9474f26fc8eabba5","289","","j","","","","","","","","./tasks/HMM-beads/Images/NewTrialWC.png","practice","0","36","1","0","1","1","false","",""
"image-keyboard-response","122","181208","0.0-3.0-4.0-1.0-1.36","6307bee7b345c1bf0fb2f362","6662009ae78f21dd82fcd179","66620a5f9474f26fc8eabba5","null","","null","","","","","","","","./tasks/HMM-beads/Images/WhiteBeadChoice.png","","","","","","","","","",""
"image-keyboard-response","123","181710","0.0-3.0-4.0-1.0-2.36","6307bee7b345c1bf0fb2f362","6662009ae78f21dd82fcd179","66620a5f9474f26fc8eabba5","null","","null","","","","","","","","./tasks/HMM-beads/Images/WhiteBeadChoiceWrong.png","","","","","","","","","",""
"image-keyboard-response","124","182022","0.0-3.0-4.0-1.0-0.37","6307bee7b345c1bf0fb2f362","6662009ae78f21dd82fcd179","66620a5f9474f26fc8eabba5","310","","j","","","","","","","","./tasks/HMM-beads/Images/NewTrialBC.png","practice","0","37","1","1","0","1","true","",""
"image-keyboard-response","125","182325","0.0-3.0-4.0-1.0-1.37","6307bee7b345c1bf0fb2f362","6662009ae78f21dd82fcd179","66620a5f9474f26fc8eabba5","null","","null","","","","","","","","./tasks/HMM-beads/Images/WhiteBeadChoice.png","","","","","","","","","",""
"image-keyboard-response","126","182827","0.0-3.0-4.0-1.0-2.37","6307bee7b345c1bf0fb2f362","6662009ae78f21dd82fcd179","66620a5f9474f26fc8eabba5","null","","null","","","","","","","","./tasks/HMM-beads/Images/WhiteBeadChoiceCorrect.png","","","","","","","","","",""
"image-keyboard-response","127","183030","0.0-3.0-4.0-1.0-0.38","6307bee7b345c1bf0fb2f362","6662009ae78f21dd82fcd179","66620a5f9474f26fc8eabba5","201","","j","","","","","","","","./tasks/HMM-beads/Images/NewTrialWC.png","practice","0","38","1","1","1","1","true","",""
"image-keyboard-response","128","183339","0.0-3.0-4.0-1.0-1.38","6307bee7b345c1bf0fb2f362","6662009ae78f21dd82fcd179","66620a5f9474f26fc8eabba5","null","","null","","","","","","","","./tasks/HMM-beads/Images/WhiteBeadChoice.png","","","","","","","","","",""
"image-keyboard-response","129","183843","0.0-3.0-4.0-1.0-2.38","6307bee7b345c1bf0fb2f362","6662009ae78f21dd82fcd179","66620a5f9474f26fc8eabba5","null","","null","","","","","","","","./tasks/HMM-beads/Images/WhiteBeadChoiceCorrect.png","","","","","","","","","",""
"image-keyboard-response","130","184054","0.0-3.0-4.0-1.0-0.39","6307bee7b345c1bf0fb2f362","6662009ae78f21dd82fcd179","66620a5f9474f26fc8eabba5","209","","j","","","","","","","","./tasks/HMM-beads/Images/NewTrialWC.png","practice","0","39","1","1","1","1","true","",""
"image-keyboard-response","131","184357","0.0-3.0-4.0-1.0-1.39","6307bee7b345c1bf0fb2f362","6662009ae78f21dd82fcd179","66620a5f9474f26fc8eabba5","null","","null","","","","","","","","./tasks/HMM-beads/Images/WhiteBeadChoice.png","","","","","","","","","",""
"image-keyboard-response","132","184859","0.0-3.0-4.0-1.0-2.39","6307bee7b345c1bf0fb2f362","6662009ae78f21dd82fcd179","66620a5f9474f26fc8eabba5","null","","null","","","","","","","","./tasks/HMM-beads/Images/WhiteBeadChoiceCorrect.png","","","","","","","","","",""
"html-keyboard-response","133","187078","0.0-3.0-4.0-2.0","6307bee7b345c1bf0fb2f362","6662009ae78f21dd82fcd179","66620a5f9474f26fc8eabba5","2218",""," ","","","","","","","","","","","","","","","","","",""
"instructions","134","193101","0.0-3.0-5.0","6307bee7b345c1bf0fb2f362","6662009ae78f21dd82fcd179","66620a5f9474f26fc8eabba5","6022","","","","[{""page_index"":0,""viewing_time"":3405},{""page_index"":1,""viewing_time"":2616}]","","","","","","","","","","","","","","","",""
"html-keyboard-response","135","194950","0.0-3.0-6.0-0.0","6307bee7b345c1bf0fb2f362","6662009ae78f21dd82fcd179","66620a5f9474f26fc8eabba5","1849",""," ","","","","","","","","<div align=center>In this block, there will be a <b>1% chance</b> that the jar on the next trial will be different from the jar on the current trial.<br><br></div>","","","","","","","","","",""
"image-keyboard-response","136","197367","0.0-3.0-6.0-1.0-0.0","6307bee7b345c1bf0fb2f362","6662009ae78f21dd82fcd179","66620a5f9474f26fc8eabba5","2416","","j","","","","","","","","./tasks/HMM-beads/Images/NoChoice.png","lowH","1","0","1","0","9","1","false","",""
"image-keyboard-response","137","197669","0.0-3.0-6.0-1.0-1.0","6307bee7b345c1bf0fb2f362","6662009ae78f21dd82fcd179","66620a5f9474f26fc8eabba5","null","","null","","","","","","","","./tasks/HMM-beads/Images/WhiteBeadChoice.png","","","","","","","","","",""
"image-keyboard-response","138","198173","0.0-3.0-6.0-1.0-2.0","6307bee7b345c1bf0fb2f362","6662009ae78f21dd82fcd179","66620a5f9474f26fc8eabba5","null","","null","","","","","","","","./tasks/HMM-beads/Images/WhiteBeadChoiceWrong.png","","","","","","","","","",""
"image-keyboard-response","139","201447","0.0-3.0-6.0-1.0-0.1","6307bee7b345c1bf0fb2f362","6662009ae78f21dd82fcd179","66620a5f9474f26fc8eabba5","3273","","j","","","","","","","","./tasks/HMM-beads/Images/NewTrialBC.png","lowH","1","1","1","1","0","1","true","",""
"image-keyboard-response","140","201751","0.0-3.0-6.0-1.0-1.1","6307bee7b345c1bf0fb2f362","6662009ae78f21dd82fcd179","66620a5f9474f26fc8eabba5","null","","null","","","","","","","","./tasks/HMM-beads/Images/WhiteBeadChoice.png","","","","","","","","","",""
"image-keyboard-response","141","202256","0.0-3.0-6.0-1.0-2.1","6307bee7b345c1bf0fb2f362","6662009ae78f21dd82fcd179","66620a5f9474f26fc8eabba5","null","","null","","","","","","","","./tasks/HMM-beads/Images/WhiteBeadChoiceCorrect.png","","","","","","","","","",""
"image-keyboard-response","142","215606","0.0-3.0-6.0-1.0-0.2","6307bee7b345c1bf0fb2f362","6662009ae78f21dd82fcd179","66620a5f9474f26fc8eabba5","13350","","j","","","","","","","","./tasks/HMM-beads/Images/NewTrialWC.png","lowH","1","2","1","1","1","1","true","",""
"image-keyboard-response","143","215914","0.0-3.0-6.0-1.0-1.2","6307bee7b345c1bf0fb2f362","6662009ae78f21dd82fcd179","66620a5f9474f26fc8eabba5","null","","null","","","","","","","","./tasks/HMM-beads/Images/WhiteBeadChoice.png","","","","","","","","","",""
"image-keyboard-response","144","216433","0.0-3.0-6.0-1.0-2.2","6307bee7b345c1bf0fb2f362","6662009ae78f21dd82fcd179","66620a5f9474f26fc8eabba5","null","","null","","","","","","","","./tasks/HMM-beads/Images/WhiteBeadChoiceCorrect.png","","","","","","","","","",""
"image-keyboard-response","145","217142","0.0-3.0-6.0-1.0-0.3","6307bee7b345c1bf0fb2f362","6662009ae78f21dd82fcd179","66620a5f9474f26fc8eabba5","706","","j","","","","","","","","./tasks/HMM-beads/Images/NewTrialWC.png","lowH","1","3","1","1","1","1","true","",""
"image-keyboard-response","146","217447","0.0-3.0-6.0-1.0-1.3","6307bee7b345c1bf0fb2f362","6662009ae78f21dd82fcd179","66620a5f9474f26fc8eabba5","null","","null","","","","","","","","./tasks/HMM-beads/Images/WhiteBeadChoice.png","","","","","","","","","",""
"image-keyboard-response","147","217951","0.0-3.0-6.0-1.0-2.3","6307bee7b345c1bf0fb2f362","6662009ae78f21dd82fcd179","66620a5f9474f26fc8eabba5","null","","null","","","","","","","","./tasks/HMM-beads/Images/WhiteBeadChoiceCorrect.png","","","","","","","","","",""
"image-keyboard-response","148","231750","0.0-3.0-6.0-1.0-0.4","6307bee7b345c1bf0fb2f362","6662009ae78f21dd82fcd179","66620a5f9474f26fc8eabba5","13798","","j","","","","","","","","./tasks/HMM-beads/Images/NewTrialWC.png","lowH","1","4","1","1","1","1","true","",""
"image-keyboard-response","149","232064","0.0-3.0-6.0-1.0-1.4","6307bee7b345c1bf0fb2f362","6662009ae78f21dd82fcd179","66620a5f9474f26fc8eabba5","null","","null","","","","","","","","./tasks/HMM-beads/Images/WhiteBeadChoice.png","","","","","","","","","",""
"image-keyboard-response","150","232580","0.0-3.0-6.0-1.0-2.4","6307bee7b345c1bf0fb2f362","6662009ae78f21dd82fcd179","66620a5f9474f26fc8eabba5","null","","null","","","","","","","","./tasks/HMM-beads/Images/WhiteBeadChoiceCorrect.png","","","","","","","","","",""
"image-keyboard-response","151","233014","0.0-3.0-6.0-1.0-0.5","6307bee7b345c1bf0fb2f362","6662009ae78f21dd82fcd179","66620a5f9474f26fc8eabba5","430","","j","","","","","","","","./tasks/HMM-beads/Images/NewTrialWC.png","lowH","1","5","1","1","1","1","true","",""
"image-keyboard-response","152","233315","0.0-3.0-6.0-1.0-1.5","6307bee7b345c1bf0fb2f362","6662009ae78f21dd82fcd179","66620a5f9474f26fc8eabba5","null","","null","","","","","","","","./tasks/HMM-beads/Images/WhiteBeadChoice.png","","","","","","","","","",""
"image-keyboard-response","153","233820","0.0-3.0-6.0-1.0-2.5","6307bee7b345c1bf0fb2f362","6662009ae78f21dd82fcd179","66620a5f9474f26fc8eabba5","null","","null","","","","","","","","./tasks/HMM-beads/Images/WhiteBeadChoiceCorrect.png","","","","","","","","","",""
"image-keyboard-response","154","239589","0.0-3.0-6.0-1.0-0.6","6307bee7b345c1bf0fb2f362","6662009ae78f21dd82fcd179","66620a5f9474f26fc8eabba5","5768","","j","","","","","","","","./tasks/HMM-beads/Images/NewTrialWC.png","lowH","1","6","1","0","1","1","false","",""
"image-keyboard-response","155","239907","0.0-3.0-6.0-1.0-1.6","6307bee7b345c1bf0fb2f362","6662009ae78f21dd82fcd179","66620a5f9474f26fc8eabba5","null","","null","","","","","","","","./tasks/HMM-beads/Images/WhiteBeadChoice.png","","","","","","","","","",""
"image-keyboard-response","156","240410","0.0-3.0-6.0-1.0-2.6","6307bee7b345c1bf0fb2f362","6662009ae78f21dd82fcd179","66620a5f9474f26fc8eabba5","null","","null","","","","","","","","./tasks/HMM-beads/Images/WhiteBeadChoiceWrong.png","","","","","","","","","",""
"image-keyboard-response","157","244566","0.0-3.0-6.0-1.0-0.7","6307bee7b345c1bf0fb2f362","6662009ae78f21dd82fcd179","66620a5f9474f26fc8eabba5","4155","","j","","","","","","","","./tasks/HMM-beads/Images/NewTrialBC.png","lowH","1","7","1","1","0","1","true","",""
"image-keyboard-response","158","244875","0.0-3.0-6.0-1.0-1.7","6307bee7b345c1bf0fb2f362","6662009ae78f21dd82fcd179","66620a5f9474f26fc8eabba5","null","","null","","","","","","","","./tasks/HMM-beads/Images/WhiteBeadChoice.png","","","","","","","","","",""
"image-keyboard-response","159","245390","0.0-3.0-6.0-1.0-2.7","6307bee7b345c1bf0fb2f362","6662009ae78f21dd82fcd179","66620a5f9474f26fc8eabba5","null","","null","","","","","","","","./tasks/HMM-beads/Images/WhiteBeadChoiceCorrect.png","","","","","","","","","",""
"image-keyboard-response","160","253125","0.0-3.0-6.0-1.0-0.8","6307bee7b345c1bf0fb2f362","6662009ae78f21dd82fcd179","66620a5f9474f26fc8eabba5","7734","","j","","","","","","","","./tasks/HMM-beads/Images/NewTrialWC.png","lowH","1","8","1","1","1","1","true","",""
"image-keyboard-response","161","253439","0.0-3.0-6.0-1.0-1.8","6307bee7b345c1bf0fb2f362","6662009ae78f21dd82fcd179","66620a5f9474f26fc8eabba5","null","","null","","","","","","","","./tasks/HMM-beads/Images/WhiteBeadChoice.png","","","","","","","","","",""
"image-keyboard-response","162","253958","0.0-3.0-6.0-1.0-2.8","6307bee7b345c1bf0fb2f362","6662009ae78f21dd82fcd179","66620a5f9474f26fc8eabba5","null","","null","","","","","","","","./tasks/HMM-beads/Images/WhiteBeadChoiceCorrect.png","","","","","","","","","",""
"image-keyboard-response","163","254069","0.0-3.0-6.0-1.0-0.9","6307bee7b345c1bf0fb2f362","6662009ae78f21dd82fcd179","66620a5f9474f26fc8eabba5","109","","j","","","","","","","","./tasks/HMM-beads/Images/NewTrialWC.png","lowH","1","9","1","1","1","1","true","",""
"image-keyboard-response","164","254384","0.0-3.0-6.0-1.0-1.9","6307bee7b345c1bf0fb2f362","6662009ae78f21dd82fcd179","66620a5f9474f26fc8eabba5","null","","null","","","","","","","","./tasks/HMM-beads/Images/WhiteBeadChoice.png","","","","","","","","","",""
"image-keyboard-response","165","254887","0.0-3.0-6.0-1.0-2.9","6307bee7b345c1bf0fb2f362","6662009ae78f21dd82fcd179","66620a5f9474f26fc8eabba5","null","","null","","","","","","","","./tasks/HMM-beads/Images/WhiteBeadChoiceCorrect.png","","","","","","","","","",""
"image-keyboard-response","166","255013","0.0-3.0-6.0-1.0-0.10","6307bee7b345c1bf0fb2f362","6662009ae78f21dd82fcd179","66620a5f9474f26fc8eabba5","124","","j","","","","","","","","./tasks/HMM-beads/Images/NewTrialWC.png","lowH","1","10","1","1","1","1","true","",""
"image-keyboard-response","167","255322","0.0-3.0-6.0-1.0-1.10","6307bee7b345c1bf0fb2f362","6662009ae78f21dd82fcd179","66620a5f9474f26fc8eabba5","null","","null","","","","","","","","./tasks/HMM-beads/Images/WhiteBeadChoice.png","","","","","","","","","",""
"image-keyboard-response","168","255837","0.0-3.0-6.0-1.0-2.10","6307bee7b345c1bf0fb2f362","6662009ae78f21dd82fcd179","66620a5f9474f26fc8eabba5","null","","null","","","","","","","","./tasks/HMM-beads/Images/WhiteBeadChoiceCorrect.png","","","","","","","","","",""
"image-keyboard-response","169","256309","0.0-3.0-6.0-1.0-0.11","6307bee7b345c1bf0fb2f362","6662009ae78f21dd82fcd179","66620a5f9474f26fc8eabba5","470","","j","","","","","","","","./tasks/HMM-beads/Images/NewTrialWC.png","lowH","1","11","1","1","1","1","true","",""
"image-keyboard-response","170","256614","0.0-3.0-6.0-1.0-1.11","6307bee7b345c1bf0fb2f362","6662009ae78f21dd82fcd179","66620a5f9474f26fc8eabba5","null","","null","","","","","","","","./tasks/HMM-beads/Images/WhiteBeadChoice.png","","","","","","","","","",""
"image-keyboard-response","171","257127","0.0-3.0-6.0-1.0-2.11","6307bee7b345c1bf0fb2f362","6662009ae78f21dd82fcd179","66620a5f9474f26fc8eabba5","null","","null","","","","","","","","./tasks/HMM-beads/Images/WhiteBeadChoiceCorrect.png","","","","","","","","","",""
"image-keyboard-response","172","258949","0.0-3.0-6.0-1.0-0.12","6307bee7b345c1bf0fb2f362","6662009ae78f21dd82fcd179","66620a5f9474f26fc8eabba5","1821","","j","","","","","","","","./tasks/HMM-beads/Images/NewTrialWC.png","lowH","1","12","1","1","1","1","true","",""
"image-keyboard-response","173","259261","0.0-3.0-6.0-1.0-1.12","6307bee7b345c1bf0fb2f362","6662009ae78f21dd82fcd179","66620a5f9474f26fc8eabba5","null","","null","","","","","","","","./tasks/HMM-beads/Images/WhiteBeadChoice.png","","","","","","","","","",""
"image-keyboard-response","174","259765","0.0-3.0-6.0-1.0-2.12","6307bee7b345c1bf0fb2f362","6662009ae78f21dd82fcd179","66620a5f9474f26fc8eabba5","null","","null","","","","","","","","./tasks/HMM-beads/Images/WhiteBeadChoiceCorrect.png","","","","","","","","","",""
"image-keyboard-response","175","260293","0.0-3.0-6.0-1.0-0.13","6307bee7b345c1bf0fb2f362","6662009ae78f21dd82fcd179","66620a5f9474f26fc8eabba5","525","","j","","","","","","","","./tasks/HMM-beads/Images/NewTrialWC.png","lowH","1","13","1","0","1","1","false","",""
"image-keyboard-response","176","260604","0.0-3.0-6.0-1.0-1.13","6307bee7b345c1bf0fb2f362","6662009ae78f21dd82fcd179","66620a5f9474f26fc8eabba5","null","","null","","","","","","","","./tasks/HMM-beads/Images/WhiteBeadChoice.png","","","","","","","","","",""
"image-keyboard-response","177","261115","0.0-3.0-6.0-1.0-2.13","6307bee7b345c1bf0fb2f362","6662009ae78f21dd82fcd179","66620a5f9474f26fc8eabba5","null","","null","","","","","","","","./tasks/HMM-beads/Images/WhiteBeadChoiceWrong.png","","","","","","","","","",""
"image-keyboard-response","178","262789","0.0-3.0-6.0-1.0-0.14","6307bee7b345c1bf0fb2f362","6662009ae78f21dd82fcd179","66620a5f9474f26fc8eabba5","1674","","j","","","","","","","","./tasks/HMM-beads/Images/NewTrialBC.png","lowH","1","14","1","0","0","1","false","",""
"image-keyboard-response","179","263101","0.0-3.0-6.0-1.0-1.14","6307bee7b345c1bf0fb2f362","6662009ae78f21dd82fcd179","66620a5f9474f26fc8eabba5","null","","null","","","","","","","","./tasks/HMM-beads/Images/WhiteBeadChoice.png","","","","","","","","","",""
"image-keyboard-response","180","263611","0.0-3.0-6.0-1.0-2.14","6307bee7b345c1bf0fb2f362","6662009ae78f21dd82fcd179","66620a5f9474f26fc8eabba5","null","","null","","","","","","","","./tasks/HMM-beads/Images/WhiteBeadChoiceWrong.png","","","","","","","","","",""
"image-keyboard-response","181","264549","0.0-3.0-6.0-1.0-0.15","6307bee7b345c1bf0fb2f362","6662009ae78f21dd82fcd179","66620a5f9474f26fc8eabba5","935","","j","","","","","","","","./tasks/HMM-beads/Images/NewTrialBC.png","lowH","1","15","1","1","0","1","true","",""
"image-keyboard-response","182","264856","0.0-3.0-6.0-1.0-1.15","6307bee7b345c1bf0fb2f362","6662009ae78f21dd82fcd179","66620a5f9474f26fc8eabba5","null","","null","","","","","","","","./tasks/HMM-beads/Images/WhiteBeadChoice.png","","","","","","","","","",""
"image-keyboard-response","183","265367","0.0-3.0-6.0-1.0-2.15","6307bee7b345c1bf0fb2f362","6662009ae78f21dd82fcd179","66620a5f9474f26fc8eabba5","null","","null","","","","","","","","./tasks/HMM-beads/Images/WhiteBeadChoiceCorrect.png","","","","","","","","","",""
"image-keyboard-response","184","266149","0.0-3.0-6.0-1.0-0.16","6307bee7b345c1bf0fb2f362","6662009ae78f21dd82fcd179","66620a5f9474f26fc8eabba5","781","","j","","","","","","","","./tasks/HMM-beads/Images/NewTrialWC.png","lowH","1","16","1","1","1","1","true","",""
"image-keyboard-response","185","266466","0.0-3.0-6.0-1.0-1.16","6307bee7b345c1bf0fb2f362","6662009ae78f21dd82fcd179","66620a5f9474f26fc8eabba5","null","","null","","","","","","","","./tasks/HMM-beads/Images/WhiteBeadChoice.png","","","","","","","","","",""
"image-keyboard-response","186","266980","0.0-3.0-6.0-1.0-2.16","6307bee7b345c1bf0fb2f362","6662009ae78f21dd82fcd179","66620a5f9474f26fc8eabba5","null","","null","","","","","","","","./tasks/HMM-beads/Images/WhiteBeadChoiceCorrect.png","","","","","","","","","",""
"image-keyboard-response","187","267445","0.0-3.0-6.0-1.0-0.17","6307bee7b345c1bf0fb2f362","6662009ae78f21dd82fcd179","66620a5f9474f26fc8eabba5","463","","j","","","","","","","","./tasks/HMM-beads/Images/NewTrialWC.png","lowH","1","17","1","1","1","1","true","",""
"image-keyboard-response","188","267748","0.0-3.0-6.0-1.0-1.17","6307bee7b345c1bf0fb2f362","6662009ae78f21dd82fcd179","66620a5f9474f26fc8eabba5","null","","null","","","","","","","","./tasks/HMM-beads/Images/WhiteBeadChoice.png","","","","","","","","","",""
"image-keyboard-response","189","268264","0.0-3.0-6.0-1.0-2.17","6307bee7b345c1bf0fb2f362","6662009ae78f21dd82fcd179","66620a5f9474f26fc8eabba5","null","","null","","","","","","","","./tasks/HMM-beads/Images/WhiteBeadChoiceCorrect.png","","","","","","","","","",""
"image-keyboard-response","190","268613","0.0-3.0-6.0-1.0-0.18","6307bee7b345c1bf0fb2f362","6662009ae78f21dd82fcd179","66620a5f9474f26fc8eabba5","348","","j","","","","","","","","./tasks/HMM-beads/Images/NewTrialWC.png","lowH","1","18","1","1","1","1","true","",""
"image-keyboard-response","191","268920","0.0-3.0-6.0-1.0-1.18","6307bee7b345c1bf0fb2f362","6662009ae78f21dd82fcd179","66620a5f9474f26fc8eabba5","null","","null","","","","","","","","./tasks/HMM-beads/Images/WhiteBeadChoice.png","","","","","","","","","",""
"image-keyboard-response","192","269431","0.0-3.0-6.0-1.0-2.18","6307bee7b345c1bf0fb2f362","6662009ae78f21dd82fcd179","66620a5f9474f26fc8eabba5","null","","null","","","","","","","","./tasks/HMM-beads/Images/WhiteBeadChoiceCorrect.png","","","","","","","","","",""
"image-keyboard-response","193","269845","0.0-3.0-6.0-1.0-0.19","6307bee7b345c1bf0fb2f362","6662009ae78f21dd82fcd179","66620a5f9474f26fc8eabba5","410","","j","","","","","","","","./tasks/HMM-beads/Images/NewTrialWC.png","lowH","1","19","1","1","1","1","true","",""
"image-keyboard-response","194","270148","0.0-3.0-6.0-1.0-1.19","6307bee7b345c1bf0fb2f362","6662009ae78f21dd82fcd179","66620a5f9474f26fc8eabba5","null","","null","","","","","","","","./tasks/HMM-beads/Images/WhiteBeadChoice.png","","","","","","","","","",""
"image-keyboard-response","195","270666","0.0-3.0-6.0-1.0-2.19","6307bee7b345c1bf0fb2f362","6662009ae78f21dd82fcd179","66620a5f9474f26fc8eabba5","null","","null","","","","","","","","./tasks/HMM-beads/Images/WhiteBeadChoiceCorrect.png","","","","","","","","","",""
"image-keyboard-response","196","270997","0.0-3.0-6.0-1.0-0.20","6307bee7b345c1bf0fb2f362","6662009ae78f21dd82fcd179","66620a5f9474f26fc8eabba5","328","","j","","","","","","","","./tasks/HMM-beads/Images/NewTrialWC.png","lowH","1","20","1","1","1","1","true","",""
"image-keyboard-response","197","271312","0.0-3.0-6.0-1.0-1.20","6307bee7b345c1bf0fb2f362","6662009ae78f21dd82fcd179","66620a5f9474f26fc8eabba5","null","","null","","","","","","","","./tasks/HMM-beads/Images/WhiteBeadChoice.png","","","","","","","","","",""
"image-keyboard-response","198","271814","0.0-3.0-6.0-1.0-2.20","6307bee7b345c1bf0fb2f362","6662009ae78f21dd82fcd179","66620a5f9474f26fc8eabba5","null","","null","","","","","","","","./tasks/HMM-beads/Images/WhiteBeadChoiceCorrect.png","","","","","","","","","",""
"image-keyboard-response","199","272261","0.0-3.0-6.0-1.0-0.21","6307bee7b345c1bf0fb2f362","6662009ae78f21dd82fcd179","66620a5f9474f26fc8eabba5","444","","j","","","","","","","","./tasks/HMM-beads/Images/NewTrialWC.png","lowH","1","21","1","1","1","1","true","",""
"image-keyboard-response","200","272576","0.0-3.0-6.0-1.0-1.21","6307bee7b345c1bf0fb2f362","6662009ae78f21dd82fcd179","66620a5f9474f26fc8eabba5","null","","null","","","","","","","","./tasks/HMM-beads/Images/WhiteBeadChoice.png","","","","","","","","","",""
"image-keyboard-response","201","273088","0.0-3.0-6.0-1.0-2.21","6307bee7b345c1bf0fb2f362","6662009ae78f21dd82fcd179","66620a5f9474f26fc8eabba5","null","","null","","","","","","","","./tasks/HMM-beads/Images/WhiteBeadChoiceCorrect.png","","","","","","","","","",""
"image-keyboard-response","202","273461","0.0-3.0-6.0-1.0-0.22","6307bee7b345c1bf0fb2f362","6662009ae78f21dd82fcd179","66620a5f9474f26fc8eabba5","370","","j","","","","","","","","./tasks/HMM-beads/Images/NewTrialWC.png","lowH","1","22","1","1","1","1","true","",""
"image-keyboard-response","203","273778","0.0-3.0-6.0-1.0-1.22","6307bee7b345c1bf0fb2f362","6662009ae78f21dd82fcd179","66620a5f9474f26fc8eabba5","null","","null","","","","","","","","./tasks/HMM-beads/Images/WhiteBeadChoice.png","","","","","","","","","",""
"image-keyboard-response","204","274283","0.0-3.0-6.0-1.0-2.22","6307bee7b345c1bf0fb2f362","6662009ae78f21dd82fcd179","66620a5f9474f26fc8eabba5","null","","null","","","","","","","","./tasks/HMM-beads/Images/WhiteBeadChoiceCorrect.png","","","","","","","","","",""
"image-keyboard-response","205","274805","0.0-3.0-6.0-1.0-0.23","6307bee7b345c1bf0fb2f362","6662009ae78f21dd82fcd179","66620a5f9474f26fc8eabba5","521","","j","","","","","","","","./tasks/HMM-beads/Images/NewTrialWC.png","lowH","1","23","1","1","1","1","true","",""
"image-keyboard-response","206","275118","0.0-3.0-6.0-1.0-1.23","6307bee7b345c1bf0fb2f362","6662009ae78f21dd82fcd179","66620a5f9474f26fc8eabba5","null","","null","","","","","","","","./tasks/HMM-beads/Images/WhiteBeadChoice.png","","","","","","","","","",""
"image-keyboard-response","207","275634","0.0-3.0-6.0-1.0-2.23","6307bee7b345c1bf0fb2f362","6662009ae78f21dd82fcd179","66620a5f9474f26fc8eabba5","null","","null","","","","","","","","./tasks/HMM-beads/Images/WhiteBeadChoiceCorrect.png","","","","","","","","","",""
"image-keyboard-response","208","276101","0.0-3.0-6.0-1.0-0.24","6307bee7b345c1bf0fb2f362","6662009ae78f21dd82fcd179","66620a5f9474f26fc8eabba5","465","","j","","","","","","","","./tasks/HMM-beads/Images/NewTrialWC.png","lowH","1","24","1","0","1","1","false","",""
"image-keyboard-response","209","276417","0.0-3.0-6.0-1.0-1.24","6307bee7b345c1bf0fb2f362","6662009ae78f21dd82fcd179","66620a5f9474f26fc8eabba5","null","","null","","","","","","","","./tasks/HMM-beads/Images/WhiteBeadChoice.png","","","","","","","","","",""
"image-keyboard-response","210","276927","0.0-3.0-6.0-1.0-2.24","6307bee7b345c1bf0fb2f362","6662009ae78f21dd82fcd179","66620a5f9474f26fc8eabba5","null","","null","","","","","","","","./tasks/HMM-beads/Images/WhiteBeadChoiceWrong.png","","","","","","","","","",""
"image-keyboard-response","211","280069","0.0-3.0-6.0-1.0-0.25","6307bee7b345c1bf0fb2f362","6662009ae78f21dd82fcd179","66620a5f9474f26fc8eabba5","3141","","f","","","","","","","","./tasks/HMM-beads/Images/NewTrialBC.png","lowH","1","25","1","1","0","0","false","",""
"image-keyboard-response","212","280383","0.0-3.0-6.0-1.0-1.25","6307bee7b345c1bf0fb2f362","6662009ae78f21dd82fcd179","66620a5f9474f26fc8eabba5","null","","null","","","","","","","","./tasks/HMM-beads/Images/BlackBeadChoice.png","","","","","","","","","",""
"image-keyboard-response","213","280898","0.0-3.0-6.0-1.0-2.25","6307bee7b345c1bf0fb2f362","6662009ae78f21dd82fcd179","66620a5f9474f26fc8eabba5","null","","null","","","","","","","","./tasks/HMM-beads/Images/BlackBeadChoiceWrong.png","","","","","","","","","",""
"image-keyboard-response","214","281317","0.0-3.0-6.0-1.0-0.26","6307bee7b345c1bf0fb2f362","6662009ae78f21dd82fcd179","66620a5f9474f26fc8eabba5","418","","f","","","","","","","","./tasks/HMM-beads/Images/NewTrialWC.png","lowH","1","26","1","0","1","0","true","",""
"image-keyboard-response","215","281631","0.0-3.0-6.0-1.0-1.26","6307bee7b345c1bf0fb2f362","6662009ae78f21dd82fcd179","66620a5f9474f26fc8eabba5","null","","null","","","","","","","","./tasks/HMM-beads/Images/BlackBeadChoice.png","","","","","","","","","",""
"image-keyboard-response","216","282147","0.0-3.0-6.0-1.0-2.26","6307bee7b345c1bf0fb2f362","6662009ae78f21dd82fcd179","66620a5f9474f26fc8eabba5","null","","null","","","","","","","","./tasks/HMM-beads/Images/BlackBeadChoiceCorrect.png","","","","","","","","","",""
"image-keyboard-response","217","282580","0.0-3.0-6.0-1.0-0.27","6307bee7b345c1bf0fb2f362","6662009ae78f21dd82fcd179","66620a5f9474f26fc8eabba5","430","","f","","","","","","","","./tasks/HMM-beads/Images/NewTrialBC.png","lowH","1","27","1","1","0","0","false","",""
"image-keyboard-response","218","282894","0.0-3.0-6.0-1.0-1.27","6307bee7b345c1bf0fb2f362","6662009ae78f21dd82fcd179","66620a5f9474f26fc8eabba5","null","","null","","","","","","","","./tasks/HMM-beads/Images/BlackBeadChoice.png","","","","","","","","","",""
"image-keyboard-response","219","283407","0.0-3.0-6.0-1.0-2.27","6307bee7b345c1bf0fb2f362","6662009ae78f21dd82fcd179","66620a5f9474f26fc8eabba5","null","","null","","","","","","","","./tasks/HMM-beads/Images/BlackBeadChoiceWrong.png","","","","","","","","","",""
"image-keyboard-response","220","283764","0.0-3.0-6.0-1.0-0.28","6307bee7b345c1bf0fb2f362","6662009ae78f21dd82fcd179","66620a5f9474f26fc8eabba5","357","","f","","","","","","","","./tasks/HMM-beads/Images/NewTrialWC.png","lowH","1","28","1","1","1","0","false","",""
"image-keyboard-response","221","284080","0.0-3.0-6.0-1.0-1.28","6307bee7b345c1bf0fb2f362","6662009ae78f21dd82fcd179","66620a5f9474f26fc8eabba5","null","","null","","","","","","","","./tasks/HMM-beads/Images/BlackBeadChoice.png","","","","","","","","","",""
"image-keyboard-response","222","284597","0.0-3.0-6.0-1.0-2.28","6307bee7b345c1bf0fb2f362","6662009ae78f21dd82fcd179","66620a5f9474f26fc8eabba5","null","","null","","","","","","","","./tasks/HMM-beads/Images/BlackBeadChoiceWrong.png","","","","","","","","","",""
"image-keyboard-response","223","284821","0.0-3.0-6.0-1.0-0.29","6307bee7b345c1bf0fb2f362","6662009ae78f21dd82fcd179","66620a5f9474f26fc8eabba5","222","","j","","","","","","","","./tasks/HMM-beads/Images/NewTrialWC.png","lowH","1","29","1","1","1","1","true","",""
"image-keyboard-response","224","285137","0.0-3.0-6.0-1.0-1.29","6307bee7b345c1bf0fb2f362","6662009ae78f21dd82fcd179","66620a5f9474f26fc8eabba5","null","","null","","","","","","","","./tasks/HMM-beads/Images/WhiteBeadChoice.png","","","","","","","","","",""
"image-keyboard-response","225","285652","0.0-3.0-6.0-1.0-2.29","6307bee7b345c1bf0fb2f362","6662009ae78f21dd82fcd179","66620a5f9474f26fc8eabba5","null","","null","","","","","","","","./tasks/HMM-beads/Images/WhiteBeadChoiceCorrect.png","","","","","","","","","",""
"image-keyboard-response","226","285877","0.0-3.0-6.0-1.0-0.30","6307bee7b345c1bf0fb2f362","6662009ae78f21dd82fcd179","66620a5f9474f26fc8eabba5","224","","j","","","","","","","","./tasks/HMM-beads/Images/NewTrialWC.png","lowH","1","30","1","1","1","1","true","",""
"image-keyboard-response","227","286181","0.0-3.0-6.0-1.0-1.30","6307bee7b345c1bf0fb2f362","6662009ae78f21dd82fcd179","66620a5f9474f26fc8eabba5","null","","null","","","","","","","","./tasks/HMM-beads/Images/WhiteBeadChoice.png","","","","","","","","","",""
"image-keyboard-response","228","286694","0.0-3.0-6.0-1.0-2.30","6307bee7b345c1bf0fb2f362","6662009ae78f21dd82fcd179","66620a5f9474f26fc8eabba5","null","","null","","","","","","","","./tasks/HMM-beads/Images/WhiteBeadChoiceCorrect.png","","","","","","","","","",""
"image-keyboard-response","229","286917","0.0-3.0-6.0-1.0-0.31","6307bee7b345c1bf0fb2f362","6662009ae78f21dd82fcd179","66620a5f9474f26fc8eabba5","219","","j","","","","","","","","./tasks/HMM-beads/Images/NewTrialWC.png","lowH","1","31","1","1","1","1","true","",""
"image-keyboard-response","230","287225","0.0-3.0-6.0-1.0-1.31","6307bee7b345c1bf0fb2f362","6662009ae78f21dd82fcd179","66620a5f9474f26fc8eabba5","null","","null","","","","","","","","./tasks/HMM-beads/Images/WhiteBeadChoice.png","","","","","","","","","",""
"image-keyboard-response","231","287738","0.0-3.0-6.0-1.0-2.31","6307bee7b345c1bf0fb2f362","6662009ae78f21dd82fcd179","66620a5f9474f26fc8eabba5","null","","null","","","","","","","","./tasks/HMM-beads/Images/WhiteBeadChoiceCorrect.png","","","","","","","","","",""
"image-keyboard-response","232","287956","0.0-3.0-6.0-1.0-0.32","6307bee7b345c1bf0fb2f362","6662009ae78f21dd82fcd179","66620a5f9474f26fc8eabba5","218","","j","","","","","","","","./tasks/HMM-beads/Images/NewTrialWC.png","lowH","1","32","1","1","1","1","true","",""
"image-keyboard-response","233","288270","0.0-3.0-6.0-1.0-1.32","6307bee7b345c1bf0fb2f362","6662009ae78f21dd82fcd179","66620a5f9474f26fc8eabba5","null","","null","","","","","","","","./tasks/HMM-beads/Images/WhiteBeadChoice.png","","","","","","","","","",""
"image-keyboard-response","234","288787","0.0-3.0-6.0-1.0-2.32","6307bee7b345c1bf0fb2f362","6662009ae78f21dd82fcd179","66620a5f9474f26fc8eabba5","null","","null","","","","","","","","./tasks/HMM-beads/Images/WhiteBeadChoiceCorrect.png","","","","","","","","","",""
"image-keyboard-response","235","289140","0.0-3.0-6.0-1.0-0.33","6307bee7b345c1bf0fb2f362","6662009ae78f21dd82fcd179","66620a5f9474f26fc8eabba5","352","","j","","","","","","","","./tasks/HMM-beads/Images/NewTrialWC.png","lowH","1","33","1","1","1","1","true","",""
"image-keyboard-response","236","289449","0.0-3.0-6.0-1.0-1.33","6307bee7b345c1bf0fb2f362","6662009ae78f21dd82fcd179","66620a5f9474f26fc8eabba5","null","","null","","","","","","","","./tasks/HMM-beads/Images/WhiteBeadChoice.png","","","","","","","","","",""
"image-keyboard-response","237","289964","0.0-3.0-6.0-1.0-2.33","6307bee7b345c1bf0fb2f362","6662009ae78f21dd82fcd179","66620a5f9474f26fc8eabba5","null","","null","","","","","","","","./tasks/HMM-beads/Images/WhiteBeadChoiceCorrect.png","","","","","","","","","",""
"image-keyboard-response","238","293524","0.0-3.0-6.0-1.0-0.34","6307bee7b345c1bf0fb2f362","6662009ae78f21dd82fcd179","66620a5f9474f26fc8eabba5","3559","","j","","","","","","","","./tasks/HMM-beads/Images/NewTrialWC.png","lowH","1","34","1","1","1","1","true","",""
"image-keyboard-response","239","293829","0.0-3.0-6.0-1.0-1.34","6307bee7b345c1bf0fb2f362","6662009ae78f21dd82fcd179","66620a5f9474f26fc8eabba5","null","","null","","","","","","","","./tasks/HMM-beads/Images/WhiteBeadChoice.png","","","","","","","","","",""
"image-keyboard-response","240","294342","0.0-3.0-6.0-1.0-2.34","6307bee7b345c1bf0fb2f362","6662009ae78f21dd82fcd179","66620a5f9474f26fc8eabba5","null","","null","","","","","","","","./tasks/HMM-beads/Images/WhiteBeadChoiceCorrect.png","","","","","","","","","",""
"image-keyboard-response","241","294740","0.0-3.0-6.0-1.0-0.35","6307bee7b345c1bf0fb2f362","6662009ae78f21dd82fcd179","66620a5f9474f26fc8eabba5","396","","j","","","","","","","","./tasks/HMM-beads/Images/NewTrialWC.png","lowH","1","35","1","1","1","1","true","",""
"image-keyboard-response","242","295043","0.0-3.0-6.0-1.0-1.35","6307bee7b345c1bf0fb2f362","6662009ae78f21dd82fcd179","66620a5f9474f26fc8eabba5","null","","null","","","","","","","","./tasks/HMM-beads/Images/WhiteBeadChoice.png","","","","","","","","","",""
"image-keyboard-response","243","295559","0.0-3.0-6.0-1.0-2.35","6307bee7b345c1bf0fb2f362","6662009ae78f21dd82fcd179","66620a5f9474f26fc8eabba5","null","","null","","","","","","","","./tasks/HMM-beads/Images/WhiteBeadChoiceCorrect.png","","","","","","","","","",""
"image-keyboard-response","244","295988","0.0-3.0-6.0-1.0-0.36","6307bee7b345c1bf0fb2f362","6662009ae78f21dd82fcd179","66620a5f9474f26fc8eabba5","428","","j","","","","","","","","./tasks/HMM-beads/Images/NewTrialWC.png","lowH","1","36","1","1","1","1","true","",""
"image-keyboard-response","245","296294","0.0-3.0-6.0-1.0-1.36","6307bee7b345c1bf0fb2f362","6662009ae78f21dd82fcd179","66620a5f9474f26fc8eabba5","null","","null","","","","","","","","./tasks/HMM-beads/Images/WhiteBeadChoice.png","","","","","","","","","",""
"image-keyboard-response","246","296807","0.0-3.0-6.0-1.0-2.36","6307bee7b345c1bf0fb2f362","6662009ae78f21dd82fcd179","66620a5f9474f26fc8eabba5","null","","null","","","","","","","","./tasks/HMM-beads/Images/WhiteBeadChoiceCorrect.png","","","","","","","","","",""
"image-keyboard-response","247","297749","0.0-3.0-6.0-1.0-0.37","6307bee7b345c1bf0fb2f362","6662009ae78f21dd82fcd179","66620a5f9474f26fc8eabba5","938","","j","","","","","","","","./tasks/HMM-beads/Images/NewTrialWC.png","lowH","1","37","1","1","1","1","true","",""
"image-keyboard-response","248","298058","0.0-3.0-6.0-1.0-1.37","6307bee7b345c1bf0fb2f362","6662009ae78f21dd82fcd179","66620a5f9474f26fc8eabba5","null","","null","","","","","","","","./tasks/HMM-beads/Images/WhiteBeadChoice.png","","","","","","","","","",""
"image-keyboard-response","249","298570","0.0-3.0-6.0-1.0-2.37","6307bee7b345c1bf0fb2f362","6662009ae78f21dd82fcd179","66620a5f9474f26fc8eabba5","null","","null","","","","","","","","./tasks/HMM-beads/Images/WhiteBeadChoiceCorrect.png","","","","","","","","","",""
"image-keyboard-response","250","299141","0.0-3.0-6.0-1.0-0.38","6307bee7b345c1bf0fb2f362","6662009ae78f21dd82fcd179","66620a5f9474f26fc8eabba5","569","","j","","","","","","","","./tasks/HMM-beads/Images/NewTrialWC.png","lowH","1","38","1","1","1","1","true","",""
"image-keyboard-response","251","299454","0.0-3.0-6.0-1.0-1.38","6307bee7b345c1bf0fb2f362","6662009ae78f21dd82fcd179","66620a5f9474f26fc8eabba5","null","","null","","","","","","","","./tasks/HMM-beads/Images/WhiteBeadChoice.png","","","","","","","","","",""
"image-keyboard-response","252","299957","0.0-3.0-6.0-1.0-2.38","6307bee7b345c1bf0fb2f362","6662009ae78f21dd82fcd179","66620a5f9474f26fc8eabba5","null","","null","","","","","","","","./tasks/HMM-beads/Images/WhiteBeadChoiceCorrect.png","","","","","","","","","",""
"image-keyboard-response","253","300374","0.0-3.0-6.0-1.0-0.39","6307bee7b345c1bf0fb2f362","6662009ae78f21dd82fcd179","66620a5f9474f26fc8eabba5","414","","j","","","","","","","","./tasks/HMM-beads/Images/NewTrialWC.png","lowH","1","39","1","1","1","1","true","",""
"image-keyboard-response","254","300692","0.0-3.0-6.0-1.0-1.39","6307bee7b345c1bf0fb2f362","6662009ae78f21dd82fcd179","66620a5f9474f26fc8eabba5","null","","null","","","","","","","","./tasks/HMM-beads/Images/WhiteBeadChoice.png","","","","","","","","","",""
"image-keyboard-response","255","301207","0.0-3.0-6.0-1.0-2.39","6307bee7b345c1bf0fb2f362","6662009ae78f21dd82fcd179","66620a5f9474f26fc8eabba5","null","","null","","","","","","","","./tasks/HMM-beads/Images/WhiteBeadChoiceCorrect.png","","","","","","","","","",""
"image-keyboard-response","256","304982","0.0-3.0-6.0-1.0-0.40","6307bee7b345c1bf0fb2f362","6662009ae78f21dd82fcd179","66620a5f9474f26fc8eabba5","3774","","j","","","","","","","","./tasks/HMM-beads/Images/NewTrialWC.png","lowH","1","40","1","1","1","1","true","",""
"image-keyboard-response","257","305295","0.0-3.0-6.0-1.0-1.40","6307bee7b345c1bf0fb2f362","6662009ae78f21dd82fcd179","66620a5f9474f26fc8eabba5","null","","null","","","","","","","","./tasks/HMM-beads/Images/WhiteBeadChoice.png","","","","","","","","","",""
"image-keyboard-response","258","305805","0.0-3.0-6.0-1.0-2.40","6307bee7b345c1bf0fb2f362","6662009ae78f21dd82fcd179","66620a5f9474f26fc8eabba5","null","","null","","","","","","","","./tasks/HMM-beads/Images/WhiteBeadChoiceCorrect.png","","","","","","","","","",""
"image-keyboard-response","259","306901","0.0-3.0-6.0-1.0-0.41","6307bee7b345c1bf0fb2f362","6662009ae78f21dd82fcd179","66620a5f9474f26fc8eabba5","1095","","j","","","","","","","","./tasks/HMM-beads/Images/NewTrialWC.png","lowH","1","41","1","1","1","1","true","",""
"image-keyboard-response","260","307208","0.0-3.0-6.0-1.0-1.41","6307bee7b345c1bf0fb2f362","6662009ae78f21dd82fcd179","66620a5f9474f26fc8eabba5","null","","null","","","","","","","","./tasks/HMM-beads/Images/WhiteBeadChoice.png","","","","","","","","","",""
"image-keyboard-response","261","307723","0.0-3.0-6.0-1.0-2.41","6307bee7b345c1bf0fb2f362","6662009ae78f21dd82fcd179","66620a5f9474f26fc8eabba5","null","","null","","","","","","","","./tasks/HMM-beads/Images/WhiteBeadChoiceCorrect.png","","","","","","","","","",""
"image-keyboard-response","262","308053","0.0-3.0-6.0-1.0-0.42","6307bee7b345c1bf0fb2f362","6662009ae78f21dd82fcd179","66620a5f9474f26fc8eabba5","328","","j","","","","","","","","./tasks/HMM-beads/Images/NewTrialWC.png","lowH","1","42","1","1","1","1","true","",""
"image-keyboard-response","263","308359","0.0-3.0-6.0-1.0-1.42","6307bee7b345c1bf0fb2f362","6662009ae78f21dd82fcd179","66620a5f9474f26fc8eabba5","null","","null","","","","","","","","./tasks/HMM-beads/Images/WhiteBeadChoice.png","","","","","","","","","",""
"image-keyboard-response","264","308869","0.0-3.0-6.0-1.0-2.42","6307bee7b345c1bf0fb2f362","6662009ae78f21dd82fcd179","66620a5f9474f26fc8eabba5","null","","null","","","","","","","","./tasks/HMM-beads/Images/WhiteBeadChoiceCorrect.png","","","","","","","","","",""
"image-keyboard-response","265","309182","0.0-3.0-6.0-1.0-0.43","6307bee7b345c1bf0fb2f362","6662009ae78f21dd82fcd179","66620a5f9474f26fc8eabba5","312","","j","","","","","","","","./tasks/HMM-beads/Images/NewTrialWC.png","lowH","1","43","1","1","1","1","true","",""
"image-keyboard-response","266","309483","0.0-3.0-6.0-1.0-1.43","6307bee7b345c1bf0fb2f362","6662009ae78f21dd82fcd179","66620a5f9474f26fc8eabba5","null","","null","","","","","","","","./tasks/HMM-beads/Images/WhiteBeadChoice.png","","","","","","","","","",""
"image-keyboard-response","267","310001","0.0-3.0-6.0-1.0-2.43","6307bee7b345c1bf0fb2f362","6662009ae78f21dd82fcd179","66620a5f9474f26fc8eabba5","null","","null","","","","","","","","./tasks/HMM-beads/Images/WhiteBeadChoiceCorrect.png","","","","","","","","","",""
"image-keyboard-response","268","310037","0.0-3.0-6.0-1.0-0.44","6307bee7b345c1bf0fb2f362","6662009ae78f21dd82fcd179","66620a5f9474f26fc8eabba5","36","","j","","","","","","","","./tasks/HMM-beads/Images/NewTrialWC.png","lowH","1","44","1","1","1","1","true","",""
"image-keyboard-response","269","310345","0.0-3.0-6.0-1.0-1.44","6307bee7b345c1bf0fb2f362","6662009ae78f21dd82fcd179","66620a5f9474f26fc8eabba5","null","","null","","","","","","","","./tasks/HMM-beads/Images/WhiteBeadChoice.png","","","","","","","","","",""
"image-keyboard-response","270","310850","0.0-3.0-6.0-1.0-2.44","6307bee7b345c1bf0fb2f362","6662009ae78f21dd82fcd179","66620a5f9474f26fc8eabba5","null","","null","","","","","","","","./tasks/HMM-beads/Images/WhiteBeadChoiceCorrect.png","","","","","","","","","",""
"image-keyboard-response","271","311221","0.0-3.0-6.0-1.0-0.45","6307bee7b345c1bf0fb2f362","6662009ae78f21dd82fcd179","66620a5f9474f26fc8eabba5","369","","j","","","","","","","","./tasks/HMM-beads/Images/NewTrialWC.png","lowH","1","45","1","1","1","1","true","",""
"image-keyboard-response","272","311530","0.0-3.0-6.0-1.0-1.45","6307bee7b345c1bf0fb2f362","6662009ae78f21dd82fcd179","66620a5f9474f26fc8eabba5","null","","null","","","","","","","","./tasks/HMM-beads/Images/WhiteBeadChoice.png","","","","","","","","","",""
"image-keyboard-response","273","312044","0.0-3.0-6.0-1.0-2.45","6307bee7b345c1bf0fb2f362","6662009ae78f21dd82fcd179","66620a5f9474f26fc8eabba5","null","","null","","","","","","","","./tasks/HMM-beads/Images/WhiteBeadChoiceCorrect.png","","","","","","","","","",""
"image-keyboard-response","274","313013","0.0-3.0-6.0-1.0-0.46","6307bee7b345c1bf0fb2f362","6662009ae78f21dd82fcd179","66620a5f9474f26fc8eabba5","967","","j","","","","","","","","./tasks/HMM-beads/Images/NewTrialWC.png","lowH","1","46","1","1","1","1","true","",""
"image-keyboard-response","275","313318","0.0-3.0-6.0-1.0-1.46","6307bee7b345c1bf0fb2f362","6662009ae78f21dd82fcd179","66620a5f9474f26fc8eabba5","null","","null","","","","","","","","./tasks/HMM-beads/Images/WhiteBeadChoice.png","","","","","","","","","",""
"image-keyboard-response","276","313832","0.0-3.0-6.0-1.0-2.46","6307bee7b345c1bf0fb2f362","6662009ae78f21dd82fcd179","66620a5f9474f26fc8eabba5","null","","null","","","","","","","","./tasks/HMM-beads/Images/WhiteBeadChoiceCorrect.png","","","","","","","","","",""
"image-keyboard-response","277","314213","0.0-3.0-6.0-1.0-0.47","6307bee7b345c1bf0fb2f362","6662009ae78f21dd82fcd179","66620a5f9474f26fc8eabba5","378","","j","","","","","","","","./tasks/HMM-beads/Images/NewTrialWC.png","lowH","1","47","1","0","1","1","false","",""
"image-keyboard-response","278","314521","0.0-3.0-6.0-1.0-1.47","6307bee7b345c1bf0fb2f362","6662009ae78f21dd82fcd179","66620a5f9474f26fc8eabba5","null","","null","","","","","","","","./tasks/HMM-beads/Images/WhiteBeadChoice.png","","","","","","","","","",""
"image-keyboard-response","279","315035","0.0-3.0-6.0-1.0-2.47","6307bee7b345c1bf0fb2f362","6662009ae78f21dd82fcd179","66620a5f9474f26fc8eabba5","null","","null","","","","","","","","./tasks/HMM-beads/Images/WhiteBeadChoiceWrong.png","","","","","","","","","",""
"image-keyboard-response","280","317349","0.0-3.0-6.0-1.0-0.48","6307bee7b345c1bf0fb2f362","6662009ae78f21dd82fcd179","66620a5f9474f26fc8eabba5","2313","","j","","","","","","","","./tasks/HMM-beads/Images/NewTrialBC.png","lowH","1","48","1","0","0","1","false","",""
"image-keyboard-response","281","317664","0.0-3.0-6.0-1.0-1.48","6307bee7b345c1bf0fb2f362","6662009ae78f21dd82fcd179","66620a5f9474f26fc8eabba5","null","","null","","","","","","","","./tasks/HMM-beads/Images/WhiteBeadChoice.png","","","","","","","","","",""
"image-keyboard-response","282","318167","0.0-3.0-6.0-1.0-2.48","6307bee7b345c1bf0fb2f362","6662009ae78f21dd82fcd179","66620a5f9474f26fc8eabba5","null","","null","","","","","","","","./tasks/HMM-beads/Images/WhiteBeadChoiceWrong.png","","","","","","","","","",""
"image-keyboard-response","283","318709","0.0-3.0-6.0-1.0-0.49","6307bee7b345c1bf0fb2f362","6662009ae78f21dd82fcd179","66620a5f9474f26fc8eabba5","540","","j","","","","","","","","./tasks/HMM-beads/Images/NewTrialBC.png","lowH","1","49","1","0","0","1","false","",""
"image-keyboard-response","284","319018","0.0-3.0-6.0-1.0-1.49","6307bee7b345c1bf0fb2f362","6662009ae78f21dd82fcd179","66620a5f9474f26fc8eabba5","null","","null","","","","","","","","./tasks/HMM-beads/Images/WhiteBeadChoice.png","","","","","","","","","",""
"image-keyboard-response","285","319518","0.0-3.0-6.0-1.0-2.49","6307bee7b345c1bf0fb2f362","6662009ae78f21dd82fcd179","66620a5f9474f26fc8eabba5","null","","null","","","","","","","","./tasks/HMM-beads/Images/WhiteBeadChoiceWrong.png","","","","","","","","","",""
"image-keyboard-response","286","322772","0.0-3.0-6.0-1.0-0.50","6307bee7b345c1bf0fb2f362","6662009ae78f21dd82fcd179","66620a5f9474f26fc8eabba5","3254","","f","","","","","","","","./tasks/HMM-beads/Images/NewTrialBC.png","lowH","1","50","1","1","0","0","false","",""
"image-keyboard-response","287","323078","0.0-3.0-6.0-1.0-1.50","6307bee7b345c1bf0fb2f362","6662009ae78f21dd82fcd179","66620a5f9474f26fc8eabba5","null","","null","","","","","","","","./tasks/HMM-beads/Images/BlackBeadChoice.png","","","","","","","","","",""
"image-keyboard-response","288","323579","0.0-3.0-6.0-1.0-2.50","6307bee7b345c1bf0fb2f362","6662009ae78f21dd82fcd179","66620a5f9474f26fc8eabba5","null","","null","","","","","","","","./tasks/HMM-beads/Images/BlackBeadChoiceWrong.png","","","","","","","","","",""
"image-keyboard-response","289","327125","0.0-3.0-6.0-1.0-0.51","6307bee7b345c1bf0fb2f362","6662009ae78f21dd82fcd179","66620a5f9474f26fc8eabba5","3545","","f","","","","","","","","./tasks/HMM-beads/Images/NewTrialWC.png","lowH","1","51","1","1","1","0","false","",""
"image-keyboard-response","290","327435","0.0-3.0-6.0-1.0-1.51","6307bee7b345c1bf0fb2f362","6662009ae78f21dd82fcd179","66620a5f9474f26fc8eabba5","null","","null","","","","","","","","./tasks/HMM-beads/Images/BlackBeadChoice.png","","","","","","","","","",""
"image-keyboard-response","291","327937","0.0-3.0-6.0-1.0-2.51","6307bee7b345c1bf0fb2f362","6662009ae78f21dd82fcd179","66620a5f9474f26fc8eabba5","null","","null","","","","","","","","./tasks/HMM-beads/Images/BlackBeadChoiceWrong.png","","","","","","","","","",""
"image-keyboard-response","292","330517","0.0-3.0-6.0-1.0-0.52","6307bee7b345c1bf0fb2f362","6662009ae78f21dd82fcd179","66620a5f9474f26fc8eabba5","2579","","f","","","","","","","","./tasks/HMM-beads/Images/NewTrialWC.png","lowH","1","52","1","1","1","0","false","",""
"image-keyboard-response","293","330823","0.0-3.0-6.0-1.0-1.52","6307bee7b345c1bf0fb2f362","6662009ae78f21dd82fcd179","66620a5f9474f26fc8eabba5","null","","null","","","","","","","","./tasks/HMM-beads/Images/BlackBeadChoice.png","","","","","","","","","",""
"image-keyboard-response","294","331326","0.0-3.0-6.0-1.0-2.52","6307bee7b345c1bf0fb2f362","6662009ae78f21dd82fcd179","66620a5f9474f26fc8eabba5","null","","null","","","","","","","","./tasks/HMM-beads/Images/BlackBeadChoiceWrong.png","","","","","","","","","",""
"image-keyboard-response","295","331364","0.0-3.0-6.0-1.0-0.53","6307bee7b345c1bf0fb2f362","6662009ae78f21dd82fcd179","66620a5f9474f26fc8eabba5","37","","j","","","","","","","","./tasks/HMM-beads/Images/NewTrialWC.png","lowH","1","53","1","1","1","1","true","",""
"image-keyboard-response","296","331672","0.0-3.0-6.0-1.0-1.53","6307bee7b345c1bf0fb2f362","6662009ae78f21dd82fcd179","66620a5f9474f26fc8eabba5","null","","null","","","","","","","","./tasks/HMM-beads/Images/WhiteBeadChoice.png","","","","","","","","","",""
"image-keyboard-response","297","332175","0.0-3.0-6.0-1.0-2.53","6307bee7b345c1bf0fb2f362","6662009ae78f21dd82fcd179","66620a5f9474f26fc8eabba5","null","","null","","","","","","","","./tasks/HMM-beads/Images/WhiteBeadChoiceCorrect.png","","","","","","","","","",""
"image-keyboard-response","298","332645","0.0-3.0-6.0-1.0-0.54","6307bee7b345c1bf0fb2f362","6662009ae78f21dd82fcd179","66620a5f9474f26fc8eabba5","468","","j","","","","","","","","./tasks/HMM-beads/Images/NewTrialWC.png","lowH","1","54","1","1","1","1","true","",""
"image-keyboard-response","299","332961","0.0-3.0-6.0-1.0-1.54","6307bee7b345c1bf0fb2f362","6662009ae78f21dd82fcd179","66620a5f9474f26fc8eabba5","null","","null","","","","","","","","./tasks/HMM-beads/Images/WhiteBeadChoice.png","","","","","","","","","",""
"image-keyboard-response","300","333477","0.0-3.0-6.0-1.0-2.54","6307bee7b345c1bf0fb2f362","6662009ae78f21dd82fcd179","66620a5f9474f26fc8eabba5","null","","null","","","","","","","","./tasks/HMM-beads/Images/WhiteBeadChoiceCorrect.png","","","","","","","","","",""
"image-keyboard-response","301","333876","0.0-3.0-6.0-1.0-0.55","6307bee7b345c1bf0fb2f362","6662009ae78f21dd82fcd179","66620a5f9474f26fc8eabba5","398","","j","","","","","","","","./tasks/HMM-beads/Images/NewTrialWC.png","lowH","1","55","1","1","1","1","true","",""
"image-keyboard-response","302","334185","0.0-3.0-6.0-1.0-1.55","6307bee7b345c1bf0fb2f362","6662009ae78f21dd82fcd179","66620a5f9474f26fc8eabba5","null","","null","","","","","","","","./tasks/HMM-beads/Images/WhiteBeadChoice.png","","","","","","","","","",""
"image-keyboard-response","303","334700","0.0-3.0-6.0-1.0-2.55","6307bee7b345c1bf0fb2f362","6662009ae78f21dd82fcd179","66620a5f9474f26fc8eabba5","null","","null","","","","","","","","./tasks/HMM-beads/Images/WhiteBeadChoiceCorrect.png","","","","","","","","","",""
"image-keyboard-response","304","335076","0.0-3.0-6.0-1.0-0.56","6307bee7b345c1bf0fb2f362","6662009ae78f21dd82fcd179","66620a5f9474f26fc8eabba5","375","","j","","","","","","","","./tasks/HMM-beads/Images/NewTrialWC.png","lowH","1","56","1","1","1","1","true","",""
"image-keyboard-response","305","335384","0.0-3.0-6.0-1.0-1.56","6307bee7b345c1bf0fb2f362","6662009ae78f21dd82fcd179","66620a5f9474f26fc8eabba5","null","","null","","","","","","","","./tasks/HMM-beads/Images/WhiteBeadChoice.png","","","","","","","","","",""
"image-keyboard-response","306","335893","0.0-3.0-6.0-1.0-2.56","6307bee7b345c1bf0fb2f362","6662009ae78f21dd82fcd179","66620a5f9474f26fc8eabba5","null","","null","","","","","","","","./tasks/HMM-beads/Images/WhiteBeadChoiceCorrect.png","","","","","","","","","",""
"image-keyboard-response","307","336325","0.0-3.0-6.0-1.0-0.57","6307bee7b345c1bf0fb2f362","6662009ae78f21dd82fcd179","66620a5f9474f26fc8eabba5","429","","j","","","","","","","","./tasks/HMM-beads/Images/NewTrialWC.png","lowH","1","57","1","1","1","1","true","",""
"image-keyboard-response","308","336629","0.0-3.0-6.0-1.0-1.57","6307bee7b345c1bf0fb2f362","6662009ae78f21dd82fcd179","66620a5f9474f26fc8eabba5","null","","null","","","","","","","","./tasks/HMM-beads/Images/WhiteBeadChoice.png","","","","","","","","","",""
"image-keyboard-response","309","337145","0.0-3.0-6.0-1.0-2.57","6307bee7b345c1bf0fb2f362","6662009ae78f21dd82fcd179","66620a5f9474f26fc8eabba5","null","","null","","","","","","","","./tasks/HMM-beads/Images/WhiteBeadChoiceCorrect.png","","","","","","","","","",""
"image-keyboard-response","310","343525","0.0-3.0-6.0-1.0-0.58","6307bee7b345c1bf0fb2f362","6662009ae78f21dd82fcd179","66620a5f9474f26fc8eabba5","6379","","j","","","","","","","","./tasks/HMM-beads/Images/NewTrialWC.png","lowH","1","58","1","1","1","1","true","",""
"image-keyboard-response","311","343829","0.0-3.0-6.0-1.0-1.58","6307bee7b345c1bf0fb2f362","6662009ae78f21dd82fcd179","66620a5f9474f26fc8eabba5","null","","null","","","","","","","","./tasks/HMM-beads/Images/WhiteBeadChoice.png","","","","","","","","","",""
"image-keyboard-response","312","344347","0.0-3.0-6.0-1.0-2.58","6307bee7b345c1bf0fb2f362","6662009ae78f21dd82fcd179","66620a5f9474f26fc8eabba5","null","","null","","","","","","","","./tasks/HMM-beads/Images/WhiteBeadChoiceCorrect.png","","","","","","","","","",""
"image-keyboard-response","313","344740","0.0-3.0-6.0-1.0-0.59","6307bee7b345c1bf0fb2f362","6662009ae78f21dd82fcd179","66620a5f9474f26fc8eabba5","392","","j","","","","","","","","./tasks/HMM-beads/Images/NewTrialWC.png","lowH","1","59","1","0","1","1","false","",""
"image-keyboard-response","314","345052","0.0-3.0-6.0-1.0-1.59","6307bee7b345c1bf0fb2f362","6662009ae78f21dd82fcd179","66620a5f9474f26fc8eabba5","null","","null","","","","","","","","./tasks/HMM-beads/Images/WhiteBeadChoice.png","","","","","","","","","",""
"image-keyboard-response","315","345554","0.0-3.0-6.0-1.0-2.59","6307bee7b345c1bf0fb2f362","6662009ae78f21dd82fcd179","66620a5f9474f26fc8eabba5","null","","null","","","","","","","","./tasks/HMM-beads/Images/WhiteBeadChoiceWrong.png","","","","","","","","","",""
"image-keyboard-response","316","350180","0.0-3.0-6.0-1.0-0.60","6307bee7b345c1bf0fb2f362","6662009ae78f21dd82fcd179","66620a5f9474f26fc8eabba5","4625","","j","","","","","","","","./tasks/HMM-beads/Images/NewTrialBC.png","lowH","1","60","1","1","0","1","true","",""
"image-keyboard-response","317","350488","0.0-3.0-6.0-1.0-1.60","6307bee7b345c1bf0fb2f362","6662009ae78f21dd82fcd179","66620a5f9474f26fc8eabba5","null","","null","","","","","","","","./tasks/HMM-beads/Images/WhiteBeadChoice.png","","","","","","","","","",""
"image-keyboard-response","318","350990","0.0-3.0-6.0-1.0-2.60","6307bee7b345c1bf0fb2f362","6662009ae78f21dd82fcd179","66620a5f9474f26fc8eabba5","null","","null","","","","","","","","./tasks/HMM-beads/Images/WhiteBeadChoiceCorrect.png","","","","","","","","","",""
"image-keyboard-response","319","353589","0.0-3.0-6.0-1.0-0.61","6307bee7b345c1bf0fb2f362","6662009ae78f21dd82fcd179","66620a5f9474f26fc8eabba5","2598","","j","","","","","","","","./tasks/HMM-beads/Images/NewTrialWC.png","lowH","1","61","1","1","1","1","true","",""
"image-keyboard-response","320","353898","0.0-3.0-6.0-1.0-1.61","6307bee7b345c1bf0fb2f362","6662009ae78f21dd82fcd179","66620a5f9474f26fc8eabba5","null","","null","","","","","","","","./tasks/HMM-beads/Images/WhiteBeadChoice.png","","","","","","","","","",""
"image-keyboard-response","321","354414","0.0-3.0-6.0-1.0-2.61","6307bee7b345c1bf0fb2f362","6662009ae78f21dd82fcd179","66620a5f9474f26fc8eabba5","null","","null","","","","","","","","./tasks/HMM-beads/Images/WhiteBeadChoiceCorrect.png","","","","","","","","","",""
"image-keyboard-response","322","357940","0.0-3.0-6.0-1.0-0.62","6307bee7b345c1bf0fb2f362","6662009ae78f21dd82fcd179","66620a5f9474f26fc8eabba5","3526","","j","","","","","","","","./tasks/HMM-beads/Images/NewTrialWC.png","lowH","1","62","1","0","1","1","false","",""
"image-keyboard-response","323","358249","0.0-3.0-6.0-1.0-1.62","6307bee7b345c1bf0fb2f362","6662009ae78f21dd82fcd179","66620a5f9474f26fc8eabba5","null","","null","","","","","","","","./tasks/HMM-beads/Images/WhiteBeadChoice.png","","","","","","","","","",""
"image-keyboard-response","324","358752","0.0-3.0-6.0-1.0-2.62","6307bee7b345c1bf0fb2f362","6662009ae78f21dd82fcd179","66620a5f9474f26fc8eabba5","null","","null","","","","","","","","./tasks/HMM-beads/Images/WhiteBeadChoiceWrong.png","","","","","","","","","",""
"image-keyboard-response","325","361925","0.0-3.0-6.0-1.0-0.63","6307bee7b345c1bf0fb2f362","6662009ae78f21dd82fcd179","66620a5f9474f26fc8eabba5","3172","","j","","","","","","","","./tasks/HMM-beads/Images/NewTrialBC.png","lowH","1","63","1","1","0","1","true","",""
"image-keyboard-response","326","362232","0.0-3.0-6.0-1.0-1.63","6307bee7b345c1bf0fb2f362","6662009ae78f21dd82fcd179","66620a5f9474f26fc8eabba5","null","","null","","","","","","","","./tasks/HMM-beads/Images/WhiteBeadChoice.png","","","","","","","","","",""
"image-keyboard-response","327","362735","0.0-3.0-6.0-1.0-2.63","6307bee7b345c1bf0fb2f362","6662009ae78f21dd82fcd179","66620a5f9474f26fc8eabba5","null","","null","","","","","","","","./tasks/HMM-beads/Images/WhiteBeadChoiceCorrect.png","","","","","","","","","",""
"image-keyboard-response","328","363860","0.0-3.0-6.0-1.0-0.64","6307bee7b345c1bf0fb2f362","6662009ae78f21dd82fcd179","66620a5f9474f26fc8eabba5","1125","","j","","","","","","","","./tasks/HMM-beads/Images/NewTrialWC.png","lowH","1","64","1","1","1","1","true","",""
"image-keyboard-response","329","364175","0.0-3.0-6.0-1.0-1.64","6307bee7b345c1bf0fb2f362","6662009ae78f21dd82fcd179","66620a5f9474f26fc8eabba5","null","","null","","","","","","","","./tasks/HMM-beads/Images/WhiteBeadChoice.png","","","","","","","","","",""
"image-keyboard-response","330","364679","0.0-3.0-6.0-1.0-2.64","6307bee7b345c1bf0fb2f362","6662009ae78f21dd82fcd179","66620a5f9474f26fc8eabba5","null","","null","","","","","","","","./tasks/HMM-beads/Images/WhiteBeadChoiceCorrect.png","","","","","","","","","",""
"image-keyboard-response","331","365124","0.0-3.0-6.0-1.0-0.65","6307bee7b345c1bf0fb2f362","6662009ae78f21dd82fcd179","66620a5f9474f26fc8eabba5","444","","j","","","","","","","","./tasks/HMM-beads/Images/NewTrialWC.png","lowH","1","65","1","1","1","1","true","",""
"image-keyboard-response","332","365425","0.0-3.0-6.0-1.0-1.65","6307bee7b345c1bf0fb2f362","6662009ae78f21dd82fcd179","66620a5f9474f26fc8eabba5","null","","null","","","","","","","","./tasks/HMM-beads/Images/WhiteBeadChoice.png","","","","","","","","","",""
"image-keyboard-response","333","365938","0.0-3.0-6.0-1.0-2.65","6307bee7b345c1bf0fb2f362","6662009ae78f21dd82fcd179","66620a5f9474f26fc8eabba5","null","","null","","","","","","","","./tasks/HMM-beads/Images/WhiteBeadChoiceCorrect.png","","","","","","","","","",""
"image-keyboard-response","334","365956","0.0-3.0-6.0-1.0-0.66","6307bee7b345c1bf0fb2f362","6662009ae78f21dd82fcd179","66620a5f9474f26fc8eabba5","16","","j","","","","","","","","./tasks/HMM-beads/Images/NewTrialWC.png","lowH","1","66","1","1","1","1","true","",""
"image-keyboard-response","335","366267","0.0-3.0-6.0-1.0-1.66","6307bee7b345c1bf0fb2f362","6662009ae78f21dd82fcd179","66620a5f9474f26fc8eabba5","null","","null","","","","","","","","./tasks/HMM-beads/Images/WhiteBeadChoice.png","","","","","","","","","",""
"image-keyboard-response","336","366772","0.0-3.0-6.0-1.0-2.66","6307bee7b345c1bf0fb2f362","6662009ae78f21dd82fcd179","66620a5f9474f26fc8eabba5","null","","null","","","","","","","","./tasks/HMM-beads/Images/WhiteBeadChoiceCorrect.png","","","","","","","","","",""
"image-keyboard-response","337","369284","0.0-3.0-6.0-1.0-0.67","6307bee7b345c1bf0fb2f362","6662009ae78f21dd82fcd179","66620a5f9474f26fc8eabba5","2511","","j","","","","","","","","./tasks/HMM-beads/Images/NewTrialWC.png","lowH","1","67","1","0","1","1","false","",""
"image-keyboard-response","338","369592","0.0-3.0-6.0-1.0-1.67","6307bee7b345c1bf0fb2f362","6662009ae78f21dd82fcd179","66620a5f9474f26fc8eabba5","null","","null","","","","","","","","./tasks/HMM-beads/Images/WhiteBeadChoice.png","","","","","","","","","",""
"image-keyboard-response","339","370094","0.0-3.0-6.0-1.0-2.67","6307bee7b345c1bf0fb2f362","6662009ae78f21dd82fcd179","66620a5f9474f26fc8eabba5","null","","null","","","","","","","","./tasks/HMM-beads/Images/WhiteBeadChoiceWrong.png","","","","","","","","","",""
"image-keyboard-response","340","376996","0.0-3.0-6.0-1.0-0.68","6307bee7b345c1bf0fb2f362","6662009ae78f21dd82fcd179","66620a5f9474f26fc8eabba5","6901","","j","","","","","","","","./tasks/HMM-beads/Images/NewTrialBC.png","lowH","1","68","1","1","0","1","true","",""
"image-keyboard-response","341","377311","0.0-3.0-6.0-1.0-1.68","6307bee7b345c1bf0fb2f362","6662009ae78f21dd82fcd179","66620a5f9474f26fc8eabba5","null","","null","","","","","","","","./tasks/HMM-beads/Images/WhiteBeadChoice.png","","","","","","","","","",""
"image-keyboard-response","342","377814","0.0-3.0-6.0-1.0-2.68","6307bee7b345c1bf0fb2f362","6662009ae78f21dd82fcd179","66620a5f9474f26fc8eabba5","null","","null","","","","","","","","./tasks/HMM-beads/Images/WhiteBeadChoiceCorrect.png","","","","","","","","","",""
"image-keyboard-response","343","385060","0.0-3.0-6.0-1.0-0.69","6307bee7b345c1bf0fb2f362","6662009ae78f21dd82fcd179","66620a5f9474f26fc8eabba5","7246","","j","","","","","","","","./tasks/HMM-beads/Images/NewTrialWC.png","lowH","1","69","0","1","1","1","true","",""
"image-keyboard-response","344","385365","0.0-3.0-6.0-1.0-1.69","6307bee7b345c1bf0fb2f362","6662009ae78f21dd82fcd179","66620a5f9474f26fc8eabba5","null","","null","","","","","","","","./tasks/HMM-beads/Images/WhiteBeadChoice.png","","","","","","","","","",""
"image-keyboard-response","345","385868","0.0-3.0-6.0-1.0-2.69","6307bee7b345c1bf0fb2f362","6662009ae78f21dd82fcd179","66620a5f9474f26fc8eabba5","null","","null","","","","","","","","./tasks/HMM-beads/Images/WhiteBeadChoiceCorrect.png","","","","","","","","","",""
"image-keyboard-response","346","386356","0.0-3.0-6.0-1.0-0.70","6307bee7b345c1bf0fb2f362","6662009ae78f21dd82fcd179","66620a5f9474f26fc8eabba5","487","","j","","","","","","","","./tasks/HMM-beads/Images/NewTrialWC.png","lowH","1","70","0","1","1","1","true","",""
"image-keyboard-response","347","386669","0.0-3.0-6.0-1.0-1.70","6307bee7b345c1bf0fb2f362","6662009ae78f21dd82fcd179","66620a5f9474f26fc8eabba5","null","","null","","","","","","","","./tasks/HMM-beads/Images/WhiteBeadChoice.png","","","","","","","","","",""
"image-keyboard-response","348","387172","0.0-3.0-6.0-1.0-2.70","6307bee7b345c1bf0fb2f362","6662009ae78f21dd82fcd179","66620a5f9474f26fc8eabba5","null","","null","","","","","","","","./tasks/HMM-beads/Images/WhiteBeadChoiceCorrect.png","","","","","","","","","",""
"image-keyboard-response","349","387764","0.0-3.0-6.0-1.0-0.71","6307bee7b345c1bf0fb2f362","6662009ae78f21dd82fcd179","66620a5f9474f26fc8eabba5","590","","j","","","","","","","","./tasks/HMM-beads/Images/NewTrialWC.png","lowH","1","71","0","0","1","1","false","",""
"image-keyboard-response","350","388077","0.0-3.0-6.0-1.0-1.71","6307bee7b345c1bf0fb2f362","6662009ae78f21dd82fcd179","66620a5f9474f26fc8eabba5","null","","null","","","","","","","","./tasks/HMM-beads/Images/WhiteBeadChoice.png","","","","","","","","","",""
"image-keyboard-response","351","388579","0.0-3.0-6.0-1.0-2.71","6307bee7b345c1bf0fb2f362","6662009ae78f21dd82fcd179","66620a5f9474f26fc8eabba5","null","","null","","","","","","","","./tasks/HMM-beads/Images/WhiteBeadChoiceWrong.png","","","","","","","","","",""
"image-keyboard-response","352","389716","0.0-3.0-6.0-1.0-0.72","6307bee7b345c1bf0fb2f362","6662009ae78f21dd82fcd179","66620a5f9474f26fc8eabba5","1136","","j","","","","","","","","./tasks/HMM-beads/Images/NewTrialBC.png","lowH","1","72","0","0","0","1","false","",""
"image-keyboard-response","353","390018","0.0-3.0-6.0-1.0-1.72","6307bee7b345c1bf0fb2f362","6662009ae78f21dd82fcd179","66620a5f9474f26fc8eabba5","null","","null","","","","","","","","./tasks/HMM-beads/Images/WhiteBeadChoice.png","","","","","","","","","",""
"image-keyboard-response","354","390519","0.0-3.0-6.0-1.0-2.72","6307bee7b345c1bf0fb2f362","6662009ae78f21dd82fcd179","66620a5f9474f26fc8eabba5","null","","null","","","","","","","","./tasks/HMM-beads/Images/WhiteBeadChoiceWrong.png","","","","","","","","","",""
"image-keyboard-response","355","392612","0.0-3.0-6.0-1.0-0.73","6307bee7b345c1bf0fb2f362","6662009ae78f21dd82fcd179","66620a5f9474f26fc8eabba5","2093","","j","","","","","","","","./tasks/HMM-beads/Images/NewTrialBC.png","lowH","1","73","0","1","0","1","true","",""
"image-keyboard-response","356","392915","0.0-3.0-6.0-1.0-1.73","6307bee7b345c1bf0fb2f362","6662009ae78f21dd82fcd179","66620a5f9474f26fc8eabba5","null","","null","","","","","","","","./tasks/HMM-beads/Images/WhiteBeadChoice.png","","","","","","","","","",""
"image-keyboard-response","357","393417","0.0-3.0-6.0-1.0-2.73","6307bee7b345c1bf0fb2f362","6662009ae78f21dd82fcd179","66620a5f9474f26fc8eabba5","null","","null","","","","","","","","./tasks/HMM-beads/Images/WhiteBeadChoiceCorrect.png","","","","","","","","","",""
"image-keyboard-response","358","395540","0.0-3.0-6.0-1.0-0.74","6307bee7b345c1bf0fb2f362","6662009ae78f21dd82fcd179","66620a5f9474f26fc8eabba5","2123","","j","","","","","","","","./tasks/HMM-beads/Images/NewTrialWC.png","lowH","1","74","0","0","1","1","false","",""
"image-keyboard-response","359","395845","0.0-3.0-6.0-1.0-1.74","6307bee7b345c1bf0fb2f362","6662009ae78f21dd82fcd179","66620a5f9474f26fc8eabba5","null","","null","","","","","","","","./tasks/HMM-beads/Images/WhiteBeadChoice.png","","","","","","","","","",""
"image-keyboard-response","360","396350","0.0-3.0-6.0-1.0-2.74","6307bee7b345c1bf0fb2f362","6662009ae78f21dd82fcd179","66620a5f9474f26fc8eabba5","null","","null","","","","","","","","./tasks/HMM-beads/Images/WhiteBeadChoiceWrong.png","","","","","","","","","",""
"image-keyboard-response","361","399380","0.0-3.0-6.0-1.0-0.75","6307bee7b345c1bf0fb2f362","6662009ae78f21dd82fcd179","66620a5f9474f26fc8eabba5","3029","","j","","","","","","","","./tasks/HMM-beads/Images/NewTrialBC.png","lowH","1","75","0","1","0","1","true","",""
"image-keyboard-response","362","399687","0.0-3.0-6.0-1.0-1.75","6307bee7b345c1bf0fb2f362","6662009ae78f21dd82fcd179","66620a5f9474f26fc8eabba5","null","","null","","","","","","","","./tasks/HMM-beads/Images/WhiteBeadChoice.png","","","","","","","","","",""
"image-keyboard-response","363","400191","0.0-3.0-6.0-1.0-2.75","6307bee7b345c1bf0fb2f362","6662009ae78f21dd82fcd179","66620a5f9474f26fc8eabba5","null","","null","","","","","","","","./tasks/HMM-beads/Images/WhiteBeadChoiceCorrect.png","","","","","","","","","",""
"image-keyboard-response","364","402308","0.0-3.0-6.0-1.0-0.76","6307bee7b345c1bf0fb2f362","6662009ae78f21dd82fcd179","66620a5f9474f26fc8eabba5","2116","","j","","","","","","","","./tasks/HMM-beads/Images/NewTrialWC.png","lowH","1","76","0","1","1","1","true","",""
"image-keyboard-response","365","402612","0.0-3.0-6.0-1.0-1.76","6307bee7b345c1bf0fb2f362","6662009ae78f21dd82fcd179","66620a5f9474f26fc8eabba5","null","","null","","","","","","","","./tasks/HMM-beads/Images/WhiteBeadChoice.png","","","","","","","","","",""
"image-keyboard-response","366","403115","0.0-3.0-6.0-1.0-2.76","6307bee7b345c1bf0fb2f362","6662009ae78f21dd82fcd179","66620a5f9474f26fc8eabba5","null","","null","","","","","","","","./tasks/HMM-beads/Images/WhiteBeadChoiceCorrect.png","","","","","","","","","",""
"image-keyboard-response","367","403156","0.0-3.0-6.0-1.0-0.77","6307bee7b345c1bf0fb2f362","6662009ae78f21dd82fcd179","66620a5f9474f26fc8eabba5","39","","j","","","","","","","","./tasks/HMM-beads/Images/NewTrialWC.png","lowH","1","77","0","0","1","1","false","",""
"image-keyboard-response","368","403462","0.0-3.0-6.0-1.0-1.77","6307bee7b345c1bf0fb2f362","6662009ae78f21dd82fcd179","66620a5f9474f26fc8eabba5","null","","null","","","","","","","","./tasks/HMM-beads/Images/WhiteBeadChoice.png","","","","","","","","","",""
"image-keyboard-response","369","403978","0.0-3.0-6.0-1.0-2.77","6307bee7b345c1bf0fb2f362","6662009ae78f21dd82fcd179","66620a5f9474f26fc8eabba5","null","","null","","","","","","","","./tasks/HMM-beads/Images/WhiteBeadChoiceWrong.png","","","","","","","","","",""
"image-keyboard-response","370","406484","0.0-3.0-6.0-1.0-0.78","6307bee7b345c1bf0fb2f362","6662009ae78f21dd82fcd179","66620a5f9474f26fc8eabba5","2506","","j","","","","","","","","./tasks/HMM-beads/Images/NewTrialBC.png","lowH","1","78","0","0","0","1","false","",""
"image-keyboard-response","371","406796","0.0-3.0-6.0-1.0-1.78","6307bee7b345c1bf0fb2f362","6662009ae78f21dd82fcd179","66620a5f9474f26fc8eabba5","null","","null","","","","","","","","./tasks/HMM-beads/Images/WhiteBeadChoice.png","","","","","","","","","",""
"image-keyboard-response","372","407299","0.0-3.0-6.0-1.0-2.78","6307bee7b345c1bf0fb2f362","6662009ae78f21dd82fcd179","66620a5f9474f26fc8eabba5","null","","null","","","","","","","","./tasks/HMM-beads/Images/WhiteBeadChoiceWrong.png","","","","","","","","","",""
"image-keyboard-response","373","407860","0.0-3.0-6.0-1.0-0.79","6307bee7b345c1bf0fb2f362","6662009ae78f21dd82fcd179","66620a5f9474f26fc8eabba5","559","","f","","","","","","","","./tasks/HMM-beads/Images/NewTrialBC.png","lowH","1","79","0","0","0","0","true","",""
"image-keyboard-response","374","408174","0.0-3.0-6.0-1.0-1.79","6307bee7b345c1bf0fb2f362","6662009ae78f21dd82fcd179","66620a5f9474f26fc8eabba5","null","","null","","","","","","","","./tasks/HMM-beads/Images/BlackBeadChoice.png","","","","","","","","","",""
