"trial_type","trial_index","time_elapsed","internal_node_id","subject_id","study_id","session_id","rt","url","response","question_order","view_history","success","timeout","failed_images","failed_audio","failed_video","stimulus","block","block_rep","trial_number","jar","bead","previous_bead","choice","correct","lowH_score","total_bonus"
"pavlovia","0","1518","0.0-0.0","5fd85c9f4bf0b61a395593c7","6662009ae78f21dd82fcd179","6662073c81deebdb07871342","","","","","","","","","","","","","","","","","","","","",""
"external-html","1","239393","0.0-1.0-0.0","5fd85c9f4bf0b61a395593c7","6662009ae78f21dd82fcd179","6662073c81deebdb07871342","237680","new_consent.html","","","","","","","","","","","","","","","","","","",""
"survey-multi-choice","2","248775","0.0-1.0-1.0","5fd85c9f4bf0b61a395593c7","6662009ae78f21dd82fcd179","6662073c81deebdb07871342","9324","","{""Q0"":""Female"",""Q1"":""White""}","[0,1]","","","","","","","","","","","","","","","","",""
"survey-text","3","255459","0.0-1.0-2.0","5fd85c9f4bf0b61a395593c7","6662009ae78f21dd82fcd179","6662073c81deebdb07871342","6616","","{""Q0"":""50""}","","","","","","","","","","","","","","","","","",""
"instructions","4","258420","0.0-2.0","5fd85c9f4bf0b61a395593c7","6662009ae78f21dd82fcd179","6662073c81deebdb07871342","2858","","","","[{""page_index"":0,""viewing_time"":2857}]","","","","","","","","","","","","","","","",""
"preload","5","274567","0.0-3.0-0.0","5fd85c9f4bf0b61a395593c7","6662009ae78f21dd82fcd179","6662073c81deebdb07871342","","","","","","true","false","[]","[]","[]","","","","","","","","","","",""
"instructions","6","459761","0.0-3.0-1.0","5fd85c9f4bf0b61a395593c7","6662009ae78f21dd82fcd179","6662073c81deebdb07871342","185188","","","","[{""page_index"":0,""viewing_time"":52716},{""page_index"":1,""viewing_time"":10073},{""page_index"":2,""viewing_time"":6763},{""page_index"":3,""viewing_time"":2003},{""page_index"":4,""viewing_time"":15765},{""page_index"":5,""viewing_time"":42150},{""page_index"":6,""viewing_time"":12463},{""page_index"":7,""viewing_time"":5633},{""page_index"":8,""viewing_time"":11106},{""page_index"":9,""viewing_time"":9366},{""page_index"":10,""viewing_time"":12650},{""page_index"":11,""viewing_time"":4501}]","","","","","","","","","","","","","","","",""
"html-button-response","7","467639","0.0-3.0-2.0-0.0-0.0","5fd85c9f4bf0b61a395593c7","6662009ae78f21dd82fcd179","6662073c81deebdb07871342","7852","","1","","","","","","","","<div align=center>Your goal is to predict…?<br><br></div>","","","","","","","","","",""
"html-button-response","8","477119","0.0-3.0-2.0-1.0-0.0","5fd85c9f4bf0b61a395593c7","6662009ae78f21dd82fcd179","6662073c81deebdb07871342","6319","","2","","","","","","","","<div align=center>In the jar with mostly white beads, there are ___% white beads and ___% black beads?<br><br></div>","","","","","","","","","",""
"html-button-response","9","488692","0.0-3.0-2.0-2.0-0.0","5fd85c9f4bf0b61a395593c7","6662009ae78f21dd82fcd179","6662073c81deebdb07871342","9641","","0","","","","","","","","<div align=center>When there is a 1% probability that the jars will switch, the next bead will most likely be drawn from the…<br><br></div>","","","","","","","","","",""
"html-button-response","10","496168","0.0-3.0-2.0-3.0-0.0","5fd85c9f4bf0b61a395593c7","6662009ae78f21dd82fcd179","6662073c81deebdb07871342","5790","","1","","","","","","","","<div align=center>When there is a 99% probability that the jars will switch, the next bead will most likely be drawn from the…<br><br></div>","","","","","","","","","",""
"instructions","11","520848","0.0-3.0-3.0","5fd85c9f4bf0b61a395593c7","6662009ae78f21dd82fcd179","6662073c81deebdb07871342","23183","","","","[{""page_index"":0,""viewing_time"":23163}]","","","","","","","","","","","","","","","",""
"html-keyboard-response","12","525515","0.0-3.0-4.0-0.0","5fd85c9f4bf0b61a395593c7","6662009ae78f21dd82fcd179","6662073c81deebdb07871342","4624",""," ","","","","","","","","<div align=center>In this practice block, there will be a <b>1% chance</b> that the jar on the next trial will be different from the jar on the current trial.<br><br></div>","","","","","","","","","",""
"image-keyboard-response","13","532981","0.0-3.0-4.0-1.0-0.0","5fd85c9f4bf0b61a395593c7","6662009ae78f21dd82fcd179","6662073c81deebdb07871342","7324","","f","","","","","","","","./tasks/HMM-beads/Images/NoChoice.png","practice","0","0","0","0","9","0","true","",""
"image-keyboard-response","14","533286","0.0-3.0-4.0-1.0-1.0","5fd85c9f4bf0b61a395593c7","6662009ae78f21dd82fcd179","6662073c81deebdb07871342","null","","null","","","","","","","","./tasks/HMM-beads/Images/BlackBeadChoice.png","","","","","","","","","",""
"image-keyboard-response","15","533791","0.0-3.0-4.0-1.0-2.0","5fd85c9f4bf0b61a395593c7","6662009ae78f21dd82fcd179","6662073c81deebdb07871342","null","","null","","","","","","","","./tasks/HMM-beads/Images/BlackBeadChoiceCorrect.png","","","","","","","","","",""
"image-keyboard-response","16","537878","0.0-3.0-4.0-1.0-0.1","5fd85c9f4bf0b61a395593c7","6662009ae78f21dd82fcd179","6662073c81deebdb07871342","4085","","f","","","","","","","","./tasks/HMM-beads/Images/NewTrialBC.png","practice","0","1","0","0","0","0","true","",""
"image-keyboard-response","17","538183","0.0-3.0-4.0-1.0-1.1","5fd85c9f4bf0b61a395593c7","6662009ae78f21dd82fcd179","6662073c81deebdb07871342","null","","null","","","","","","","","./tasks/HMM-beads/Images/BlackBeadChoice.png","","","","","","","","","",""
"image-keyboard-response","18","538686","0.0-3.0-4.0-1.0-2.1","5fd85c9f4bf0b61a395593c7","6662009ae78f21dd82fcd179","6662073c81deebdb07871342","null","","null","","","","","","","","./tasks/HMM-beads/Images/BlackBeadChoiceCorrect.png","","","","","","","","","",""
"image-keyboard-response","19","540294","0.0-3.0-4.0-1.0-0.2","5fd85c9f4bf0b61a395593c7","6662009ae78f21dd82fcd179","6662073c81deebdb07871342","1607","","j","","","","","","","","./tasks/HMM-beads/Images/NewTrialBC.png","practice","0","2","0","1","0","1","true","",""
"image-keyboard-response","20","540597","0.0-3.0-4.0-1.0-1.2","5fd85c9f4bf0b61a395593c7","6662009ae78f21dd82fcd179","6662073c81deebdb07871342","null","","null","","","","","","","","./tasks/HMM-beads/Images/WhiteBeadChoice.png","","","","","","","","","",""
"image-keyboard-response","21","541100","0.0-3.0-4.0-1.0-2.2","5fd85c9f4bf0b61a395593c7","6662009ae78f21dd82fcd179","6662073c81deebdb07871342","null","","null","","","","","","","","./tasks/HMM-beads/Images/WhiteBeadChoiceCorrect.png","","","","","","","","","",""
"image-keyboard-response","22","545088","0.0-3.0-4.0-1.0-0.3","5fd85c9f4bf0b61a395593c7","6662009ae78f21dd82fcd179","6662073c81deebdb07871342","3972","","f","","","","","","","","./tasks/HMM-beads/Images/NewTrialWC.png","practice","0","3","0","0","1","0","true","",""
"image-keyboard-response","23","545440","0.0-3.0-4.0-1.0-1.3","5fd85c9f4bf0b61a395593c7","6662009ae78f21dd82fcd179","6662073c81deebdb07871342","null","","null","","","","","","","","./tasks/HMM-beads/Images/BlackBeadChoice.png","","","","","","","","","",""
"image-keyboard-response","24","545944","0.0-3.0-4.0-1.0-2.3","5fd85c9f4bf0b61a395593c7","6662009ae78f21dd82fcd179","6662073c81deebdb07871342","null","","null","","","","","","","","./tasks/HMM-beads/Images/BlackBeadChoiceCorrect.png","","","","","","","","","",""
"image-keyboard-response","25","547186","0.0-3.0-4.0-1.0-0.4","5fd85c9f4bf0b61a395593c7","6662009ae78f21dd82fcd179","6662073c81deebdb07871342","1197","","j","","","","","","","","./tasks/HMM-beads/Images/NewTrialBC.png","practice","0","4","0","0","0","1","false","",""
"image-keyboard-response","26","547490","0.0-3.0-4.0-1.0-1.4","5fd85c9f4bf0b61a395593c7","6662009ae78f21dd82fcd179","6662073c81deebdb07871342","null","","null","","","","","","","","./tasks/HMM-beads/Images/WhiteBeadChoice.png","","","","","","","","","",""
"image-keyboard-response","27","547992","0.0-3.0-4.0-1.0-2.4","5fd85c9f4bf0b61a395593c7","6662009ae78f21dd82fcd179","6662073c81deebdb07871342","null","","null","","","","","","","","./tasks/HMM-beads/Images/WhiteBeadChoiceWrong.png","","","","","","","","","",""
"image-keyboard-response","28","550783","0.0-3.0-4.0-1.0-0.5","5fd85c9f4bf0b61a395593c7","6662009ae78f21dd82fcd179","6662073c81deebdb07871342","2790","","j","","","","","","","","./tasks/HMM-beads/Images/NewTrialBC.png","practice","0","5","0","1","0","1","true","",""
"image-keyboard-response","29","551090","0.0-3.0-4.0-1.0-1.5","5fd85c9f4bf0b61a395593c7","6662009ae78f21dd82fcd179","6662073c81deebdb07871342","null","","null","","","","","","","","./tasks/HMM-beads/Images/WhiteBeadChoice.png","","","","","","","","","",""
"image-keyboard-response","30","551594","0.0-3.0-4.0-1.0-2.5","5fd85c9f4bf0b61a395593c7","6662009ae78f21dd82fcd179","6662073c81deebdb07871342","null","","null","","","","","","","","./tasks/HMM-beads/Images/WhiteBeadChoiceCorrect.png","","","","","","","","","",""
"image-keyboard-response","31","553557","0.0-3.0-4.0-1.0-0.6","5fd85c9f4bf0b61a395593c7","6662009ae78f21dd82fcd179","6662073c81deebdb07871342","1962","","j","","","","","","","","./tasks/HMM-beads/Images/NewTrialWC.png","practice","0","6","0","0","1","1","false","",""
"image-keyboard-response","32","553859","0.0-3.0-4.0-1.0-1.6","5fd85c9f4bf0b61a395593c7","6662009ae78f21dd82fcd179","6662073c81deebdb07871342","null","","null","","","","","","","","./tasks/HMM-beads/Images/WhiteBeadChoice.png","","","","","","","","","",""
"image-keyboard-response","33","554363","0.0-3.0-4.0-1.0-2.6","5fd85c9f4bf0b61a395593c7","6662009ae78f21dd82fcd179","6662073c81deebdb07871342","null","","null","","","","","","","","./tasks/HMM-beads/Images/WhiteBeadChoiceWrong.png","","","","","","","","","",""
"image-keyboard-response","34","555970","0.0-3.0-4.0-1.0-0.7","5fd85c9f4bf0b61a395593c7","6662009ae78f21dd82fcd179","6662073c81deebdb07871342","1606","","f","","","","","","","","./tasks/HMM-beads/Images/NewTrialBC.png","practice","0","7","0","0","0","0","true","",""
"image-keyboard-response","35","556273","0.0-3.0-4.0-1.0-1.7","5fd85c9f4bf0b61a395593c7","6662009ae78f21dd82fcd179","6662073c81deebdb07871342","null","","null","","","","","","","","./tasks/HMM-beads/Images/BlackBeadChoice.png","","","","","","","","","",""
"image-keyboard-response","36","556776","0.0-3.0-4.0-1.0-2.7","5fd85c9f4bf0b61a395593c7","6662009ae78f21dd82fcd179","6662073c81deebdb07871342","null","","null","","","","","","","","./tasks/HMM-beads/Images/BlackBeadChoiceCorrect.png","","","","","","","","","",""
"image-keyboard-response","37","557742","0.0-3.0-4.0-1.0-0.8","5fd85c9f4bf0b61a395593c7","6662009ae78f21dd82fcd179","6662073c81deebdb07871342","965","","f","","","","","","","","./tasks/HMM-beads/Images/NewTrialBC.png","practice","0","8","0","0","0","0","true","",""
"image-keyboard-response","38","558057","0.0-3.0-4.0-1.0-1.8","5fd85c9f4bf0b61a395593c7","6662009ae78f21dd82fcd179","6662073c81deebdb07871342","null","","null","","","","","","","","./tasks/HMM-beads/Images/BlackBeadChoice.png","","","","","","","","","",""
"image-keyboard-response","39","558562","0.0-3.0-4.0-1.0-2.8","5fd85c9f4bf0b61a395593c7","6662009ae78f21dd82fcd179","6662073c81deebdb07871342","null","","null","","","","","","","","./tasks/HMM-beads/Images/BlackBeadChoiceCorrect.png","","","","","","","","","",""
"image-keyboard-response","40","559383","0.0-3.0-4.0-1.0-0.9","5fd85c9f4bf0b61a395593c7","6662009ae78f21dd82fcd179","6662073c81deebdb07871342","817","","f","","","","","","","","./tasks/HMM-beads/Images/NewTrialBC.png","practice","0","9","0","1","0","0","false","",""
"image-keyboard-response","41","559687","0.0-3.0-4.0-1.0-1.9","5fd85c9f4bf0b61a395593c7","6662009ae78f21dd82fcd179","6662073c81deebdb07871342","null","","null","","","","","","","","./tasks/HMM-beads/Images/BlackBeadChoice.png","","","","","","","","","",""
"image-keyboard-response","42","560190","0.0-3.0-4.0-1.0-2.9","5fd85c9f4bf0b61a395593c7","6662009ae78f21dd82fcd179","6662073c81deebdb07871342","null","","null","","","","","","","","./tasks/HMM-beads/Images/BlackBeadChoiceWrong.png","","","","","","","","","",""
"image-keyboard-response","43","560424","0.0-3.0-4.0-1.0-0.10","5fd85c9f4bf0b61a395593c7","6662009ae78f21dd82fcd179","6662073c81deebdb07871342","232","","j","","","","","","","","./tasks/HMM-beads/Images/NewTrialWC.png","practice","0","10","0","0","1","1","false","",""
"image-keyboard-response","44","560726","0.0-3.0-4.0-1.0-1.10","5fd85c9f4bf0b61a395593c7","6662009ae78f21dd82fcd179","6662073c81deebdb07871342","null","","null","","","","","","","","./tasks/HMM-beads/Images/WhiteBeadChoice.png","","","","","","","","","",""
"image-keyboard-response","45","561229","0.0-3.0-4.0-1.0-2.10","5fd85c9f4bf0b61a395593c7","6662009ae78f21dd82fcd179","6662073c81deebdb07871342","null","","null","","","","","","","","./tasks/HMM-beads/Images/WhiteBeadChoiceWrong.png","","","","","","","","","",""
"image-keyboard-response","46","561700","0.0-3.0-4.0-1.0-0.11","5fd85c9f4bf0b61a395593c7","6662009ae78f21dd82fcd179","6662073c81deebdb07871342","470","","f","","","","","","","","./tasks/HMM-beads/Images/NewTrialBC.png","practice","0","11","0","1","0","0","false","",""
"image-keyboard-response","47","562001","0.0-3.0-4.0-1.0-1.11","5fd85c9f4bf0b61a395593c7","6662009ae78f21dd82fcd179","6662073c81deebdb07871342","null","","null","","","","","","","","./tasks/HMM-beads/Images/BlackBeadChoice.png","","","","","","","","","",""
"image-keyboard-response","48","562504","0.0-3.0-4.0-1.0-2.11","5fd85c9f4bf0b61a395593c7","6662009ae78f21dd82fcd179","6662073c81deebdb07871342","null","","null","","","","","","","","./tasks/HMM-beads/Images/BlackBeadChoiceWrong.png","","","","","","","","","",""
"image-keyboard-response","49","563401","0.0-3.0-4.0-1.0-0.12","5fd85c9f4bf0b61a395593c7","6662009ae78f21dd82fcd179","6662073c81deebdb07871342","896","","j","","","","","","","","./tasks/HMM-beads/Images/NewTrialWC.png","practice","0","12","0","0","1","1","false","",""
"image-keyboard-response","50","563703","0.0-3.0-4.0-1.0-1.12","5fd85c9f4bf0b61a395593c7","6662009ae78f21dd82fcd179","6662073c81deebdb07871342","null","","null","","","","","","","","./tasks/HMM-beads/Images/WhiteBeadChoice.png","","","","","","","","","",""
"image-keyboard-response","51","564214","0.0-3.0-4.0-1.0-2.12","5fd85c9f4bf0b61a395593c7","6662009ae78f21dd82fcd179","6662073c81deebdb07871342","null","","null","","","","","","","","./tasks/HMM-beads/Images/WhiteBeadChoiceWrong.png","","","","","","","","","",""
"image-keyboard-response","52","564706","0.0-3.0-4.0-1.0-0.13","5fd85c9f4bf0b61a395593c7","6662009ae78f21dd82fcd179","6662073c81deebdb07871342","491","","f","","","","","","","","./tasks/HMM-beads/Images/NewTrialBC.png","practice","0","13","0","0","0","0","true","",""
"image-keyboard-response","53","565009","0.0-3.0-4.0-1.0-1.13","5fd85c9f4bf0b61a395593c7","6662009ae78f21dd82fcd179","6662073c81deebdb07871342","null","","null","","","","","","","","./tasks/HMM-beads/Images/BlackBeadChoice.png","","","","","","","","","",""
"image-keyboard-response","54","565511","0.0-3.0-4.0-1.0-2.13","5fd85c9f4bf0b61a395593c7","6662009ae78f21dd82fcd179","6662073c81deebdb07871342","null","","null","","","","","","","","./tasks/HMM-beads/Images/BlackBeadChoiceCorrect.png","","","","","","","","","",""
"image-keyboard-response","55","565751","0.0-3.0-4.0-1.0-0.14","5fd85c9f4bf0b61a395593c7","6662009ae78f21dd82fcd179","6662073c81deebdb07871342","238","","f","","","","","","","","./tasks/HMM-beads/Images/NewTrialBC.png","practice","0","14","0","0","0","0","true","",""
"image-keyboard-response","56","566052","0.0-3.0-4.0-1.0-1.14","5fd85c9f4bf0b61a395593c7","6662009ae78f21dd82fcd179","6662073c81deebdb07871342","null","","null","","","","","","","","./tasks/HMM-beads/Images/BlackBeadChoice.png","","","","","","","","","",""
"image-keyboard-response","57","566554","0.0-3.0-4.0-1.0-2.14","5fd85c9f4bf0b61a395593c7","6662009ae78f21dd82fcd179","6662073c81deebdb07871342","null","","null","","","","","","","","./tasks/HMM-beads/Images/BlackBeadChoiceCorrect.png","","","","","","","","","",""
"image-keyboard-response","58","567319","0.0-3.0-4.0-1.0-0.15","5fd85c9f4bf0b61a395593c7","6662009ae78f21dd82fcd179","6662073c81deebdb07871342","764","","f","","","","","","","","./tasks/HMM-beads/Images/NewTrialBC.png","practice","0","15","0","0","0","0","true","",""
"image-keyboard-response","59","567621","0.0-3.0-4.0-1.0-1.15","5fd85c9f4bf0b61a395593c7","6662009ae78f21dd82fcd179","6662073c81deebdb07871342","null","","null","","","","","","","","./tasks/HMM-beads/Images/BlackBeadChoice.png","","","","","","","","","",""
"image-keyboard-response","60","568124","0.0-3.0-4.0-1.0-2.15","5fd85c9f4bf0b61a395593c7","6662009ae78f21dd82fcd179","6662073c81deebdb07871342","null","","null","","","","","","","","./tasks/HMM-beads/Images/BlackBeadChoiceCorrect.png","","","","","","","","","",""
"image-keyboard-response","61","568541","0.0-3.0-4.0-1.0-0.16","5fd85c9f4bf0b61a395593c7","6662009ae78f21dd82fcd179","6662073c81deebdb07871342","415","","f","","","","","","","","./tasks/HMM-beads/Images/NewTrialBC.png","practice","0","16","0","0","0","0","true","",""
"image-keyboard-response","62","568843","0.0-3.0-4.0-1.0-1.16","5fd85c9f4bf0b61a395593c7","6662009ae78f21dd82fcd179","6662073c81deebdb07871342","null","","null","","","","","","","","./tasks/HMM-beads/Images/BlackBeadChoice.png","","","","","","","","","",""
"image-keyboard-response","63","569349","0.0-3.0-4.0-1.0-2.16","5fd85c9f4bf0b61a395593c7","6662009ae78f21dd82fcd179","6662073c81deebdb07871342","null","","null","","","","","","","","./tasks/HMM-beads/Images/BlackBeadChoiceCorrect.png","","","","","","","","","",""
"image-keyboard-response","64","569835","0.0-3.0-4.0-1.0-0.17","5fd85c9f4bf0b61a395593c7","6662009ae78f21dd82fcd179","6662073c81deebdb07871342","435","","f","","","","","","","","./tasks/HMM-beads/Images/NewTrialBC.png","practice","0","17","0","0","0","0","true","",""
"image-keyboard-response","65","570137","0.0-3.0-4.0-1.0-1.17","5fd85c9f4bf0b61a395593c7","6662009ae78f21dd82fcd179","6662073c81deebdb07871342","null","","null","","","","","","","","./tasks/HMM-beads/Images/BlackBeadChoice.png","","","","","","","","","",""
"image-keyboard-response","66","570640","0.0-3.0-4.0-1.0-2.17","5fd85c9f4bf0b61a395593c7","6662009ae78f21dd82fcd179","6662073c81deebdb07871342","null","","null","","","","","","","","./tasks/HMM-beads/Images/BlackBeadChoiceCorrect.png","","","","","","","","","",""
"image-keyboard-response","67","571769","0.0-3.0-4.0-1.0-0.18","5fd85c9f4bf0b61a395593c7","6662009ae78f21dd82fcd179","6662073c81deebdb07871342","1128","","j","","","","","","","","./tasks/HMM-beads/Images/NewTrialBC.png","practice","0","18","0","1","0","1","true","",""
"image-keyboard-response","68","572071","0.0-3.0-4.0-1.0-1.18","5fd85c9f4bf0b61a395593c7","6662009ae78f21dd82fcd179","6662073c81deebdb07871342","null","","null","","","","","","","","./tasks/HMM-beads/Images/WhiteBeadChoice.png","","","","","","","","","",""
"image-keyboard-response","69","572574","0.0-3.0-4.0-1.0-2.18","5fd85c9f4bf0b61a395593c7","6662009ae78f21dd82fcd179","6662073c81deebdb07871342","null","","null","","","","","","","","./tasks/HMM-beads/Images/WhiteBeadChoiceCorrect.png","","","","","","","","","",""
"image-keyboard-response","70","573302","0.0-3.0-4.0-1.0-0.19","5fd85c9f4bf0b61a395593c7","6662009ae78f21dd82fcd179","6662073c81deebdb07871342","726","","j","","","","","","","","./tasks/HMM-beads/Images/NewTrialWC.png","practice","0","19","0","0","1","1","false","",""
"image-keyboard-response","71","573604","0.0-3.0-4.0-1.0-1.19","5fd85c9f4bf0b61a395593c7","6662009ae78f21dd82fcd179","6662073c81deebdb07871342","null","","null","","","","","","","","./tasks/HMM-beads/Images/WhiteBeadChoice.png","","","","","","","","","",""
"image-keyboard-response","72","574107","0.0-3.0-4.0-1.0-2.19","5fd85c9f4bf0b61a395593c7","6662009ae78f21dd82fcd179","6662073c81deebdb07871342","null","","null","","","","","","","","./tasks/HMM-beads/Images/WhiteBeadChoiceWrong.png","","","","","","","","","",""
"image-keyboard-response","73","574122","0.0-3.0-4.0-1.0-0.20","5fd85c9f4bf0b61a395593c7","6662009ae78f21dd82fcd179","6662073c81deebdb07871342","14","","f","","","","","","","","./tasks/HMM-beads/Images/NewTrialBC.png","practice","0","20","0","0","0","0","true","",""
"image-keyboard-response","74","574424","0.0-3.0-4.0-1.0-1.20","5fd85c9f4bf0b61a395593c7","6662009ae78f21dd82fcd179","6662073c81deebdb07871342","null","","null","","","","","","","","./tasks/HMM-beads/Images/BlackBeadChoice.png","","","","","","","","","",""
"image-keyboard-response","75","574926","0.0-3.0-4.0-1.0-2.20","5fd85c9f4bf0b61a395593c7","6662009ae78f21dd82fcd179","6662073c81deebdb07871342","null","","null","","","","","","","","./tasks/HMM-beads/Images/BlackBeadChoiceCorrect.png","","","","","","","","","",""
"image-keyboard-response","76","576450","0.0-3.0-4.0-1.0-0.21","5fd85c9f4bf0b61a395593c7","6662009ae78f21dd82fcd179","6662073c81deebdb07871342","1523","","j","","","","","","","","./tasks/HMM-beads/Images/NewTrialBC.png","practice","0","21","0","1","0","1","true","",""
"image-keyboard-response","77","576760","0.0-3.0-4.0-1.0-1.21","5fd85c9f4bf0b61a395593c7","6662009ae78f21dd82fcd179","6662073c81deebdb07871342","null","","null","","","","","","","","./tasks/HMM-beads/Images/WhiteBeadChoice.png","","","","","","","","","",""
"image-keyboard-response","78","577263","0.0-3.0-4.0-1.0-2.21","5fd85c9f4bf0b61a395593c7","6662009ae78f21dd82fcd179","6662073c81deebdb07871342","null","","null","","","","","","","","./tasks/HMM-beads/Images/WhiteBeadChoiceCorrect.png","","","","","","","","","",""
"image-keyboard-response","79","577378","0.0-3.0-4.0-1.0-0.22","5fd85c9f4bf0b61a395593c7","6662009ae78f21dd82fcd179","6662073c81deebdb07871342","114","","j","","","","","","","","./tasks/HMM-beads/Images/NewTrialWC.png","practice","0","22","1","1","1","1","true","",""
"image-keyboard-response","80","577681","0.0-3.0-4.0-1.0-1.22","5fd85c9f4bf0b61a395593c7","6662009ae78f21dd82fcd179","6662073c81deebdb07871342","null","","null","","","","","","","","./tasks/HMM-beads/Images/WhiteBeadChoice.png","","","","","","","","","",""
"image-keyboard-response","81","578183","0.0-3.0-4.0-1.0-2.22","5fd85c9f4bf0b61a395593c7","6662009ae78f21dd82fcd179","6662073c81deebdb07871342","null","","null","","","","","","","","./tasks/HMM-beads/Images/WhiteBeadChoiceCorrect.png","","","","","","","","","",""
"image-keyboard-response","82","578550","0.0-3.0-4.0-1.0-0.23","5fd85c9f4bf0b61a395593c7","6662009ae78f21dd82fcd179","6662073c81deebdb07871342","366","","j","","","","","","","","./tasks/HMM-beads/Images/NewTrialWC.png","practice","0","23","1","0","1","1","false","",""
"image-keyboard-response","83","578853","0.0-3.0-4.0-1.0-1.23","5fd85c9f4bf0b61a395593c7","6662009ae78f21dd82fcd179","6662073c81deebdb07871342","null","","null","","","","","","","","./tasks/HMM-beads/Images/WhiteBeadChoice.png","","","","","","","","","",""
"image-keyboard-response","84","579355","0.0-3.0-4.0-1.0-2.23","5fd85c9f4bf0b61a395593c7","6662009ae78f21dd82fcd179","6662073c81deebdb07871342","null","","null","","","","","","","","./tasks/HMM-beads/Images/WhiteBeadChoiceWrong.png","","","","","","","","","",""
"image-keyboard-response","85","582749","0.0-3.0-4.0-1.0-0.24","5fd85c9f4bf0b61a395593c7","6662009ae78f21dd82fcd179","6662073c81deebdb07871342","3392","","j","","","","","","","","./tasks/HMM-beads/Images/NewTrialBC.png","practice","0","24","1","1","0","1","true","",""
"image-keyboard-response","86","583051","0.0-3.0-4.0-1.0-1.24","5fd85c9f4bf0b61a395593c7","6662009ae78f21dd82fcd179","6662073c81deebdb07871342","null","","null","","","","","","","","./tasks/HMM-beads/Images/WhiteBeadChoice.png","","","","","","","","","",""
"image-keyboard-response","87","583553","0.0-3.0-4.0-1.0-2.24","5fd85c9f4bf0b61a395593c7","6662009ae78f21dd82fcd179","6662073c81deebdb07871342","null","","null","","","","","","","","./tasks/HMM-beads/Images/WhiteBeadChoiceCorrect.png","","","","","","","","","",""
"image-keyboard-response","88","584208","0.0-3.0-4.0-1.0-0.25","5fd85c9f4bf0b61a395593c7","6662009ae78f21dd82fcd179","6662073c81deebdb07871342","655","","j","","","","","","","","./tasks/HMM-beads/Images/NewTrialWC.png","practice","0","25","1","1","1","1","true","",""
"image-keyboard-response","89","584509","0.0-3.0-4.0-1.0-1.25","5fd85c9f4bf0b61a395593c7","6662009ae78f21dd82fcd179","6662073c81deebdb07871342","null","","null","","","","","","","","./tasks/HMM-beads/Images/WhiteBeadChoice.png","","","","","","","","","",""
"image-keyboard-response","90","585018","0.0-3.0-4.0-1.0-2.25","5fd85c9f4bf0b61a395593c7","6662009ae78f21dd82fcd179","6662073c81deebdb07871342","null","","null","","","","","","","","./tasks/HMM-beads/Images/WhiteBeadChoiceCorrect.png","","","","","","","","","",""
"image-keyboard-response","91","585738","0.0-3.0-4.0-1.0-0.26","5fd85c9f4bf0b61a395593c7","6662009ae78f21dd82fcd179","6662073c81deebdb07871342","719","","j","","","","","","","","./tasks/HMM-beads/Images/NewTrialWC.png","practice","0","26","1","1","1","1","true","",""
"image-keyboard-response","92","586041","0.0-3.0-4.0-1.0-1.26","5fd85c9f4bf0b61a395593c7","6662009ae78f21dd82fcd179","6662073c81deebdb07871342","null","","null","","","","","","","","./tasks/HMM-beads/Images/WhiteBeadChoice.png","","","","","","","","","",""
"image-keyboard-response","93","586543","0.0-3.0-4.0-1.0-2.26","5fd85c9f4bf0b61a395593c7","6662009ae78f21dd82fcd179","6662073c81deebdb07871342","null","","null","","","","","","","","./tasks/HMM-beads/Images/WhiteBeadChoiceCorrect.png","","","","","","","","","",""
"image-keyboard-response","94","587102","0.0-3.0-4.0-1.0-0.27","5fd85c9f4bf0b61a395593c7","6662009ae78f21dd82fcd179","6662073c81deebdb07871342","558","","j","","","","","","","","./tasks/HMM-beads/Images/NewTrialWC.png","practice","0","27","1","1","1","1","true","",""
"image-keyboard-response","95","587404","0.0-3.0-4.0-1.0-1.27","5fd85c9f4bf0b61a395593c7","6662009ae78f21dd82fcd179","6662073c81deebdb07871342","null","","null","","","","","","","","./tasks/HMM-beads/Images/WhiteBeadChoice.png","","","","","","","","","",""
"image-keyboard-response","96","587907","0.0-3.0-4.0-1.0-2.27","5fd85c9f4bf0b61a395593c7","6662009ae78f21dd82fcd179","6662073c81deebdb07871342","null","","null","","","","","","","","./tasks/HMM-beads/Images/WhiteBeadChoiceCorrect.png","","","","","","","","","",""
"image-keyboard-response","97","589407","0.0-3.0-4.0-1.0-0.28","5fd85c9f4bf0b61a395593c7","6662009ae78f21dd82fcd179","6662073c81deebdb07871342","1499","","j","","","","","","","","./tasks/HMM-beads/Images/NewTrialWC.png","practice","0","28","1","0","1","1","false","",""
"image-keyboard-response","98","589709","0.0-3.0-4.0-1.0-1.28","5fd85c9f4bf0b61a395593c7","6662009ae78f21dd82fcd179","6662073c81deebdb07871342","null","","null","","","","","","","","./tasks/HMM-beads/Images/WhiteBeadChoice.png","","","","","","","","","",""
"image-keyboard-response","99","590212","0.0-3.0-4.0-1.0-2.28","5fd85c9f4bf0b61a395593c7","6662009ae78f21dd82fcd179","6662073c81deebdb07871342","null","","null","","","","","","","","./tasks/HMM-beads/Images/WhiteBeadChoiceWrong.png","","","","","","","","","",""
"image-keyboard-response","100","592633","0.0-3.0-4.0-1.0-0.29","5fd85c9f4bf0b61a395593c7","6662009ae78f21dd82fcd179","6662073c81deebdb07871342","2420","","j","","","","","","","","./tasks/HMM-beads/Images/NewTrialBC.png","practice","0","29","1","1","0","1","true","",""
"image-keyboard-response","101","592937","0.0-3.0-4.0-1.0-1.29","5fd85c9f4bf0b61a395593c7","6662009ae78f21dd82fcd179","6662073c81deebdb07871342","null","","null","","","","","","","","./tasks/HMM-beads/Images/WhiteBeadChoice.png","","","","","","","","","",""
"image-keyboard-response","102","593438","0.0-3.0-4.0-1.0-2.29","5fd85c9f4bf0b61a395593c7","6662009ae78f21dd82fcd179","6662073c81deebdb07871342","null","","null","","","","","","","","./tasks/HMM-beads/Images/WhiteBeadChoiceCorrect.png","","","","","","","","","",""
"image-keyboard-response","103","594435","0.0-3.0-4.0-1.0-0.30","5fd85c9f4bf0b61a395593c7","6662009ae78f21dd82fcd179","6662073c81deebdb07871342","987","","j","","","","","","","","./tasks/HMM-beads/Images/NewTrialWC.png","practice","0","30","1","0","1","1","false","",""
"image-keyboard-response","104","594738","0.0-3.0-4.0-1.0-1.30","5fd85c9f4bf0b61a395593c7","6662009ae78f21dd82fcd179","6662073c81deebdb07871342","null","","null","","","","","","","","./tasks/HMM-beads/Images/WhiteBeadChoice.png","","","","","","","","","",""
"image-keyboard-response","105","595240","0.0-3.0-4.0-1.0-2.30","5fd85c9f4bf0b61a395593c7","6662009ae78f21dd82fcd179","6662073c81deebdb07871342","null","","null","","","","","","","","./tasks/HMM-beads/Images/WhiteBeadChoiceWrong.png","","","","","","","","","",""
"image-keyboard-response","106","596251","0.0-3.0-4.0-1.0-0.31","5fd85c9f4bf0b61a395593c7","6662009ae78f21dd82fcd179","6662073c81deebdb07871342","1010","","j","","","","","","","","./tasks/HMM-beads/Images/NewTrialBC.png","practice","0","31","1","1","0","1","true","",""
"image-keyboard-response","107","596552","0.0-3.0-4.0-1.0-1.31","5fd85c9f4bf0b61a395593c7","6662009ae78f21dd82fcd179","6662073c81deebdb07871342","null","","null","","","","","","","","./tasks/HMM-beads/Images/WhiteBeadChoice.png","","","","","","","","","",""
"image-keyboard-response","108","597054","0.0-3.0-4.0-1.0-2.31","5fd85c9f4bf0b61a395593c7","6662009ae78f21dd82fcd179","6662073c81deebdb07871342","null","","null","","","","","","","","./tasks/HMM-beads/Images/WhiteBeadChoiceCorrect.png","","","","","","","","","",""
"image-keyboard-response","109","598009","0.0-3.0-4.0-1.0-0.32","5fd85c9f4bf0b61a395593c7","6662009ae78f21dd82fcd179","6662073c81deebdb07871342","954","","j","","","","","","","","./tasks/HMM-beads/Images/NewTrialWC.png","practice","0","32","1","1","1","1","true","",""
"image-keyboard-response","110","598311","0.0-3.0-4.0-1.0-1.32","5fd85c9f4bf0b61a395593c7","6662009ae78f21dd82fcd179","6662073c81deebdb07871342","null","","null","","","","","","","","./tasks/HMM-beads/Images/WhiteBeadChoice.png","","","","","","","","","",""
"image-keyboard-response","111","598813","0.0-3.0-4.0-1.0-2.32","5fd85c9f4bf0b61a395593c7","6662009ae78f21dd82fcd179","6662073c81deebdb07871342","null","","null","","","","","","","","./tasks/HMM-beads/Images/WhiteBeadChoiceCorrect.png","","","","","","","","","",""
"image-keyboard-response","112","599265","0.0-3.0-4.0-1.0-0.33","5fd85c9f4bf0b61a395593c7","6662009ae78f21dd82fcd179","6662073c81deebdb07871342","450","","j","","","","","","","","./tasks/HMM-beads/Images/NewTrialWC.png","practice","0","33","1","1","1","1","true","",""
"image-keyboard-response","113","599567","0.0-3.0-4.0-1.0-1.33","5fd85c9f4bf0b61a395593c7","6662009ae78f21dd82fcd179","6662073c81deebdb07871342","null","","null","","","","","","","","./tasks/HMM-beads/Images/WhiteBeadChoice.png","","","","","","","","","",""
"image-keyboard-response","114","600069","0.0-3.0-4.0-1.0-2.33","5fd85c9f4bf0b61a395593c7","6662009ae78f21dd82fcd179","6662073c81deebdb07871342","null","","null","","","","","","","","./tasks/HMM-beads/Images/WhiteBeadChoiceCorrect.png","","","","","","","","","",""
"image-keyboard-response","115","601139","0.0-3.0-4.0-1.0-0.34","5fd85c9f4bf0b61a395593c7","6662009ae78f21dd82fcd179","6662073c81deebdb07871342","1069","","j","","","","","","","","./tasks/HMM-beads/Images/NewTrialWC.png","practice","0","34","1","1","1","1","true","",""
"image-keyboard-response","116","601449","0.0-3.0-4.0-1.0-1.34","5fd85c9f4bf0b61a395593c7","6662009ae78f21dd82fcd179","6662073c81deebdb07871342","null","","null","","","","","","","","./tasks/HMM-beads/Images/WhiteBeadChoice.png","","","","","","","","","",""
"image-keyboard-response","117","601952","0.0-3.0-4.0-1.0-2.34","5fd85c9f4bf0b61a395593c7","6662009ae78f21dd82fcd179","6662073c81deebdb07871342","null","","null","","","","","","","","./tasks/HMM-beads/Images/WhiteBeadChoiceCorrect.png","","","","","","","","","",""
"image-keyboard-response","118","602743","0.0-3.0-4.0-1.0-0.35","5fd85c9f4bf0b61a395593c7","6662009ae78f21dd82fcd179","6662073c81deebdb07871342","789","","j","","","","","","","","./tasks/HMM-beads/Images/NewTrialWC.png","practice","0","35","1","1","1","1","true","",""
"image-keyboard-response","119","603045","0.0-3.0-4.0-1.0-1.35","5fd85c9f4bf0b61a395593c7","6662009ae78f21dd82fcd179","6662073c81deebdb07871342","null","","null","","","","","","","","./tasks/HMM-beads/Images/WhiteBeadChoice.png","","","","","","","","","",""
"image-keyboard-response","120","603549","0.0-3.0-4.0-1.0-2.35","5fd85c9f4bf0b61a395593c7","6662009ae78f21dd82fcd179","6662073c81deebdb07871342","null","","null","","","","","","","","./tasks/HMM-beads/Images/WhiteBeadChoiceCorrect.png","","","","","","","","","",""
"image-keyboard-response","121","603947","0.0-3.0-4.0-1.0-0.36","5fd85c9f4bf0b61a395593c7","6662009ae78f21dd82fcd179","6662073c81deebdb07871342","397","","j","","","","","","","","./tasks/HMM-beads/Images/NewTrialWC.png","practice","0","36","1","0","1","1","false","",""
"image-keyboard-response","122","604249","0.0-3.0-4.0-1.0-1.36","5fd85c9f4bf0b61a395593c7","6662009ae78f21dd82fcd179","6662073c81deebdb07871342","null","","null","","","","","","","","./tasks/HMM-beads/Images/WhiteBeadChoice.png","","","","","","","","","",""
"image-keyboard-response","123","604752","0.0-3.0-4.0-1.0-2.36","5fd85c9f4bf0b61a395593c7","6662009ae78f21dd82fcd179","6662073c81deebdb07871342","null","","null","","","","","","","","./tasks/HMM-beads/Images/WhiteBeadChoiceWrong.png","","","","","","","","","",""
"image-keyboard-response","124","607373","0.0-3.0-4.0-1.0-0.37","5fd85c9f4bf0b61a395593c7","6662009ae78f21dd82fcd179","6662073c81deebdb07871342","2619","","j","","","","","","","","./tasks/HMM-beads/Images/NewTrialBC.png","practice","0","37","1","1","0","1","true","",""
"image-keyboard-response","125","607675","0.0-3.0-4.0-1.0-1.37","5fd85c9f4bf0b61a395593c7","6662009ae78f21dd82fcd179","6662073c81deebdb07871342","null","","null","","","","","","","","./tasks/HMM-beads/Images/WhiteBeadChoice.png","","","","","","","","","",""
"image-keyboard-response","126","608176","0.0-3.0-4.0-1.0-2.37","5fd85c9f4bf0b61a395593c7","6662009ae78f21dd82fcd179","6662073c81deebdb07871342","null","","null","","","","","","","","./tasks/HMM-beads/Images/WhiteBeadChoiceCorrect.png","","","","","","","","","",""
"image-keyboard-response","127","608568","0.0-3.0-4.0-1.0-0.38","5fd85c9f4bf0b61a395593c7","6662009ae78f21dd82fcd179","6662073c81deebdb07871342","391","","j","","","","","","","","./tasks/HMM-beads/Images/NewTrialWC.png","practice","0","38","1","1","1","1","true","",""
"image-keyboard-response","128","608870","0.0-3.0-4.0-1.0-1.38","5fd85c9f4bf0b61a395593c7","6662009ae78f21dd82fcd179","6662073c81deebdb07871342","null","","null","","","","","","","","./tasks/HMM-beads/Images/WhiteBeadChoice.png","","","","","","","","","",""
"image-keyboard-response","129","609379","0.0-3.0-4.0-1.0-2.38","5fd85c9f4bf0b61a395593c7","6662009ae78f21dd82fcd179","6662073c81deebdb07871342","null","","null","","","","","","","","./tasks/HMM-beads/Images/WhiteBeadChoiceCorrect.png","","","","","","","","","",""
"image-keyboard-response","130","609751","0.0-3.0-4.0-1.0-0.39","5fd85c9f4bf0b61a395593c7","6662009ae78f21dd82fcd179","6662073c81deebdb07871342","371","","j","","","","","","","","./tasks/HMM-beads/Images/NewTrialWC.png","practice","0","39","1","1","1","1","true","",""
"image-keyboard-response","131","610053","0.0-3.0-4.0-1.0-1.39","5fd85c9f4bf0b61a395593c7","6662009ae78f21dd82fcd179","6662073c81deebdb07871342","null","","null","","","","","","","","./tasks/HMM-beads/Images/WhiteBeadChoice.png","","","","","","","","","",""
"image-keyboard-response","132","610555","0.0-3.0-4.0-1.0-2.39","5fd85c9f4bf0b61a395593c7","6662009ae78f21dd82fcd179","6662073c81deebdb07871342","null","","null","","","","","","","","./tasks/HMM-beads/Images/WhiteBeadChoiceCorrect.png","","","","","","","","","",""
"html-keyboard-response","133","615035","0.0-3.0-4.0-2.0","5fd85c9f4bf0b61a395593c7","6662009ae78f21dd82fcd179","6662073c81deebdb07871342","4469",""," ","","","","","","","","","","","","","","","","","",""
"instructions","134","638235","0.0-3.0-5.0","5fd85c9f4bf0b61a395593c7","6662009ae78f21dd82fcd179","6662073c81deebdb07871342","23196","","","","[{""page_index"":0,""viewing_time"":18079},{""page_index"":1,""viewing_time"":5115}]","","","","","","","","","","","","","","","",""
"html-keyboard-response","135","650556","0.0-3.0-6.0-0.0","5fd85c9f4bf0b61a395593c7","6662009ae78f21dd82fcd179","6662073c81deebdb07871342","12304",""," ","","","","","","","","<div align=center>In this block, there will be a <b>1% chance</b> that the jar on the next trial will be different from the jar on the current trial.<br><br></div>","","","","","","","","","",""
"image-keyboard-response","136","652826","0.0-3.0-6.0-1.0-0.0","5fd85c9f4bf0b61a395593c7","6662009ae78f21dd82fcd179","6662073c81deebdb07871342","2267","","f","","","","","","","","./tasks/HMM-beads/Images/NoChoice.png","lowH","1","0","1","0","9","0","true","",""
"image-keyboard-response","137","653130","0.0-3.0-6.0-1.0-1.0","5fd85c9f4bf0b61a395593c7","6662009ae78f21dd82fcd179","6662073c81deebdb07871342","null","","null","","","","","","","","./tasks/HMM-beads/Images/BlackBeadChoice.png","","","","","","","","","",""
"image-keyboard-response","138","653632","0.0-3.0-6.0-1.0-2.0","5fd85c9f4bf0b61a395593c7","6662009ae78f21dd82fcd179","6662073c81deebdb07871342","null","","null","","","","","","","","./tasks/HMM-beads/Images/BlackBeadChoiceCorrect.png","","","","","","","","","",""
"image-keyboard-response","139","655246","0.0-3.0-6.0-1.0-0.1","5fd85c9f4bf0b61a395593c7","6662009ae78f21dd82fcd179","6662073c81deebdb07871342","1612","","f","","","","","","","","./tasks/HMM-beads/Images/NewTrialBC.png","lowH","1","1","1","1","0","0","false","",""
"image-keyboard-response","140","655548","0.0-3.0-6.0-1.0-1.1","5fd85c9f4bf0b61a395593c7","6662009ae78f21dd82fcd179","6662073c81deebdb07871342","null","","null","","","","","","","","./tasks/HMM-beads/Images/BlackBeadChoice.png","","","","","","","","","",""
"image-keyboard-response","141","656050","0.0-3.0-6.0-1.0-2.1","5fd85c9f4bf0b61a395593c7","6662009ae78f21dd82fcd179","6662073c81deebdb07871342","null","","null","","","","","","","","./tasks/HMM-beads/Images/BlackBeadChoiceWrong.png","","","","","","","","","",""
"image-keyboard-response","142","657143","0.0-3.0-6.0-1.0-0.2","5fd85c9f4bf0b61a395593c7","6662009ae78f21dd82fcd179","6662073c81deebdb07871342","1091","","f","","","","","","","","./tasks/HMM-beads/Images/NewTrialWC.png","lowH","1","2","1","1","1","0","false","",""
"image-keyboard-response","143","657445","0.0-3.0-6.0-1.0-1.2","5fd85c9f4bf0b61a395593c7","6662009ae78f21dd82fcd179","6662073c81deebdb07871342","null","","null","","","","","","","","./tasks/HMM-beads/Images/BlackBeadChoice.png","","","","","","","","","",""
"image-keyboard-response","144","657948","0.0-3.0-6.0-1.0-2.2","5fd85c9f4bf0b61a395593c7","6662009ae78f21dd82fcd179","6662073c81deebdb07871342","null","","null","","","","","","","","./tasks/HMM-beads/Images/BlackBeadChoiceWrong.png","","","","","","","","","",""
"image-keyboard-response","145","658342","0.0-3.0-6.0-1.0-0.3","5fd85c9f4bf0b61a395593c7","6662009ae78f21dd82fcd179","6662073c81deebdb07871342","391","","j","","","","","","","","./tasks/HMM-beads/Images/NewTrialWC.png","lowH","1","3","1","1","1","1","true","",""
"image-keyboard-response","146","658643","0.0-3.0-6.0-1.0-1.3","5fd85c9f4bf0b61a395593c7","6662009ae78f21dd82fcd179","6662073c81deebdb07871342","null","","null","","","","","","","","./tasks/HMM-beads/Images/WhiteBeadChoice.png","","","","","","","","","",""
"image-keyboard-response","147","659145","0.0-3.0-6.0-1.0-2.3","5fd85c9f4bf0b61a395593c7","6662009ae78f21dd82fcd179","6662073c81deebdb07871342","null","","null","","","","","","","","./tasks/HMM-beads/Images/WhiteBeadChoiceCorrect.png","","","","","","","","","",""
"image-keyboard-response","148","659794","0.0-3.0-6.0-1.0-0.4","5fd85c9f4bf0b61a395593c7","6662009ae78f21dd82fcd179","6662073c81deebdb07871342","647","","j","","","","","","","","./tasks/HMM-beads/Images/NewTrialWC.png","lowH","1","4","1","1","1","1","true","",""
"image-keyboard-response","149","660095","0.0-3.0-6.0-1.0-1.4","5fd85c9f4bf0b61a395593c7","6662009ae78f21dd82fcd179","6662073c81deebdb07871342","null","","null","","","","","","","","./tasks/HMM-beads/Images/WhiteBeadChoice.png","","","","","","","","","",""
"image-keyboard-response","150","660597","0.0-3.0-6.0-1.0-2.4","5fd85c9f4bf0b61a395593c7","6662009ae78f21dd82fcd179","6662073c81deebdb07871342","null","","null","","","","","","","","./tasks/HMM-beads/Images/WhiteBeadChoiceCorrect.png","","","","","","","","","",""
"image-keyboard-response","151","661271","0.0-3.0-6.0-1.0-0.5","5fd85c9f4bf0b61a395593c7","6662009ae78f21dd82fcd179","6662073c81deebdb07871342","673","","j","","","","","","","","./tasks/HMM-beads/Images/NewTrialWC.png","lowH","1","5","1","1","1","1","true","",""
"image-keyboard-response","152","661574","0.0-3.0-6.0-1.0-1.5","5fd85c9f4bf0b61a395593c7","6662009ae78f21dd82fcd179","6662073c81deebdb07871342","null","","null","","","","","","","","./tasks/HMM-beads/Images/WhiteBeadChoice.png","","","","","","","","","",""
"image-keyboard-response","153","662076","0.0-3.0-6.0-1.0-2.5","5fd85c9f4bf0b61a395593c7","6662009ae78f21dd82fcd179","6662073c81deebdb07871342","null","","null","","","","","","","","./tasks/HMM-beads/Images/WhiteBeadChoiceCorrect.png","","","","","","","","","",""
"image-keyboard-response","154","663171","0.0-3.0-6.0-1.0-0.6","5fd85c9f4bf0b61a395593c7","6662009ae78f21dd82fcd179","6662073c81deebdb07871342","1093","","j","","","","","","","","./tasks/HMM-beads/Images/NewTrialWC.png","lowH","1","6","1","0","1","1","false","",""
"image-keyboard-response","155","663473","0.0-3.0-6.0-1.0-1.6","5fd85c9f4bf0b61a395593c7","6662009ae78f21dd82fcd179","6662073c81deebdb07871342","null","","null","","","","","","","","./tasks/HMM-beads/Images/WhiteBeadChoice.png","","","","","","","","","",""
"image-keyboard-response","156","663976","0.0-3.0-6.0-1.0-2.6","5fd85c9f4bf0b61a395593c7","6662009ae78f21dd82fcd179","6662073c81deebdb07871342","null","","null","","","","","","","","./tasks/HMM-beads/Images/WhiteBeadChoiceWrong.png","","","","","","","","","",""
"image-keyboard-response","157","665148","0.0-3.0-6.0-1.0-0.7","5fd85c9f4bf0b61a395593c7","6662009ae78f21dd82fcd179","6662073c81deebdb07871342","1170","","j","","","","","","","","./tasks/HMM-beads/Images/NewTrialBC.png","lowH","1","7","1","1","0","1","true","",""
"image-keyboard-response","158","665458","0.0-3.0-6.0-1.0-1.7","5fd85c9f4bf0b61a395593c7","6662009ae78f21dd82fcd179","6662073c81deebdb07871342","null","","null","","","","","","","","./tasks/HMM-beads/Images/WhiteBeadChoice.png","","","","","","","","","",""
"image-keyboard-response","159","665961","0.0-3.0-6.0-1.0-2.7","5fd85c9f4bf0b61a395593c7","6662009ae78f21dd82fcd179","6662073c81deebdb07871342","null","","null","","","","","","","","./tasks/HMM-beads/Images/WhiteBeadChoiceCorrect.png","","","","","","","","","",""
"image-keyboard-response","160","666483","0.0-3.0-6.0-1.0-0.8","5fd85c9f4bf0b61a395593c7","6662009ae78f21dd82fcd179","6662073c81deebdb07871342","521","","j","","","","","","","","./tasks/HMM-beads/Images/NewTrialWC.png","lowH","1","8","1","1","1","1","true","",""
"image-keyboard-response","161","666785","0.0-3.0-6.0-1.0-1.8","5fd85c9f4bf0b61a395593c7","6662009ae78f21dd82fcd179","6662073c81deebdb07871342","null","","null","","","","","","","","./tasks/HMM-beads/Images/WhiteBeadChoice.png","","","","","","","","","",""
"image-keyboard-response","162","667287","0.0-3.0-6.0-1.0-2.8","5fd85c9f4bf0b61a395593c7","6662009ae78f21dd82fcd179","6662073c81deebdb07871342","null","","null","","","","","","","","./tasks/HMM-beads/Images/WhiteBeadChoiceCorrect.png","","","","","","","","","",""
"image-keyboard-response","163","667697","0.0-3.0-6.0-1.0-0.9","5fd85c9f4bf0b61a395593c7","6662009ae78f21dd82fcd179","6662073c81deebdb07871342","409","","j","","","","","","","","./tasks/HMM-beads/Images/NewTrialWC.png","lowH","1","9","1","1","1","1","true","",""
"image-keyboard-response","164","667999","0.0-3.0-6.0-1.0-1.9","5fd85c9f4bf0b61a395593c7","6662009ae78f21dd82fcd179","6662073c81deebdb07871342","null","","null","","","","","","","","./tasks/HMM-beads/Images/WhiteBeadChoice.png","","","","","","","","","",""
"image-keyboard-response","165","668501","0.0-3.0-6.0-1.0-2.9","5fd85c9f4bf0b61a395593c7","6662009ae78f21dd82fcd179","6662073c81deebdb07871342","null","","null","","","","","","","","./tasks/HMM-beads/Images/WhiteBeadChoiceCorrect.png","","","","","","","","","",""
"image-keyboard-response","166","668865","0.0-3.0-6.0-1.0-0.10","5fd85c9f4bf0b61a395593c7","6662009ae78f21dd82fcd179","6662073c81deebdb07871342","363","","j","","","","","","","","./tasks/HMM-beads/Images/NewTrialWC.png","lowH","1","10","1","1","1","1","true","",""
"image-keyboard-response","167","669168","0.0-3.0-6.0-1.0-1.10","5fd85c9f4bf0b61a395593c7","6662009ae78f21dd82fcd179","6662073c81deebdb07871342","null","","null","","","","","","","","./tasks/HMM-beads/Images/WhiteBeadChoice.png","","","","","","","","","",""
"image-keyboard-response","168","669670","0.0-3.0-6.0-1.0-2.10","5fd85c9f4bf0b61a395593c7","6662009ae78f21dd82fcd179","6662073c81deebdb07871342","null","","null","","","","","","","","./tasks/HMM-beads/Images/WhiteBeadChoiceCorrect.png","","","","","","","","","",""
"image-keyboard-response","169","669958","0.0-3.0-6.0-1.0-0.11","5fd85c9f4bf0b61a395593c7","6662009ae78f21dd82fcd179","6662073c81deebdb07871342","287","","j","","","","","","","","./tasks/HMM-beads/Images/NewTrialWC.png","lowH","1","11","1","1","1","1","true","",""
"image-keyboard-response","170","670260","0.0-3.0-6.0-1.0-1.11","5fd85c9f4bf0b61a395593c7","6662009ae78f21dd82fcd179","6662073c81deebdb07871342","null","","null","","","","","","","","./tasks/HMM-beads/Images/WhiteBeadChoice.png","","","","","","","","","",""
"image-keyboard-response","171","670771","0.0-3.0-6.0-1.0-2.11","5fd85c9f4bf0b61a395593c7","6662009ae78f21dd82fcd179","6662073c81deebdb07871342","null","","null","","","","","","","","./tasks/HMM-beads/Images/WhiteBeadChoiceCorrect.png","","","","","","","","","",""
"image-keyboard-response","172","671082","0.0-3.0-6.0-1.0-0.12","5fd85c9f4bf0b61a395593c7","6662009ae78f21dd82fcd179","6662073c81deebdb07871342","310","","j","","","","","","","","./tasks/HMM-beads/Images/NewTrialWC.png","lowH","1","12","1","1","1","1","true","",""
"image-keyboard-response","173","671384","0.0-3.0-6.0-1.0-1.12","5fd85c9f4bf0b61a395593c7","6662009ae78f21dd82fcd179","6662073c81deebdb07871342","null","","null","","","","","","","","./tasks/HMM-beads/Images/WhiteBeadChoice.png","","","","","","","","","",""
"image-keyboard-response","174","671886","0.0-3.0-6.0-1.0-2.12","5fd85c9f4bf0b61a395593c7","6662009ae78f21dd82fcd179","6662073c81deebdb07871342","null","","null","","","","","","","","./tasks/HMM-beads/Images/WhiteBeadChoiceCorrect.png","","","","","","","","","",""
"image-keyboard-response","175","672091","0.0-3.0-6.0-1.0-0.13","5fd85c9f4bf0b61a395593c7","6662009ae78f21dd82fcd179","6662073c81deebdb07871342","204","","j","","","","","","","","./tasks/HMM-beads/Images/NewTrialWC.png","lowH","1","13","1","0","1","1","false","",""
"image-keyboard-response","176","672394","0.0-3.0-6.0-1.0-1.13","5fd85c9f4bf0b61a395593c7","6662009ae78f21dd82fcd179","6662073c81deebdb07871342","null","","null","","","","","","","","./tasks/HMM-beads/Images/WhiteBeadChoice.png","","","","","","","","","",""
"image-keyboard-response","177","672895","0.0-3.0-6.0-1.0-2.13","5fd85c9f4bf0b61a395593c7","6662009ae78f21dd82fcd179","6662073c81deebdb07871342","null","","null","","","","","","","","./tasks/HMM-beads/Images/WhiteBeadChoiceWrong.png","","","","","","","","","",""
"image-keyboard-response","178","674120","0.0-3.0-6.0-1.0-0.14","5fd85c9f4bf0b61a395593c7","6662009ae78f21dd82fcd179","6662073c81deebdb07871342","1223","","j","","","","","","","","./tasks/HMM-beads/Images/NewTrialBC.png","lowH","1","14","1","0","0","1","false","",""
"image-keyboard-response","179","674422","0.0-3.0-6.0-1.0-1.14","5fd85c9f4bf0b61a395593c7","6662009ae78f21dd82fcd179","6662073c81deebdb07871342","null","","null","","","","","","","","./tasks/HMM-beads/Images/WhiteBeadChoice.png","","","","","","","","","",""
"image-keyboard-response","180","674924","0.0-3.0-6.0-1.0-2.14","5fd85c9f4bf0b61a395593c7","6662009ae78f21dd82fcd179","6662073c81deebdb07871342","null","","null","","","","","","","","./tasks/HMM-beads/Images/WhiteBeadChoiceWrong.png","","","","","","","","","",""
"image-keyboard-response","181","675946","0.0-3.0-6.0-1.0-0.15","5fd85c9f4bf0b61a395593c7","6662009ae78f21dd82fcd179","6662073c81deebdb07871342","1020","","f","","","","","","","","./tasks/HMM-beads/Images/NewTrialBC.png","lowH","1","15","1","1","0","0","false","",""
"image-keyboard-response","182","676248","0.0-3.0-6.0-1.0-1.15","5fd85c9f4bf0b61a395593c7","6662009ae78f21dd82fcd179","6662073c81deebdb07871342","null","","null","","","","","","","","./tasks/HMM-beads/Images/BlackBeadChoice.png","","","","","","","","","",""
"image-keyboard-response","183","676751","0.0-3.0-6.0-1.0-2.15","5fd85c9f4bf0b61a395593c7","6662009ae78f21dd82fcd179","6662073c81deebdb07871342","null","","null","","","","","","","","./tasks/HMM-beads/Images/BlackBeadChoiceWrong.png","","","","","","","","","",""
"image-keyboard-response","184","676781","0.0-3.0-6.0-1.0-0.16","5fd85c9f4bf0b61a395593c7","6662009ae78f21dd82fcd179","6662073c81deebdb07871342","21","","j","","","","","","","","./tasks/HMM-beads/Images/NewTrialWC.png","lowH","1","16","1","1","1","1","true","",""
"image-keyboard-response","185","677083","0.0-3.0-6.0-1.0-1.16","5fd85c9f4bf0b61a395593c7","6662009ae78f21dd82fcd179","6662073c81deebdb07871342","null","","null","","","","","","","","./tasks/HMM-beads/Images/WhiteBeadChoice.png","","","","","","","","","",""
"image-keyboard-response","186","677586","0.0-3.0-6.0-1.0-2.16","5fd85c9f4bf0b61a395593c7","6662009ae78f21dd82fcd179","6662073c81deebdb07871342","null","","null","","","","","","","","./tasks/HMM-beads/Images/WhiteBeadChoiceCorrect.png","","","","","","","","","",""
"image-keyboard-response","187","677960","0.0-3.0-6.0-1.0-0.17","5fd85c9f4bf0b61a395593c7","6662009ae78f21dd82fcd179","6662073c81deebdb07871342","372","","j","","","","","","","","./tasks/HMM-beads/Images/NewTrialWC.png","lowH","1","17","1","1","1","1","true","",""
"image-keyboard-response","188","678261","0.0-3.0-6.0-1.0-1.17","5fd85c9f4bf0b61a395593c7","6662009ae78f21dd82fcd179","6662073c81deebdb07871342","null","","null","","","","","","","","./tasks/HMM-beads/Images/WhiteBeadChoice.png","","","","","","","","","",""
"image-keyboard-response","189","678763","0.0-3.0-6.0-1.0-2.17","5fd85c9f4bf0b61a395593c7","6662009ae78f21dd82fcd179","6662073c81deebdb07871342","null","","null","","","","","","","","./tasks/HMM-beads/Images/WhiteBeadChoiceCorrect.png","","","","","","","","","",""
"image-keyboard-response","190","679097","0.0-3.0-6.0-1.0-0.18","5fd85c9f4bf0b61a395593c7","6662009ae78f21dd82fcd179","6662073c81deebdb07871342","333","","j","","","","","","","","./tasks/HMM-beads/Images/NewTrialWC.png","lowH","1","18","1","1","1","1","true","",""
"image-keyboard-response","191","679398","0.0-3.0-6.0-1.0-1.18","5fd85c9f4bf0b61a395593c7","6662009ae78f21dd82fcd179","6662073c81deebdb07871342","null","","null","","","","","","","","./tasks/HMM-beads/Images/WhiteBeadChoice.png","","","","","","","","","",""
"image-keyboard-response","192","679901","0.0-3.0-6.0-1.0-2.18","5fd85c9f4bf0b61a395593c7","6662009ae78f21dd82fcd179","6662073c81deebdb07871342","null","","null","","","","","","","","./tasks/HMM-beads/Images/WhiteBeadChoiceCorrect.png","","","","","","","","","",""
"image-keyboard-response","193","680333","0.0-3.0-6.0-1.0-0.19","5fd85c9f4bf0b61a395593c7","6662009ae78f21dd82fcd179","6662073c81deebdb07871342","431","","j","","","","","","","","./tasks/HMM-beads/Images/NewTrialWC.png","lowH","1","19","1","1","1","1","true","",""
"image-keyboard-response","194","680635","0.0-3.0-6.0-1.0-1.19","5fd85c9f4bf0b61a395593c7","6662009ae78f21dd82fcd179","6662073c81deebdb07871342","null","","null","","","","","","","","./tasks/HMM-beads/Images/WhiteBeadChoice.png","","","","","","","","","",""
"image-keyboard-response","195","681137","0.0-3.0-6.0-1.0-2.19","5fd85c9f4bf0b61a395593c7","6662009ae78f21dd82fcd179","6662073c81deebdb07871342","null","","null","","","","","","","","./tasks/HMM-beads/Images/WhiteBeadChoiceCorrect.png","","","","","","","","","",""
"image-keyboard-response","196","681807","0.0-3.0-6.0-1.0-0.20","5fd85c9f4bf0b61a395593c7","6662009ae78f21dd82fcd179","6662073c81deebdb07871342","669","","j","","","","","","","","./tasks/HMM-beads/Images/NewTrialWC.png","lowH","1","20","1","1","1","1","true","",""
"image-keyboard-response","197","682160","0.0-3.0-6.0-1.0-1.20","5fd85c9f4bf0b61a395593c7","6662009ae78f21dd82fcd179","6662073c81deebdb07871342","null","","null","","","","","","","","./tasks/HMM-beads/Images/WhiteBeadChoice.png","","","","","","","","","",""
"image-keyboard-response","198","682737","0.0-3.0-6.0-1.0-2.20","5fd85c9f4bf0b61a395593c7","6662009ae78f21dd82fcd179","6662073c81deebdb07871342","null","","null","","","","","","","","./tasks/HMM-beads/Images/WhiteBeadChoiceCorrect.png","","","","","","","","","",""
"image-keyboard-response","199","683285","0.0-3.0-6.0-1.0-0.21","5fd85c9f4bf0b61a395593c7","6662009ae78f21dd82fcd179","6662073c81deebdb07871342","546","","j","","","","","","","","./tasks/HMM-beads/Images/NewTrialWC.png","lowH","1","21","1","1","1","1","true","",""
"image-keyboard-response","200","683587","0.0-3.0-6.0-1.0-1.21","5fd85c9f4bf0b61a395593c7","6662009ae78f21dd82fcd179","6662073c81deebdb07871342","null","","null","","","","","","","","./tasks/HMM-beads/Images/WhiteBeadChoice.png","","","","","","","","","",""
"image-keyboard-response","201","684089","0.0-3.0-6.0-1.0-2.21","5fd85c9f4bf0b61a395593c7","6662009ae78f21dd82fcd179","6662073c81deebdb07871342","null","","null","","","","","","","","./tasks/HMM-beads/Images/WhiteBeadChoiceCorrect.png","","","","","","","","","",""
"image-keyboard-response","202","684589","0.0-3.0-6.0-1.0-0.22","5fd85c9f4bf0b61a395593c7","6662009ae78f21dd82fcd179","6662073c81deebdb07871342","499","","j","","","","","","","","./tasks/HMM-beads/Images/NewTrialWC.png","lowH","1","22","1","1","1","1","true","",""
"image-keyboard-response","203","684892","0.0-3.0-6.0-1.0-1.22","5fd85c9f4bf0b61a395593c7","6662009ae78f21dd82fcd179","6662073c81deebdb07871342","null","","null","","","","","","","","./tasks/HMM-beads/Images/WhiteBeadChoice.png","","","","","","","","","",""
"image-keyboard-response","204","685394","0.0-3.0-6.0-1.0-2.22","5fd85c9f4bf0b61a395593c7","6662009ae78f21dd82fcd179","6662073c81deebdb07871342","null","","null","","","","","","","","./tasks/HMM-beads/Images/WhiteBeadChoiceCorrect.png","","","","","","","","","",""
"image-keyboard-response","205","685797","0.0-3.0-6.0-1.0-0.23","5fd85c9f4bf0b61a395593c7","6662009ae78f21dd82fcd179","6662073c81deebdb07871342","402","","j","","","","","","","","./tasks/HMM-beads/Images/NewTrialWC.png","lowH","1","23","1","1","1","1","true","",""
"image-keyboard-response","206","686100","0.0-3.0-6.0-1.0-1.23","5fd85c9f4bf0b61a395593c7","6662009ae78f21dd82fcd179","6662073c81deebdb07871342","null","","null","","","","","","","","./tasks/HMM-beads/Images/WhiteBeadChoice.png","","","","","","","","","",""
"image-keyboard-response","207","686602","0.0-3.0-6.0-1.0-2.23","5fd85c9f4bf0b61a395593c7","6662009ae78f21dd82fcd179","6662073c81deebdb07871342","null","","null","","","","","","","","./tasks/HMM-beads/Images/WhiteBeadChoiceCorrect.png","","","","","","","","","",""
"image-keyboard-response","208","686948","0.0-3.0-6.0-1.0-0.24","5fd85c9f4bf0b61a395593c7","6662009ae78f21dd82fcd179","6662073c81deebdb07871342","345","","j","","","","","","","","./tasks/HMM-beads/Images/NewTrialWC.png","lowH","1","24","1","0","1","1","false","",""
"image-keyboard-response","209","687251","0.0-3.0-6.0-1.0-1.24","5fd85c9f4bf0b61a395593c7","6662009ae78f21dd82fcd179","6662073c81deebdb07871342","null","","null","","","","","","","","./tasks/HMM-beads/Images/WhiteBeadChoice.png","","","","","","","","","",""
"image-keyboard-response","210","687777","0.0-3.0-6.0-1.0-2.24","5fd85c9f4bf0b61a395593c7","6662009ae78f21dd82fcd179","6662073c81deebdb07871342","null","","null","","","","","","","","./tasks/HMM-beads/Images/WhiteBeadChoiceWrong.png","","","","","","","","","",""
"image-keyboard-response","211","688560","0.0-3.0-6.0-1.0-0.25","5fd85c9f4bf0b61a395593c7","6662009ae78f21dd82fcd179","6662073c81deebdb07871342","782","","j","","","","","","","","./tasks/HMM-beads/Images/NewTrialBC.png","lowH","1","25","1","1","0","1","true","",""
"image-keyboard-response","212","688862","0.0-3.0-6.0-1.0-1.25","5fd85c9f4bf0b61a395593c7","6662009ae78f21dd82fcd179","6662073c81deebdb07871342","null","","null","","","","","","","","./tasks/HMM-beads/Images/WhiteBeadChoice.png","","","","","","","","","",""
"image-keyboard-response","213","689364","0.0-3.0-6.0-1.0-2.25","5fd85c9f4bf0b61a395593c7","6662009ae78f21dd82fcd179","6662073c81deebdb07871342","null","","null","","","","","","","","./tasks/HMM-beads/Images/WhiteBeadChoiceCorrect.png","","","","","","","","","",""
"image-keyboard-response","214","689525","0.0-3.0-6.0-1.0-0.26","5fd85c9f4bf0b61a395593c7","6662009ae78f21dd82fcd179","6662073c81deebdb07871342","160","","j","","","","","","","","./tasks/HMM-beads/Images/NewTrialWC.png","lowH","1","26","1","0","1","1","false","",""
"image-keyboard-response","215","689827","0.0-3.0-6.0-1.0-1.26","5fd85c9f4bf0b61a395593c7","6662009ae78f21dd82fcd179","6662073c81deebdb07871342","null","","null","","","","","","","","./tasks/HMM-beads/Images/WhiteBeadChoice.png","","","","","","","","","",""
"image-keyboard-response","216","690329","0.0-3.0-6.0-1.0-2.26","5fd85c9f4bf0b61a395593c7","6662009ae78f21dd82fcd179","6662073c81deebdb07871342","null","","null","","","","","","","","./tasks/HMM-beads/Images/WhiteBeadChoiceWrong.png","","","","","","","","","",""
"image-keyboard-response","217","690762","0.0-3.0-6.0-1.0-0.27","5fd85c9f4bf0b61a395593c7","6662009ae78f21dd82fcd179","6662073c81deebdb07871342","432","","f","","","","","","","","./tasks/HMM-beads/Images/NewTrialBC.png","lowH","1","27","1","1","0","0","false","",""
"image-keyboard-response","218","691064","0.0-3.0-6.0-1.0-1.27","5fd85c9f4bf0b61a395593c7","6662009ae78f21dd82fcd179","6662073c81deebdb07871342","null","","null","","","","","","","","./tasks/HMM-beads/Images/BlackBeadChoice.png","","","","","","","","","",""
"image-keyboard-response","219","691566","0.0-3.0-6.0-1.0-2.27","5fd85c9f4bf0b61a395593c7","6662009ae78f21dd82fcd179","6662073c81deebdb07871342","null","","null","","","","","","","","./tasks/HMM-beads/Images/BlackBeadChoiceWrong.png","","","","","","","","","",""
"image-keyboard-response","220","692987","0.0-3.0-6.0-1.0-0.28","5fd85c9f4bf0b61a395593c7","6662009ae78f21dd82fcd179","6662073c81deebdb07871342","1419","","j","","","","","","","","./tasks/HMM-beads/Images/NewTrialWC.png","lowH","1","28","1","1","1","1","true","",""
"image-keyboard-response","221","693289","0.0-3.0-6.0-1.0-1.28","5fd85c9f4bf0b61a395593c7","6662009ae78f21dd82fcd179","6662073c81deebdb07871342","null","","null","","","","","","","","./tasks/HMM-beads/Images/WhiteBeadChoice.png","","","","","","","","","",""
"image-keyboard-response","222","693792","0.0-3.0-6.0-1.0-2.28","5fd85c9f4bf0b61a395593c7","6662009ae78f21dd82fcd179","6662073c81deebdb07871342","null","","null","","","","","","","","./tasks/HMM-beads/Images/WhiteBeadChoiceCorrect.png","","","","","","","","","",""
"image-keyboard-response","223","693814","0.0-3.0-6.0-1.0-0.29","5fd85c9f4bf0b61a395593c7","6662009ae78f21dd82fcd179","6662073c81deebdb07871342","10","","j","","","","","","","","./tasks/HMM-beads/Images/NewTrialWC.png","lowH","1","29","1","1","1","1","true","",""
"image-keyboard-response","224","694116","0.0-3.0-6.0-1.0-1.29","5fd85c9f4bf0b61a395593c7","6662009ae78f21dd82fcd179","6662073c81deebdb07871342","null","","null","","","","","","","","./tasks/HMM-beads/Images/WhiteBeadChoice.png","","","","","","","","","",""
"image-keyboard-response","225","694618","0.0-3.0-6.0-1.0-2.29","5fd85c9f4bf0b61a395593c7","6662009ae78f21dd82fcd179","6662073c81deebdb07871342","null","","null","","","","","","","","./tasks/HMM-beads/Images/WhiteBeadChoiceCorrect.png","","","","","","","","","",""
"image-keyboard-response","226","695305","0.0-3.0-6.0-1.0-0.30","5fd85c9f4bf0b61a395593c7","6662009ae78f21dd82fcd179","6662073c81deebdb07871342","686","","j","","","","","","","","./tasks/HMM-beads/Images/NewTrialWC.png","lowH","1","30","1","1","1","1","true","",""
"image-keyboard-response","227","695608","0.0-3.0-6.0-1.0-1.30","5fd85c9f4bf0b61a395593c7","6662009ae78f21dd82fcd179","6662073c81deebdb07871342","null","","null","","","","","","","","./tasks/HMM-beads/Images/WhiteBeadChoice.png","","","","","","","","","",""
"image-keyboard-response","228","696110","0.0-3.0-6.0-1.0-2.30","5fd85c9f4bf0b61a395593c7","6662009ae78f21dd82fcd179","6662073c81deebdb07871342","null","","null","","","","","","","","./tasks/HMM-beads/Images/WhiteBeadChoiceCorrect.png","","","","","","","","","",""
"image-keyboard-response","229","696518","0.0-3.0-6.0-1.0-0.31","5fd85c9f4bf0b61a395593c7","6662009ae78f21dd82fcd179","6662073c81deebdb07871342","406","","j","","","","","","","","./tasks/HMM-beads/Images/NewTrialWC.png","lowH","1","31","1","1","1","1","true","",""
"image-keyboard-response","230","696819","0.0-3.0-6.0-1.0-1.31","5fd85c9f4bf0b61a395593c7","6662009ae78f21dd82fcd179","6662073c81deebdb07871342","null","","null","","","","","","","","./tasks/HMM-beads/Images/WhiteBeadChoice.png","","","","","","","","","",""
"image-keyboard-response","231","697321","0.0-3.0-6.0-1.0-2.31","5fd85c9f4bf0b61a395593c7","6662009ae78f21dd82fcd179","6662073c81deebdb07871342","null","","null","","","","","","","","./tasks/HMM-beads/Images/WhiteBeadChoiceCorrect.png","","","","","","","","","",""
"image-keyboard-response","232","697770","0.0-3.0-6.0-1.0-0.32","5fd85c9f4bf0b61a395593c7","6662009ae78f21dd82fcd179","6662073c81deebdb07871342","448","","j","","","","","","","","./tasks/HMM-beads/Images/NewTrialWC.png","lowH","1","32","1","1","1","1","true","",""
"image-keyboard-response","233","698073","0.0-3.0-6.0-1.0-1.32","5fd85c9f4bf0b61a395593c7","6662009ae78f21dd82fcd179","6662073c81deebdb07871342","null","","null","","","","","","","","./tasks/HMM-beads/Images/WhiteBeadChoice.png","","","","","","","","","",""
"image-keyboard-response","234","698574","0.0-3.0-6.0-1.0-2.32","5fd85c9f4bf0b61a395593c7","6662009ae78f21dd82fcd179","6662073c81deebdb07871342","null","","null","","","","","","","","./tasks/HMM-beads/Images/WhiteBeadChoiceCorrect.png","","","","","","","","","",""
"image-keyboard-response","235","698835","0.0-3.0-6.0-1.0-0.33","5fd85c9f4bf0b61a395593c7","6662009ae78f21dd82fcd179","6662073c81deebdb07871342","260","","j","","","","","","","","./tasks/HMM-beads/Images/NewTrialWC.png","lowH","1","33","1","1","1","1","true","",""
"image-keyboard-response","236","699144","0.0-3.0-6.0-1.0-1.33","5fd85c9f4bf0b61a395593c7","6662009ae78f21dd82fcd179","6662073c81deebdb07871342","null","","null","","","","","","","","./tasks/HMM-beads/Images/WhiteBeadChoice.png","","","","","","","","","",""
"image-keyboard-response","237","699646","0.0-3.0-6.0-1.0-2.33","5fd85c9f4bf0b61a395593c7","6662009ae78f21dd82fcd179","6662073c81deebdb07871342","null","","null","","","","","","","","./tasks/HMM-beads/Images/WhiteBeadChoiceCorrect.png","","","","","","","","","",""
"image-keyboard-response","238","700058","0.0-3.0-6.0-1.0-0.34","5fd85c9f4bf0b61a395593c7","6662009ae78f21dd82fcd179","6662073c81deebdb07871342","411","","j","","","","","","","","./tasks/HMM-beads/Images/NewTrialWC.png","lowH","1","34","1","1","1","1","true","",""
"image-keyboard-response","239","700360","0.0-3.0-6.0-1.0-1.34","5fd85c9f4bf0b61a395593c7","6662009ae78f21dd82fcd179","6662073c81deebdb07871342","null","","null","","","","","","","","./tasks/HMM-beads/Images/WhiteBeadChoice.png","","","","","","","","","",""
"image-keyboard-response","240","700863","0.0-3.0-6.0-1.0-2.34","5fd85c9f4bf0b61a395593c7","6662009ae78f21dd82fcd179","6662073c81deebdb07871342","null","","null","","","","","","","","./tasks/HMM-beads/Images/WhiteBeadChoiceCorrect.png","","","","","","","","","",""
"image-keyboard-response","241","701191","0.0-3.0-6.0-1.0-0.35","5fd85c9f4bf0b61a395593c7","6662009ae78f21dd82fcd179","6662073c81deebdb07871342","327","","j","","","","","","","","./tasks/HMM-beads/Images/NewTrialWC.png","lowH","1","35","1","1","1","1","true","",""
"image-keyboard-response","242","701493","0.0-3.0-6.0-1.0-1.35","5fd85c9f4bf0b61a395593c7","6662009ae78f21dd82fcd179","6662073c81deebdb07871342","null","","null","","","","","","","","./tasks/HMM-beads/Images/WhiteBeadChoice.png","","","","","","","","","",""
"image-keyboard-response","243","701996","0.0-3.0-6.0-1.0-2.35","5fd85c9f4bf0b61a395593c7","6662009ae78f21dd82fcd179","6662073c81deebdb07871342","null","","null","","","","","","","","./tasks/HMM-beads/Images/WhiteBeadChoiceCorrect.png","","","","","","","","","",""
"image-keyboard-response","244","702303","0.0-3.0-6.0-1.0-0.36","5fd85c9f4bf0b61a395593c7","6662009ae78f21dd82fcd179","6662073c81deebdb07871342","306","","j","","","","","","","","./tasks/HMM-beads/Images/NewTrialWC.png","lowH","1","36","1","1","1","1","true","",""
"image-keyboard-response","245","702605","0.0-3.0-6.0-1.0-1.36","5fd85c9f4bf0b61a395593c7","6662009ae78f21dd82fcd179","6662073c81deebdb07871342","null","","null","","","","","","","","./tasks/HMM-beads/Images/WhiteBeadChoice.png","","","","","","","","","",""
"image-keyboard-response","246","703107","0.0-3.0-6.0-1.0-2.36","5fd85c9f4bf0b61a395593c7","6662009ae78f21dd82fcd179","6662073c81deebdb07871342","null","","null","","","","","","","","./tasks/HMM-beads/Images/WhiteBeadChoiceCorrect.png","","","","","","","","","",""
"image-keyboard-response","247","703720","0.0-3.0-6.0-1.0-0.37","5fd85c9f4bf0b61a395593c7","6662009ae78f21dd82fcd179","6662073c81deebdb07871342","611","","j","","","","","","","","./tasks/HMM-beads/Images/NewTrialWC.png","lowH","1","37","1","1","1","1","true","",""
"image-keyboard-response","248","704023","0.0-3.0-6.0-1.0-1.37","5fd85c9f4bf0b61a395593c7","6662009ae78f21dd82fcd179","6662073c81deebdb07871342","null","","null","","","","","","","","./tasks/HMM-beads/Images/WhiteBeadChoice.png","","","","","","","","","",""
"image-keyboard-response","249","704534","0.0-3.0-6.0-1.0-2.37","5fd85c9f4bf0b61a395593c7","6662009ae78f21dd82fcd179","6662073c81deebdb07871342","null","","null","","","","","","","","./tasks/HMM-beads/Images/WhiteBeadChoiceCorrect.png","","","","","","","","","",""
"image-keyboard-response","250","704981","0.0-3.0-6.0-1.0-0.38","5fd85c9f4bf0b61a395593c7","6662009ae78f21dd82fcd179","6662073c81deebdb07871342","446","","j","","","","","","","","./tasks/HMM-beads/Images/NewTrialWC.png","lowH","1","38","1","1","1","1","true","",""
"image-keyboard-response","251","705282","0.0-3.0-6.0-1.0-1.38","5fd85c9f4bf0b61a395593c7","6662009ae78f21dd82fcd179","6662073c81deebdb07871342","null","","null","","","","","","","","./tasks/HMM-beads/Images/WhiteBeadChoice.png","","","","","","","","","",""
"image-keyboard-response","252","705785","0.0-3.0-6.0-1.0-2.38","5fd85c9f4bf0b61a395593c7","6662009ae78f21dd82fcd179","6662073c81deebdb07871342","null","","null","","","","","","","","./tasks/HMM-beads/Images/WhiteBeadChoiceCorrect.png","","","","","","","","","",""
"image-keyboard-response","253","706195","0.0-3.0-6.0-1.0-0.39","5fd85c9f4bf0b61a395593c7","6662009ae78f21dd82fcd179","6662073c81deebdb07871342","409","","j","","","","","","","","./tasks/HMM-beads/Images/NewTrialWC.png","lowH","1","39","1","1","1","1","true","",""
"image-keyboard-response","254","706497","0.0-3.0-6.0-1.0-1.39","5fd85c9f4bf0b61a395593c7","6662009ae78f21dd82fcd179","6662073c81deebdb07871342","null","","null","","","","","","","","./tasks/HMM-beads/Images/WhiteBeadChoice.png","","","","","","","","","",""
"image-keyboard-response","255","707000","0.0-3.0-6.0-1.0-2.39","5fd85c9f4bf0b61a395593c7","6662009ae78f21dd82fcd179","6662073c81deebdb07871342","null","","null","","","","","","","","./tasks/HMM-beads/Images/WhiteBeadChoiceCorrect.png","","","","","","","","","",""
"image-keyboard-response","256","707340","0.0-3.0-6.0-1.0-0.40","5fd85c9f4bf0b61a395593c7","6662009ae78f21dd82fcd179","6662073c81deebdb07871342","338","","j","","","","","","","","./tasks/HMM-beads/Images/NewTrialWC.png","lowH","1","40","1","1","1","1","true","",""
"image-keyboard-response","257","707642","0.0-3.0-6.0-1.0-1.40","5fd85c9f4bf0b61a395593c7","6662009ae78f21dd82fcd179","6662073c81deebdb07871342","null","","null","","","","","","","","./tasks/HMM-beads/Images/WhiteBeadChoice.png","","","","","","","","","",""
"image-keyboard-response","258","708144","0.0-3.0-6.0-1.0-2.40","5fd85c9f4bf0b61a395593c7","6662009ae78f21dd82fcd179","6662073c81deebdb07871342","null","","null","","","","","","","","./tasks/HMM-beads/Images/WhiteBeadChoiceCorrect.png","","","","","","","","","",""
"image-keyboard-response","259","708408","0.0-3.0-6.0-1.0-0.41","5fd85c9f4bf0b61a395593c7","6662009ae78f21dd82fcd179","6662073c81deebdb07871342","263","","j","","","","","","","","./tasks/HMM-beads/Images/NewTrialWC.png","lowH","1","41","1","1","1","1","true","",""
"image-keyboard-response","260","708712","0.0-3.0-6.0-1.0-1.41","5fd85c9f4bf0b61a395593c7","6662009ae78f21dd82fcd179","6662073c81deebdb07871342","null","","null","","","","","","","","./tasks/HMM-beads/Images/WhiteBeadChoice.png","","","","","","","","","",""
"image-keyboard-response","261","709214","0.0-3.0-6.0-1.0-2.41","5fd85c9f4bf0b61a395593c7","6662009ae78f21dd82fcd179","6662073c81deebdb07871342","null","","null","","","","","","","","./tasks/HMM-beads/Images/WhiteBeadChoiceCorrect.png","","","","","","","","","",""
"image-keyboard-response","262","709429","0.0-3.0-6.0-1.0-0.42","5fd85c9f4bf0b61a395593c7","6662009ae78f21dd82fcd179","6662073c81deebdb07871342","207","","j","","","","","","","","./tasks/HMM-beads/Images/NewTrialWC.png","lowH","1","42","1","1","1","1","true","",""
"image-keyboard-response","263","709732","0.0-3.0-6.0-1.0-1.42","5fd85c9f4bf0b61a395593c7","6662009ae78f21dd82fcd179","6662073c81deebdb07871342","null","","null","","","","","","","","./tasks/HMM-beads/Images/WhiteBeadChoice.png","","","","","","","","","",""
"image-keyboard-response","264","710234","0.0-3.0-6.0-1.0-2.42","5fd85c9f4bf0b61a395593c7","6662009ae78f21dd82fcd179","6662073c81deebdb07871342","null","","null","","","","","","","","./tasks/HMM-beads/Images/WhiteBeadChoiceCorrect.png","","","","","","","","","",""
"image-keyboard-response","265","710414","0.0-3.0-6.0-1.0-0.43","5fd85c9f4bf0b61a395593c7","6662009ae78f21dd82fcd179","6662073c81deebdb07871342","179","","j","","","","","","","","./tasks/HMM-beads/Images/NewTrialWC.png","lowH","1","43","1","1","1","1","true","",""
"image-keyboard-response","266","710715","0.0-3.0-6.0-1.0-1.43","5fd85c9f4bf0b61a395593c7","6662009ae78f21dd82fcd179","6662073c81deebdb07871342","null","","null","","","","","","","","./tasks/HMM-beads/Images/WhiteBeadChoice.png","","","","","","","","","",""
"image-keyboard-response","267","711218","0.0-3.0-6.0-1.0-2.43","5fd85c9f4bf0b61a395593c7","6662009ae78f21dd82fcd179","6662073c81deebdb07871342","null","","null","","","","","","","","./tasks/HMM-beads/Images/WhiteBeadChoiceCorrect.png","","","","","","","","","",""
"image-keyboard-response","268","711448","0.0-3.0-6.0-1.0-0.44","5fd85c9f4bf0b61a395593c7","6662009ae78f21dd82fcd179","6662073c81deebdb07871342","229","","j","","","","","","","","./tasks/HMM-beads/Images/NewTrialWC.png","lowH","1","44","1","1","1","1","true","",""
"image-keyboard-response","269","711751","0.0-3.0-6.0-1.0-1.44","5fd85c9f4bf0b61a395593c7","6662009ae78f21dd82fcd179","6662073c81deebdb07871342","null","","null","","","","","","","","./tasks/HMM-beads/Images/WhiteBeadChoice.png","","","","","","","","","",""
"image-keyboard-response","270","712254","0.0-3.0-6.0-1.0-2.44","5fd85c9f4bf0b61a395593c7","6662009ae78f21dd82fcd179","6662073c81deebdb07871342","null","","null","","","","","","","","./tasks/HMM-beads/Images/WhiteBeadChoiceCorrect.png","","","","","","","","","",""
"image-keyboard-response","271","712365","0.0-3.0-6.0-1.0-0.45","5fd85c9f4bf0b61a395593c7","6662009ae78f21dd82fcd179","6662073c81deebdb07871342","110","","j","","","","","","","","./tasks/HMM-beads/Images/NewTrialWC.png","lowH","1","45","1","1","1","1","true","",""
"image-keyboard-response","272","712667","0.0-3.0-6.0-1.0-1.45","5fd85c9f4bf0b61a395593c7","6662009ae78f21dd82fcd179","6662073c81deebdb07871342","null","","null","","","","","","","","./tasks/HMM-beads/Images/WhiteBeadChoice.png","","","","","","","","","",""
"image-keyboard-response","273","713170","0.0-3.0-6.0-1.0-2.45","5fd85c9f4bf0b61a395593c7","6662009ae78f21dd82fcd179","6662073c81deebdb07871342","null","","null","","","","","","","","./tasks/HMM-beads/Images/WhiteBeadChoiceCorrect.png","","","","","","","","","",""
"image-keyboard-response","274","713414","0.0-3.0-6.0-1.0-0.46","5fd85c9f4bf0b61a395593c7","6662009ae78f21dd82fcd179","6662073c81deebdb07871342","242","","j","","","","","","","","./tasks/HMM-beads/Images/NewTrialWC.png","lowH","1","46","1","1","1","1","true","",""
"image-keyboard-response","275","713723","0.0-3.0-6.0-1.0-1.46","5fd85c9f4bf0b61a395593c7","6662009ae78f21dd82fcd179","6662073c81deebdb07871342","null","","null","","","","","","","","./tasks/HMM-beads/Images/WhiteBeadChoice.png","","","","","","","","","",""
"image-keyboard-response","276","714226","0.0-3.0-6.0-1.0-2.46","5fd85c9f4bf0b61a395593c7","6662009ae78f21dd82fcd179","6662073c81deebdb07871342","null","","null","","","","","","","","./tasks/HMM-beads/Images/WhiteBeadChoiceCorrect.png","","","","","","","","","",""
"image-keyboard-response","277","714339","0.0-3.0-6.0-1.0-0.47","5fd85c9f4bf0b61a395593c7","6662009ae78f21dd82fcd179","6662073c81deebdb07871342","112","","j","","","","","","","","./tasks/HMM-beads/Images/NewTrialWC.png","lowH","1","47","1","0","1","1","false","",""
"image-keyboard-response","278","714641","0.0-3.0-6.0-1.0-1.47","5fd85c9f4bf0b61a395593c7","6662009ae78f21dd82fcd179","6662073c81deebdb07871342","null","","null","","","","","","","","./tasks/HMM-beads/Images/WhiteBeadChoice.png","","","","","","","","","",""
"image-keyboard-response","279","715142","0.0-3.0-6.0-1.0-2.47","5fd85c9f4bf0b61a395593c7","6662009ae78f21dd82fcd179","6662073c81deebdb07871342","null","","null","","","","","","","","./tasks/HMM-beads/Images/WhiteBeadChoiceWrong.png","","","","","","","","","",""
"image-keyboard-response","280","715747","0.0-3.0-6.0-1.0-0.48","5fd85c9f4bf0b61a395593c7","6662009ae78f21dd82fcd179","6662073c81deebdb07871342","604","","f","","","","","","","","./tasks/HMM-beads/Images/NewTrialBC.png","lowH","1","48","1","0","0","0","true","",""
"image-keyboard-response","281","716050","0.0-3.0-6.0-1.0-1.48","5fd85c9f4bf0b61a395593c7","6662009ae78f21dd82fcd179","6662073c81deebdb07871342","null","","null","","","","","","","","./tasks/HMM-beads/Images/BlackBeadChoice.png","","","","","","","","","",""
"image-keyboard-response","282","716553","0.0-3.0-6.0-1.0-2.48","5fd85c9f4bf0b61a395593c7","6662009ae78f21dd82fcd179","6662073c81deebdb07871342","null","","null","","","","","","","","./tasks/HMM-beads/Images/BlackBeadChoiceCorrect.png","","","","","","","","","",""
"image-keyboard-response","283","717587","0.0-3.0-6.0-1.0-0.49","5fd85c9f4bf0b61a395593c7","6662009ae78f21dd82fcd179","6662073c81deebdb07871342","1033","","j","","","","","","","","./tasks/HMM-beads/Images/NewTrialBC.png","lowH","1","49","1","0","0","1","false","",""
"image-keyboard-response","284","717889","0.0-3.0-6.0-1.0-1.49","5fd85c9f4bf0b61a395593c7","6662009ae78f21dd82fcd179","6662073c81deebdb07871342","null","","null","","","","","","","","./tasks/HMM-beads/Images/WhiteBeadChoice.png","","","","","","","","","",""
"image-keyboard-response","285","718391","0.0-3.0-6.0-1.0-2.49","5fd85c9f4bf0b61a395593c7","6662009ae78f21dd82fcd179","6662073c81deebdb07871342","null","","null","","","","","","","","./tasks/HMM-beads/Images/WhiteBeadChoiceWrong.png","","","","","","","","","",""
"image-keyboard-response","286","719121","0.0-3.0-6.0-1.0-0.50","5fd85c9f4bf0b61a395593c7","6662009ae78f21dd82fcd179","6662073c81deebdb07871342","729","","f","","","","","","","","./tasks/HMM-beads/Images/NewTrialBC.png","lowH","1","50","1","1","0","0","false","",""
"image-keyboard-response","287","719424","0.0-3.0-6.0-1.0-1.50","5fd85c9f4bf0b61a395593c7","6662009ae78f21dd82fcd179","6662073c81deebdb07871342","null","","null","","","","","","","","./tasks/HMM-beads/Images/BlackBeadChoice.png","","","","","","","","","",""
"image-keyboard-response","288","719931","0.0-3.0-6.0-1.0-2.50","5fd85c9f4bf0b61a395593c7","6662009ae78f21dd82fcd179","6662073c81deebdb07871342","null","","null","","","","","","","","./tasks/HMM-beads/Images/BlackBeadChoiceWrong.png","","","","","","","","","",""
"image-keyboard-response","289","720024","0.0-3.0-6.0-1.0-0.51","5fd85c9f4bf0b61a395593c7","6662009ae78f21dd82fcd179","6662073c81deebdb07871342","91","","j","","","","","","","","./tasks/HMM-beads/Images/NewTrialWC.png","lowH","1","51","1","1","1","1","true","",""
"image-keyboard-response","290","720326","0.0-3.0-6.0-1.0-1.51","5fd85c9f4bf0b61a395593c7","6662009ae78f21dd82fcd179","6662073c81deebdb07871342","null","","null","","","","","","","","./tasks/HMM-beads/Images/WhiteBeadChoice.png","","","","","","","","","",""
"image-keyboard-response","291","720827","0.0-3.0-6.0-1.0-2.51","5fd85c9f4bf0b61a395593c7","6662009ae78f21dd82fcd179","6662073c81deebdb07871342","null","","null","","","","","","","","./tasks/HMM-beads/Images/WhiteBeadChoiceCorrect.png","","","","","","","","","",""
"image-keyboard-response","292","721961","0.0-3.0-6.0-1.0-0.52","5fd85c9f4bf0b61a395593c7","6662009ae78f21dd82fcd179","6662073c81deebdb07871342","1132","","j","","","","","","","","./tasks/HMM-beads/Images/NewTrialWC.png","lowH","1","52","1","1","1","1","true","",""
"image-keyboard-response","293","722263","0.0-3.0-6.0-1.0-1.52","5fd85c9f4bf0b61a395593c7","6662009ae78f21dd82fcd179","6662073c81deebdb07871342","null","","null","","","","","","","","./tasks/HMM-beads/Images/WhiteBeadChoice.png","","","","","","","","","",""
"image-keyboard-response","294","722765","0.0-3.0-6.0-1.0-2.52","5fd85c9f4bf0b61a395593c7","6662009ae78f21dd82fcd179","6662073c81deebdb07871342","null","","null","","","","","","","","./tasks/HMM-beads/Images/WhiteBeadChoiceCorrect.png","","","","","","","","","",""
"image-keyboard-response","295","723578","0.0-3.0-6.0-1.0-0.53","5fd85c9f4bf0b61a395593c7","6662009ae78f21dd82fcd179","6662073c81deebdb07871342","812","","j","","","","","","","","./tasks/HMM-beads/Images/NewTrialWC.png","lowH","1","53","1","1","1","1","true","",""
"image-keyboard-response","296","723881","0.0-3.0-6.0-1.0-1.53","5fd85c9f4bf0b61a395593c7","6662009ae78f21dd82fcd179","6662073c81deebdb07871342","null","","null","","","","","","","","./tasks/HMM-beads/Images/WhiteBeadChoice.png","","","","","","","","","",""
"image-keyboard-response","297","724384","0.0-3.0-6.0-1.0-2.53","5fd85c9f4bf0b61a395593c7","6662009ae78f21dd82fcd179","6662073c81deebdb07871342","null","","null","","","","","","","","./tasks/HMM-beads/Images/WhiteBeadChoiceCorrect.png","","","","","","","","","",""
"image-keyboard-response","298","724672","0.0-3.0-6.0-1.0-0.54","5fd85c9f4bf0b61a395593c7","6662009ae78f21dd82fcd179","6662073c81deebdb07871342","287","","j","","","","","","","","./tasks/HMM-beads/Images/NewTrialWC.png","lowH","1","54","1","1","1","1","true","",""
"image-keyboard-response","299","724974","0.0-3.0-6.0-1.0-1.54","5fd85c9f4bf0b61a395593c7","6662009ae78f21dd82fcd179","6662073c81deebdb07871342","null","","null","","","","","","","","./tasks/HMM-beads/Images/WhiteBeadChoice.png","","","","","","","","","",""
"image-keyboard-response","300","725477","0.0-3.0-6.0-1.0-2.54","5fd85c9f4bf0b61a395593c7","6662009ae78f21dd82fcd179","6662073c81deebdb07871342","null","","null","","","","","","","","./tasks/HMM-beads/Images/WhiteBeadChoiceCorrect.png","","","","","","","","","",""
"image-keyboard-response","301","725580","0.0-3.0-6.0-1.0-0.55","5fd85c9f4bf0b61a395593c7","6662009ae78f21dd82fcd179","6662073c81deebdb07871342","101","","j","","","","","","","","./tasks/HMM-beads/Images/NewTrialWC.png","lowH","1","55","1","1","1","1","true","",""
"image-keyboard-response","302","725882","0.0-3.0-6.0-1.0-1.55","5fd85c9f4bf0b61a395593c7","6662009ae78f21dd82fcd179","6662073c81deebdb07871342","null","","null","","","","","","","","./tasks/HMM-beads/Images/WhiteBeadChoice.png","","","","","","","","","",""
"image-keyboard-response","303","726385","0.0-3.0-6.0-1.0-2.55","5fd85c9f4bf0b61a395593c7","6662009ae78f21dd82fcd179","6662073c81deebdb07871342","null","","null","","","","","","","","./tasks/HMM-beads/Images/WhiteBeadChoiceCorrect.png","","","","","","","","","",""
"image-keyboard-response","304","726455","0.0-3.0-6.0-1.0-0.56","5fd85c9f4bf0b61a395593c7","6662009ae78f21dd82fcd179","6662073c81deebdb07871342","70","","j","","","","","","","","./tasks/HMM-beads/Images/NewTrialWC.png","lowH","1","56","1","1","1","1","true","",""
"image-keyboard-response","305","726759","0.0-3.0-6.0-1.0-1.56","5fd85c9f4bf0b61a395593c7","6662009ae78f21dd82fcd179","6662073c81deebdb07871342","null","","null","","","","","","","","./tasks/HMM-beads/Images/WhiteBeadChoice.png","","","","","","","","","",""
"image-keyboard-response","306","727261","0.0-3.0-6.0-1.0-2.56","5fd85c9f4bf0b61a395593c7","6662009ae78f21dd82fcd179","6662073c81deebdb07871342","null","","null","","","","","","","","./tasks/HMM-beads/Images/WhiteBeadChoiceCorrect.png","","","","","","","","","",""
"image-keyboard-response","307","727295","0.0-3.0-6.0-1.0-0.57","5fd85c9f4bf0b61a395593c7","6662009ae78f21dd82fcd179","6662073c81deebdb07871342","32","","j","","","","","","","","./tasks/HMM-beads/Images/NewTrialWC.png","lowH","1","57","1","1","1","1","true","",""
"image-keyboard-response","308","727596","0.0-3.0-6.0-1.0-1.57","5fd85c9f4bf0b61a395593c7","6662009ae78f21dd82fcd179","6662073c81deebdb07871342","null","","null","","","","","","","","./tasks/HMM-beads/Images/WhiteBeadChoice.png","","","","","","","","","",""
"image-keyboard-response","309","728098","0.0-3.0-6.0-1.0-2.57","5fd85c9f4bf0b61a395593c7","6662009ae78f21dd82fcd179","6662073c81deebdb07871342","null","","null","","","","","","","","./tasks/HMM-beads/Images/WhiteBeadChoiceCorrect.png","","","","","","","","","",""
"image-keyboard-response","310","728153","0.0-3.0-6.0-1.0-0.58","5fd85c9f4bf0b61a395593c7","6662009ae78f21dd82fcd179","6662073c81deebdb07871342","55","","j","","","","","","","","./tasks/HMM-beads/Images/NewTrialWC.png","lowH","1","58","1","1","1","1","true","",""
"image-keyboard-response","311","728456","0.0-3.0-6.0-1.0-1.58","5fd85c9f4bf0b61a395593c7","6662009ae78f21dd82fcd179","6662073c81deebdb07871342","null","","null","","","","","","","","./tasks/HMM-beads/Images/WhiteBeadChoice.png","","","","","","","","","",""
"image-keyboard-response","312","728962","0.0-3.0-6.0-1.0-2.58","5fd85c9f4bf0b61a395593c7","6662009ae78f21dd82fcd179","6662073c81deebdb07871342","null","","null","","","","","","","","./tasks/HMM-beads/Images/WhiteBeadChoiceCorrect.png","","","","","","","","","",""
"image-keyboard-response","313","729133","0.0-3.0-6.0-1.0-0.59","5fd85c9f4bf0b61a395593c7","6662009ae78f21dd82fcd179","6662073c81deebdb07871342","169","","j","","","","","","","","./tasks/HMM-beads/Images/NewTrialWC.png","lowH","1","59","1","0","1","1","false","",""
"image-keyboard-response","314","729442","0.0-3.0-6.0-1.0-1.59","5fd85c9f4bf0b61a395593c7","6662009ae78f21dd82fcd179","6662073c81deebdb07871342","null","","null","","","","","","","","./tasks/HMM-beads/Images/WhiteBeadChoice.png","","","","","","","","","",""
"image-keyboard-response","315","729944","0.0-3.0-6.0-1.0-2.59","5fd85c9f4bf0b61a395593c7","6662009ae78f21dd82fcd179","6662073c81deebdb07871342","null","","null","","","","","","","","./tasks/HMM-beads/Images/WhiteBeadChoiceWrong.png","","","","","","","","","",""
"image-keyboard-response","316","730807","0.0-3.0-6.0-1.0-0.60","5fd85c9f4bf0b61a395593c7","6662009ae78f21dd82fcd179","6662073c81deebdb07871342","861","","j","","","","","","","","./tasks/HMM-beads/Images/NewTrialBC.png","lowH","1","60","1","1","0","1","true","",""
"image-keyboard-response","317","731109","0.0-3.0-6.0-1.0-1.60","5fd85c9f4bf0b61a395593c7","6662009ae78f21dd82fcd179","6662073c81deebdb07871342","null","","null","","","","","","","","./tasks/HMM-beads/Images/WhiteBeadChoice.png","","","","","","","","","",""
"image-keyboard-response","318","731611","0.0-3.0-6.0-1.0-2.60","5fd85c9f4bf0b61a395593c7","6662009ae78f21dd82fcd179","6662073c81deebdb07871342","null","","null","","","","","","","","./tasks/HMM-beads/Images/WhiteBeadChoiceCorrect.png","","","","","","","","","",""
"image-keyboard-response","319","731952","0.0-3.0-6.0-1.0-0.61","5fd85c9f4bf0b61a395593c7","6662009ae78f21dd82fcd179","6662073c81deebdb07871342","340","","j","","","","","","","","./tasks/HMM-beads/Images/NewTrialWC.png","lowH","1","61","1","1","1","1","true","",""
"image-keyboard-response","320","732254","0.0-3.0-6.0-1.0-1.61","5fd85c9f4bf0b61a395593c7","6662009ae78f21dd82fcd179","6662073c81deebdb07871342","null","","null","","","","","","","","./tasks/HMM-beads/Images/WhiteBeadChoice.png","","","","","","","","","",""
"image-keyboard-response","321","732757","0.0-3.0-6.0-1.0-2.61","5fd85c9f4bf0b61a395593c7","6662009ae78f21dd82fcd179","6662073c81deebdb07871342","null","","null","","","","","","","","./tasks/HMM-beads/Images/WhiteBeadChoiceCorrect.png","","","","","","","","","",""
"image-keyboard-response","322","733024","0.0-3.0-6.0-1.0-0.62","5fd85c9f4bf0b61a395593c7","6662009ae78f21dd82fcd179","6662073c81deebdb07871342","266","","j","","","","","","","","./tasks/HMM-beads/Images/NewTrialWC.png","lowH","1","62","1","0","1","1","false","",""
"image-keyboard-response","323","733326","0.0-3.0-6.0-1.0-1.62","5fd85c9f4bf0b61a395593c7","6662009ae78f21dd82fcd179","6662073c81deebdb07871342","null","","null","","","","","","","","./tasks/HMM-beads/Images/WhiteBeadChoice.png","","","","","","","","","",""
"image-keyboard-response","324","733828","0.0-3.0-6.0-1.0-2.62","5fd85c9f4bf0b61a395593c7","6662009ae78f21dd82fcd179","6662073c81deebdb07871342","null","","null","","","","","","","","./tasks/HMM-beads/Images/WhiteBeadChoiceWrong.png","","","","","","","","","",""
"image-keyboard-response","325","734392","0.0-3.0-6.0-1.0-0.63","5fd85c9f4bf0b61a395593c7","6662009ae78f21dd82fcd179","6662073c81deebdb07871342","562","","f","","","","","","","","./tasks/HMM-beads/Images/NewTrialBC.png","lowH","1","63","1","1","0","0","false","",""
"image-keyboard-response","326","734695","0.0-3.0-6.0-1.0-1.63","5fd85c9f4bf0b61a395593c7","6662009ae78f21dd82fcd179","6662073c81deebdb07871342","null","","null","","","","","","","","./tasks/HMM-beads/Images/BlackBeadChoice.png","","","","","","","","","",""
"image-keyboard-response","327","735204","0.0-3.0-6.0-1.0-2.63","5fd85c9f4bf0b61a395593c7","6662009ae78f21dd82fcd179","6662073c81deebdb07871342","null","","null","","","","","","","","./tasks/HMM-beads/Images/BlackBeadChoiceWrong.png","","","","","","","","","",""
"image-keyboard-response","328","735651","0.0-3.0-6.0-1.0-0.64","5fd85c9f4bf0b61a395593c7","6662009ae78f21dd82fcd179","6662073c81deebdb07871342","446","","j","","","","","","","","./tasks/HMM-beads/Images/NewTrialWC.png","lowH","1","64","1","1","1","1","true","",""
"image-keyboard-response","329","735953","0.0-3.0-6.0-1.0-1.64","5fd85c9f4bf0b61a395593c7","6662009ae78f21dd82fcd179","6662073c81deebdb07871342","null","","null","","","","","","","","./tasks/HMM-beads/Images/WhiteBeadChoice.png","","","","","","","","","",""
"image-keyboard-response","330","736456","0.0-3.0-6.0-1.0-2.64","5fd85c9f4bf0b61a395593c7","6662009ae78f21dd82fcd179","6662073c81deebdb07871342","null","","null","","","","","","","","./tasks/HMM-beads/Images/WhiteBeadChoiceCorrect.png","","","","","","","","","",""
"image-keyboard-response","331","736623","0.0-3.0-6.0-1.0-0.65","5fd85c9f4bf0b61a395593c7","6662009ae78f21dd82fcd179","6662073c81deebdb07871342","166","","j","","","","","","","","./tasks/HMM-beads/Images/NewTrialWC.png","lowH","1","65","1","1","1","1","true","",""
"image-keyboard-response","332","736926","0.0-3.0-6.0-1.0-1.65","5fd85c9f4bf0b61a395593c7","6662009ae78f21dd82fcd179","6662073c81deebdb07871342","null","","null","","","","","","","","./tasks/HMM-beads/Images/WhiteBeadChoice.png","","","","","","","","","",""
"image-keyboard-response","333","737427","0.0-3.0-6.0-1.0-2.65","5fd85c9f4bf0b61a395593c7","6662009ae78f21dd82fcd179","6662073c81deebdb07871342","null","","null","","","","","","","","./tasks/HMM-beads/Images/WhiteBeadChoiceCorrect.png","","","","","","","","","",""
"image-keyboard-response","334","737686","0.0-3.0-6.0-1.0-0.66","5fd85c9f4bf0b61a395593c7","6662009ae78f21dd82fcd179","6662073c81deebdb07871342","258","","j","","","","","","","","./tasks/HMM-beads/Images/NewTrialWC.png","lowH","1","66","1","1","1","1","true","",""
"image-keyboard-response","335","737989","0.0-3.0-6.0-1.0-1.66","5fd85c9f4bf0b61a395593c7","6662009ae78f21dd82fcd179","6662073c81deebdb07871342","null","","null","","","","","","","","./tasks/HMM-beads/Images/WhiteBeadChoice.png","","","","","","","","","",""
"image-keyboard-response","336","738492","0.0-3.0-6.0-1.0-2.66","5fd85c9f4bf0b61a395593c7","6662009ae78f21dd82fcd179","6662073c81deebdb07871342","null","","null","","","","","","","","./tasks/HMM-beads/Images/WhiteBeadChoiceCorrect.png","","","","","","","","","",""
"image-keyboard-response","337","739929","0.0-3.0-6.0-1.0-0.67","5fd85c9f4bf0b61a395593c7","6662009ae78f21dd82fcd179","6662073c81deebdb07871342","1436","","j","","","","","","","","./tasks/HMM-beads/Images/NewTrialWC.png","lowH","1","67","1","0","1","1","false","",""
"image-keyboard-response","338","740232","0.0-3.0-6.0-1.0-1.67","5fd85c9f4bf0b61a395593c7","6662009ae78f21dd82fcd179","6662073c81deebdb07871342","null","","null","","","","","","","","./tasks/HMM-beads/Images/WhiteBeadChoice.png","","","","","","","","","",""
"image-keyboard-response","339","740748","0.0-3.0-6.0-1.0-2.67","5fd85c9f4bf0b61a395593c7","6662009ae78f21dd82fcd179","6662073c81deebdb07871342","null","","null","","","","","","","","./tasks/HMM-beads/Images/WhiteBeadChoiceWrong.png","","","","","","","","","",""
"image-keyboard-response","340","741674","0.0-3.0-6.0-1.0-0.68","5fd85c9f4bf0b61a395593c7","6662009ae78f21dd82fcd179","6662073c81deebdb07871342","702","","j","","","","","","","","./tasks/HMM-beads/Images/NewTrialBC.png","lowH","1","68","1","1","0","1","true","",""
"image-keyboard-response","341","742086","0.0-3.0-6.0-1.0-1.68","5fd85c9f4bf0b61a395593c7","6662009ae78f21dd82fcd179","6662073c81deebdb07871342","null","","null","","","","","","","","./tasks/HMM-beads/Images/WhiteBeadChoice.png","","","","","","","","","",""
"image-keyboard-response","342","742589","0.0-3.0-6.0-1.0-2.68","5fd85c9f4bf0b61a395593c7","6662009ae78f21dd82fcd179","6662073c81deebdb07871342","null","","null","","","","","","","","./tasks/HMM-beads/Images/WhiteBeadChoiceCorrect.png","","","","","","","","","",""
"image-keyboard-response","343","742978","0.0-3.0-6.0-1.0-0.69","5fd85c9f4bf0b61a395593c7","6662009ae78f21dd82fcd179","6662073c81deebdb07871342","388","","j","","","","","","","","./tasks/HMM-beads/Images/NewTrialWC.png","lowH","1","69","0","1","1","1","true","",""
"image-keyboard-response","344","743280","0.0-3.0-6.0-1.0-1.69","5fd85c9f4bf0b61a395593c7","6662009ae78f21dd82fcd179","6662073c81deebdb07871342","null","","null","","","","","","","","./tasks/HMM-beads/Images/WhiteBeadChoice.png","","","","","","","","","",""
"image-keyboard-response","345","743782","0.0-3.0-6.0-1.0-2.69","5fd85c9f4bf0b61a395593c7","6662009ae78f21dd82fcd179","6662073c81deebdb07871342","null","","null","","","","","","","","./tasks/HMM-beads/Images/WhiteBeadChoiceCorrect.png","","","","","","","","","",""
"image-keyboard-response","346","743863","0.0-3.0-6.0-1.0-0.70","5fd85c9f4bf0b61a395593c7","6662009ae78f21dd82fcd179","6662073c81deebdb07871342","79","","j","","","","","","","","./tasks/HMM-beads/Images/NewTrialWC.png","lowH","1","70","0","1","1","1","true","",""
"image-keyboard-response","347","744164","0.0-3.0-6.0-1.0-1.70","5fd85c9f4bf0b61a395593c7","6662009ae78f21dd82fcd179","6662073c81deebdb07871342","null","","null","","","","","","","","./tasks/HMM-beads/Images/WhiteBeadChoice.png","","","","","","","","","",""
"image-keyboard-response","348","744666","0.0-3.0-6.0-1.0-2.70","5fd85c9f4bf0b61a395593c7","6662009ae78f21dd82fcd179","6662073c81deebdb07871342","null","","null","","","","","","","","./tasks/HMM-beads/Images/WhiteBeadChoiceCorrect.png","","","","","","","","","",""
"image-keyboard-response","349","744740","0.0-3.0-6.0-1.0-0.71","5fd85c9f4bf0b61a395593c7","6662009ae78f21dd82fcd179","6662073c81deebdb07871342","73","","j","","","","","","","","./tasks/HMM-beads/Images/NewTrialWC.png","lowH","1","71","0","0","1","1","false","",""
"image-keyboard-response","350","745042","0.0-3.0-6.0-1.0-1.71","5fd85c9f4bf0b61a395593c7","6662009ae78f21dd82fcd179","6662073c81deebdb07871342","null","","null","","","","","","","","./tasks/HMM-beads/Images/WhiteBeadChoice.png","","","","","","","","","",""
"image-keyboard-response","351","745545","0.0-3.0-6.0-1.0-2.71","5fd85c9f4bf0b61a395593c7","6662009ae78f21dd82fcd179","6662073c81deebdb07871342","null","","null","","","","","","","","./tasks/HMM-beads/Images/WhiteBeadChoiceWrong.png","","","","","","","","","",""
"image-keyboard-response","352","746163","0.0-3.0-6.0-1.0-0.72","5fd85c9f4bf0b61a395593c7","6662009ae78f21dd82fcd179","6662073c81deebdb07871342","617","","j","","","","","","","","./tasks/HMM-beads/Images/NewTrialBC.png","lowH","1","72","0","0","0","1","false","",""
"image-keyboard-response","353","746494","0.0-3.0-6.0-1.0-1.72","5fd85c9f4bf0b61a395593c7","6662009ae78f21dd82fcd179","6662073c81deebdb07871342","null","","null","","","","","","","","./tasks/HMM-beads/Images/WhiteBeadChoice.png","","","","","","","","","",""
"image-keyboard-response","354","746997","0.0-3.0-6.0-1.0-2.72","5fd85c9f4bf0b61a395593c7","6662009ae78f21dd82fcd179","6662073c81deebdb07871342","null","","null","","","","","","","","./tasks/HMM-beads/Images/WhiteBeadChoiceWrong.png","","","","","","","","","",""
"image-keyboard-response","355","747041","0.0-3.0-6.0-1.0-0.73","5fd85c9f4bf0b61a395593c7","6662009ae78f21dd82fcd179","6662073c81deebdb07871342","43","","f","","","","","","","","./tasks/HMM-beads/Images/NewTrialBC.png","lowH","1","73","0","1","0","0","false","",""
"image-keyboard-response","356","747344","0.0-3.0-6.0-1.0-1.73","5fd85c9f4bf0b61a395593c7","6662009ae78f21dd82fcd179","6662073c81deebdb07871342","null","","null","","","","","","","","./tasks/HMM-beads/Images/BlackBeadChoice.png","","","","","","","","","",""
"image-keyboard-response","357","747846","0.0-3.0-6.0-1.0-2.73","5fd85c9f4bf0b61a395593c7","6662009ae78f21dd82fcd179","6662073c81deebdb07871342","null","","null","","","","","","","","./tasks/HMM-beads/Images/BlackBeadChoiceWrong.png","","","","","","","","","",""
"image-keyboard-response","358","748506","0.0-3.0-6.0-1.0-0.74","5fd85c9f4bf0b61a395593c7","6662009ae78f21dd82fcd179","6662073c81deebdb07871342","658","","f","","","","","","","","./tasks/HMM-beads/Images/NewTrialWC.png","lowH","1","74","0","0","1","0","true","",""
"image-keyboard-response","359","748808","0.0-3.0-6.0-1.0-1.74","5fd85c9f4bf0b61a395593c7","6662009ae78f21dd82fcd179","6662073c81deebdb07871342","null","","null","","","","","","","","./tasks/HMM-beads/Images/BlackBeadChoice.png","","","","","","","","","",""
"image-keyboard-response","360","749311","0.0-3.0-6.0-1.0-2.74","5fd85c9f4bf0b61a395593c7","6662009ae78f21dd82fcd179","6662073c81deebdb07871342","null","","null","","","","","","","","./tasks/HMM-beads/Images/BlackBeadChoiceCorrect.png","","","","","","","","","",""
"image-keyboard-response","361","749471","0.0-3.0-6.0-1.0-0.75","5fd85c9f4bf0b61a395593c7","6662009ae78f21dd82fcd179","6662073c81deebdb07871342","158","","f","","","","","","","","./tasks/HMM-beads/Images/NewTrialBC.png","lowH","1","75","0","1","0","0","false","",""
"image-keyboard-response","362","749773","0.0-3.0-6.0-1.0-1.75","5fd85c9f4bf0b61a395593c7","6662009ae78f21dd82fcd179","6662073c81deebdb07871342","null","","null","","","","","","","","./tasks/HMM-beads/Images/BlackBeadChoice.png","","","","","","","","","",""
"image-keyboard-response","363","750275","0.0-3.0-6.0-1.0-2.75","5fd85c9f4bf0b61a395593c7","6662009ae78f21dd82fcd179","6662073c81deebdb07871342","null","","null","","","","","","","","./tasks/HMM-beads/Images/BlackBeadChoiceWrong.png","","","","","","","","","",""
"image-keyboard-response","364","751105","0.0-3.0-6.0-1.0-0.76","5fd85c9f4bf0b61a395593c7","6662009ae78f21dd82fcd179","6662073c81deebdb07871342","829","","j","","","","","","","","./tasks/HMM-beads/Images/NewTrialWC.png","lowH","1","76","0","1","1","1","true","",""
"image-keyboard-response","365","751408","0.0-3.0-6.0-1.0-1.76","5fd85c9f4bf0b61a395593c7","6662009ae78f21dd82fcd179","6662073c81deebdb07871342","null","","null","","","","","","","","./tasks/HMM-beads/Images/WhiteBeadChoice.png","","","","","","","","","",""
"image-keyboard-response","366","751930","0.0-3.0-6.0-1.0-2.76","5fd85c9f4bf0b61a395593c7","6662009ae78f21dd82fcd179","6662073c81deebdb07871342","null","","null","","","","","","","","./tasks/HMM-beads/Images/WhiteBeadChoiceCorrect.png","","","","","","","","","",""
"image-keyboard-response","367","752898","0.0-3.0-6.0-1.0-0.77","5fd85c9f4bf0b61a395593c7","6662009ae78f21dd82fcd179","6662073c81deebdb07871342","961","","j","","","","","","","","./tasks/HMM-beads/Images/NewTrialWC.png","lowH","1","77","0","0","1","1","false","",""
"image-keyboard-response","368","753199","0.0-3.0-6.0-1.0-1.77","5fd85c9f4bf0b61a395593c7","6662009ae78f21dd82fcd179","6662073c81deebdb07871342","null","","null","","","","","","","","./tasks/HMM-beads/Images/WhiteBeadChoice.png","","","","","","","","","",""
"image-keyboard-response","369","753702","0.0-3.0-6.0-1.0-2.77","5fd85c9f4bf0b61a395593c7","6662009ae78f21dd82fcd179","6662073c81deebdb07871342","null","","null","","","","","","","","./tasks/HMM-beads/Images/WhiteBeadChoiceWrong.png","","","","","","","","","",""
"image-keyboard-response","370","753727","0.0-3.0-6.0-1.0-0.78","5fd85c9f4bf0b61a395593c7","6662009ae78f21dd82fcd179","6662073c81deebdb07871342","24","","f","","","","","","","","./tasks/HMM-beads/Images/NewTrialBC.png","lowH","1","78","0","0","0","0","true","",""
"image-keyboard-response","371","754029","0.0-3.0-6.0-1.0-1.78","5fd85c9f4bf0b61a395593c7","6662009ae78f21dd82fcd179","6662073c81deebdb07871342","null","","null","","","","","","","","./tasks/HMM-beads/Images/BlackBeadChoice.png","","","","","","","","","",""
"image-keyboard-response","372","754532","0.0-3.0-6.0-1.0-2.78","5fd85c9f4bf0b61a395593c7","6662009ae78f21dd82fcd179","6662073c81deebdb07871342","null","","null","","","","","","","","./tasks/HMM-beads/Images/BlackBeadChoiceCorrect.png","","","","","","","","","",""
"image-keyboard-response","373","754574","0.0-3.0-6.0-1.0-0.79","5fd85c9f4bf0b61a395593c7","6662009ae78f21dd82fcd179","6662073c81deebdb07871342","42","","f","","","","","","","","./tasks/HMM-beads/Images/NewTrialBC.png","lowH","1","79","0","0","0","0","true","",""
"image-keyboard-response","374","754876","0.0-3.0-6.0-1.0-1.79","5fd85c9f4bf0b61a395593c7","6662009ae78f21dd82fcd179","6662073c81deebdb07871342","null","","null","","","","","","","","./tasks/HMM-beads/Images/BlackBeadChoice.png","","","","","","","","","",""
