"trial_type","trial_index","time_elapsed","internal_node_id","subject_id","study_id","session_id","rt","url","response","question_order","view_history","success","timeout","failed_images","failed_audio","failed_video","stimulus","block","block_rep","trial_number","jar","bead","previous_bead","choice","correct","lowH_score","total_bonus"
"pavlovia","0","1794","0.0-0.0","60bf9943e4e04642d4634ecc","6662009ae78f21dd82fcd179","666208b114dba3de83030adc","","","","","","","","","","","","","","","","","","","","",""
"external-html","1","908194","0.0-1.0-0.0","60bf9943e4e04642d4634ecc","6662009ae78f21dd82fcd179","666208b114dba3de83030adc","905955","new_consent.html","","","","","","","","","","","","","","","","","","",""
"survey-multi-choice","2","1111401","0.0-1.0-1.0","60bf9943e4e04642d4634ecc","6662009ae78f21dd82fcd179","666208b114dba3de83030adc","203203","","{""Q0"":""Male"",""Q1"":""Black or African American""}","[0,1]","","","","","","","","","","","","","","","","",""
"survey-text","3","1113458","0.0-1.0-2.0","60bf9943e4e04642d4634ecc","6662009ae78f21dd82fcd179","666208b114dba3de83030adc","2050","","{""Q0"":""21""}","","","","","","","","","","","","","","","","","",""
"instructions","4","1114795","0.0-2.0","60bf9943e4e04642d4634ecc","6662009ae78f21dd82fcd179","666208b114dba3de83030adc","1227","","","","[{""page_index"":0,""viewing_time"":1227}]","","","","","","","","","","","","","","","",""
"preload","5","1116062","0.0-3.0-0.0","60bf9943e4e04642d4634ecc","6662009ae78f21dd82fcd179","666208b114dba3de83030adc","","","","","","true","false","[]","[]","[]","","","","","","","","","","",""
"instructions","6","1612047","0.0-3.0-1.0","60bf9943e4e04642d4634ecc","6662009ae78f21dd82fcd179","666208b114dba3de83030adc","495985","","","","[{""page_index"":0,""viewing_time"":168162},{""page_index"":1,""viewing_time"":16198},{""page_index"":2,""viewing_time"":30354},{""page_index"":3,""viewing_time"":29222},{""page_index"":4,""viewing_time"":3302},{""page_index"":5,""viewing_time"":228497},{""page_index"":6,""viewing_time"":2928},{""page_index"":5,""viewing_time"":1369},{""page_index"":4,""viewing_time"":2432},{""page_index"":5,""viewing_time"":1122},{""page_index"":6,""viewing_time"":904},{""page_index"":7,""viewing_time"":3558},{""page_index"":8,""viewing_time"":2174},{""page_index"":9,""viewing_time"":1326},{""page_index"":10,""viewing_time"":2580},{""page_index"":11,""viewing_time"":1856}]","","","","","","","","","","","","","","","",""
"html-button-response","7","1614739","0.0-3.0-2.0-0.0-0.0","60bf9943e4e04642d4634ecc","6662009ae78f21dd82fcd179","666208b114dba3de83030adc","2691","","1","","","","","","","","<div align=center>Your goal is to predict…?<br><br></div>","","","","","","","","","",""
"html-button-response","8","1625647","0.0-3.0-2.0-1.0-0.0","60bf9943e4e04642d4634ecc","6662009ae78f21dd82fcd179","666208b114dba3de83030adc","9415","","2","","","","","","","","<div align=center>In the jar with mostly white beads, there are ___% white beads and ___% black beads?<br><br></div>","","","","","","","","","",""
"html-button-response","9","1631553","0.0-3.0-2.0-2.0-0.0","60bf9943e4e04642d4634ecc","6662009ae78f21dd82fcd179","666208b114dba3de83030adc","4769","","0","","","","","","","","<div align=center>When there is a 1% probability that the jars will switch, the next bead will most likely be drawn from the…<br><br></div>","","","","","","","","","",""
"html-button-response","10","1635395","0.0-3.0-2.0-3.0-0.0","60bf9943e4e04642d4634ecc","6662009ae78f21dd82fcd179","666208b114dba3de83030adc","2697","","1","","","","","","","","<div align=center>When there is a 99% probability that the jars will switch, the next bead will most likely be drawn from the…<br><br></div>","","","","","","","","","",""
"instructions","11","1645819","0.0-3.0-3.0","60bf9943e4e04642d4634ecc","6662009ae78f21dd82fcd179","666208b114dba3de83030adc","8970","","","","[{""page_index"":0,""viewing_time"":8970}]","","","","","","","","","","","","","","","",""
"html-keyboard-response","12","1648389","0.0-3.0-4.0-0.0","60bf9943e4e04642d4634ecc","6662009ae78f21dd82fcd179","666208b114dba3de83030adc","2569",""," ","","","","","","","","<div align=center>In this practice block, there will be a <b>1% chance</b> that the jar on the next trial will be different from the jar on the current trial.<br><br></div>","","","","","","","","","",""
"image-keyboard-response","13","1651644","0.0-3.0-4.0-1.0-0.0","60bf9943e4e04642d4634ecc","6662009ae78f21dd82fcd179","666208b114dba3de83030adc","3231","","j","","","","","","","","./tasks/HMM-beads/Images/NoChoice.png","practice","0","0","0","0","9","1","false","",""
"image-keyboard-response","14","1651955","0.0-3.0-4.0-1.0-1.0","60bf9943e4e04642d4634ecc","6662009ae78f21dd82fcd179","666208b114dba3de83030adc","null","","null","","","","","","","","./tasks/HMM-beads/Images/WhiteBeadChoice.png","","","","","","","","","",""
"image-keyboard-response","15","1652466","0.0-3.0-4.0-1.0-2.0","60bf9943e4e04642d4634ecc","6662009ae78f21dd82fcd179","666208b114dba3de83030adc","null","","null","","","","","","","","./tasks/HMM-beads/Images/WhiteBeadChoiceWrong.png","","","","","","","","","",""
"image-keyboard-response","16","1655412","0.0-3.0-4.0-1.0-0.1","60bf9943e4e04642d4634ecc","6662009ae78f21dd82fcd179","666208b114dba3de83030adc","2945","","f","","","","","","","","./tasks/HMM-beads/Images/NewTrialBC.png","practice","0","1","0","0","0","0","true","",""
"image-keyboard-response","17","1655723","0.0-3.0-4.0-1.0-1.1","60bf9943e4e04642d4634ecc","6662009ae78f21dd82fcd179","666208b114dba3de83030adc","null","","null","","","","","","","","./tasks/HMM-beads/Images/BlackBeadChoice.png","","","","","","","","","",""
"image-keyboard-response","18","1656227","0.0-3.0-4.0-1.0-2.1","60bf9943e4e04642d4634ecc","6662009ae78f21dd82fcd179","666208b114dba3de83030adc","null","","null","","","","","","","","./tasks/HMM-beads/Images/BlackBeadChoiceCorrect.png","","","","","","","","","",""
"image-keyboard-response","19","1660156","0.0-3.0-4.0-1.0-0.2","60bf9943e4e04642d4634ecc","6662009ae78f21dd82fcd179","666208b114dba3de83030adc","3927","","j","","","","","","","","./tasks/HMM-beads/Images/NewTrialBC.png","practice","0","2","0","1","0","1","true","",""
"image-keyboard-response","20","1660472","0.0-3.0-4.0-1.0-1.2","60bf9943e4e04642d4634ecc","6662009ae78f21dd82fcd179","666208b114dba3de83030adc","null","","null","","","","","","","","./tasks/HMM-beads/Images/WhiteBeadChoice.png","","","","","","","","","",""
"image-keyboard-response","21","1660984","0.0-3.0-4.0-1.0-2.2","60bf9943e4e04642d4634ecc","6662009ae78f21dd82fcd179","666208b114dba3de83030adc","null","","null","","","","","","","","./tasks/HMM-beads/Images/WhiteBeadChoiceCorrect.png","","","","","","","","","",""
"image-keyboard-response","22","1661988","0.0-3.0-4.0-1.0-0.3","60bf9943e4e04642d4634ecc","6662009ae78f21dd82fcd179","666208b114dba3de83030adc","1002","","f","","","","","","","","./tasks/HMM-beads/Images/NewTrialWC.png","practice","0","3","0","0","1","0","true","",""
"image-keyboard-response","23","1662297","0.0-3.0-4.0-1.0-1.3","60bf9943e4e04642d4634ecc","6662009ae78f21dd82fcd179","666208b114dba3de83030adc","null","","null","","","","","","","","./tasks/HMM-beads/Images/BlackBeadChoice.png","","","","","","","","","",""
"image-keyboard-response","24","1662814","0.0-3.0-4.0-1.0-2.3","60bf9943e4e04642d4634ecc","6662009ae78f21dd82fcd179","666208b114dba3de83030adc","null","","null","","","","","","","","./tasks/HMM-beads/Images/BlackBeadChoiceCorrect.png","","","","","","","","","",""
"image-keyboard-response","25","1665452","0.0-3.0-4.0-1.0-0.4","60bf9943e4e04642d4634ecc","6662009ae78f21dd82fcd179","666208b114dba3de83030adc","2637","","j","","","","","","","","./tasks/HMM-beads/Images/NewTrialBC.png","practice","0","4","0","0","0","1","false","",""
"image-keyboard-response","26","1665757","0.0-3.0-4.0-1.0-1.4","60bf9943e4e04642d4634ecc","6662009ae78f21dd82fcd179","666208b114dba3de83030adc","null","","null","","","","","","","","./tasks/HMM-beads/Images/WhiteBeadChoice.png","","","","","","","","","",""
"image-keyboard-response","27","1666266","0.0-3.0-4.0-1.0-2.4","60bf9943e4e04642d4634ecc","6662009ae78f21dd82fcd179","666208b114dba3de83030adc","null","","null","","","","","","","","./tasks/HMM-beads/Images/WhiteBeadChoiceWrong.png","","","","","","","","","",""
"image-keyboard-response","28","1667756","0.0-3.0-4.0-1.0-0.5","60bf9943e4e04642d4634ecc","6662009ae78f21dd82fcd179","666208b114dba3de83030adc","1489","","f","","","","","","","","./tasks/HMM-beads/Images/NewTrialBC.png","practice","0","5","0","1","0","0","false","",""
"image-keyboard-response","29","1668087","0.0-3.0-4.0-1.0-1.5","60bf9943e4e04642d4634ecc","6662009ae78f21dd82fcd179","666208b114dba3de83030adc","null","","null","","","","","","","","./tasks/HMM-beads/Images/BlackBeadChoice.png","","","","","","","","","",""
"image-keyboard-response","30","1668597","0.0-3.0-4.0-1.0-2.5","60bf9943e4e04642d4634ecc","6662009ae78f21dd82fcd179","666208b114dba3de83030adc","null","","null","","","","","","","","./tasks/HMM-beads/Images/BlackBeadChoiceWrong.png","","","","","","","","","",""
"image-keyboard-response","31","1672860","0.0-3.0-4.0-1.0-0.6","60bf9943e4e04642d4634ecc","6662009ae78f21dd82fcd179","666208b114dba3de83030adc","4262","","j","","","","","","","","./tasks/HMM-beads/Images/NewTrialWC.png","practice","0","6","0","0","1","1","false","",""
"image-keyboard-response","32","1673173","0.0-3.0-4.0-1.0-1.6","60bf9943e4e04642d4634ecc","6662009ae78f21dd82fcd179","666208b114dba3de83030adc","null","","null","","","","","","","","./tasks/HMM-beads/Images/WhiteBeadChoice.png","","","","","","","","","",""
"image-keyboard-response","33","1673685","0.0-3.0-4.0-1.0-2.6","60bf9943e4e04642d4634ecc","6662009ae78f21dd82fcd179","666208b114dba3de83030adc","null","","null","","","","","","","","./tasks/HMM-beads/Images/WhiteBeadChoiceWrong.png","","","","","","","","","",""
"image-keyboard-response","34","1674404","0.0-3.0-4.0-1.0-0.7","60bf9943e4e04642d4634ecc","6662009ae78f21dd82fcd179","666208b114dba3de83030adc","717","","j","","","","","","","","./tasks/HMM-beads/Images/NewTrialBC.png","practice","0","7","0","0","0","1","false","",""
"image-keyboard-response","35","1674710","0.0-3.0-4.0-1.0-1.7","60bf9943e4e04642d4634ecc","6662009ae78f21dd82fcd179","666208b114dba3de83030adc","null","","null","","","","","","","","./tasks/HMM-beads/Images/WhiteBeadChoice.png","","","","","","","","","",""
"image-keyboard-response","36","1675221","0.0-3.0-4.0-1.0-2.7","60bf9943e4e04642d4634ecc","6662009ae78f21dd82fcd179","666208b114dba3de83030adc","null","","null","","","","","","","","./tasks/HMM-beads/Images/WhiteBeadChoiceWrong.png","","","","","","","","","",""
"image-keyboard-response","37","1676100","0.0-3.0-4.0-1.0-0.8","60bf9943e4e04642d4634ecc","6662009ae78f21dd82fcd179","666208b114dba3de83030adc","877","","f","","","","","","","","./tasks/HMM-beads/Images/NewTrialBC.png","practice","0","8","0","0","0","0","true","",""
"image-keyboard-response","38","1676411","0.0-3.0-4.0-1.0-1.8","60bf9943e4e04642d4634ecc","6662009ae78f21dd82fcd179","666208b114dba3de83030adc","null","","null","","","","","","","","./tasks/HMM-beads/Images/BlackBeadChoice.png","","","","","","","","","",""
"image-keyboard-response","39","1676924","0.0-3.0-4.0-1.0-2.8","60bf9943e4e04642d4634ecc","6662009ae78f21dd82fcd179","666208b114dba3de83030adc","null","","null","","","","","","","","./tasks/HMM-beads/Images/BlackBeadChoiceCorrect.png","","","","","","","","","",""
"image-keyboard-response","40","1680268","0.0-3.0-4.0-1.0-0.9","60bf9943e4e04642d4634ecc","6662009ae78f21dd82fcd179","666208b114dba3de83030adc","3343","","f","","","","","","","","./tasks/HMM-beads/Images/NewTrialBC.png","practice","0","9","0","1","0","0","false","",""
"image-keyboard-response","41","1680581","0.0-3.0-4.0-1.0-1.9","60bf9943e4e04642d4634ecc","6662009ae78f21dd82fcd179","666208b114dba3de83030adc","null","","null","","","","","","","","./tasks/HMM-beads/Images/BlackBeadChoice.png","","","","","","","","","",""
"image-keyboard-response","42","1681087","0.0-3.0-4.0-1.0-2.9","60bf9943e4e04642d4634ecc","6662009ae78f21dd82fcd179","666208b114dba3de83030adc","null","","null","","","","","","","","./tasks/HMM-beads/Images/BlackBeadChoiceWrong.png","","","","","","","","","",""
"image-keyboard-response","43","1682052","0.0-3.0-4.0-1.0-0.10","60bf9943e4e04642d4634ecc","6662009ae78f21dd82fcd179","666208b114dba3de83030adc","963","","j","","","","","","","","./tasks/HMM-beads/Images/NewTrialWC.png","practice","0","10","0","0","1","1","false","",""
"image-keyboard-response","44","1682361","0.0-3.0-4.0-1.0-1.10","60bf9943e4e04642d4634ecc","6662009ae78f21dd82fcd179","666208b114dba3de83030adc","null","","null","","","","","","","","./tasks/HMM-beads/Images/WhiteBeadChoice.png","","","","","","","","","",""
"image-keyboard-response","45","1682877","0.0-3.0-4.0-1.0-2.10","60bf9943e4e04642d4634ecc","6662009ae78f21dd82fcd179","666208b114dba3de83030adc","null","","null","","","","","","","","./tasks/HMM-beads/Images/WhiteBeadChoiceWrong.png","","","","","","","","","",""
"image-keyboard-response","46","1684308","0.0-3.0-4.0-1.0-0.11","60bf9943e4e04642d4634ecc","6662009ae78f21dd82fcd179","666208b114dba3de83030adc","1430","","j","","","","","","","","./tasks/HMM-beads/Images/NewTrialBC.png","practice","0","11","0","1","0","1","true","",""
"image-keyboard-response","47","1684619","0.0-3.0-4.0-1.0-1.11","60bf9943e4e04642d4634ecc","6662009ae78f21dd82fcd179","666208b114dba3de83030adc","null","","null","","","","","","","","./tasks/HMM-beads/Images/WhiteBeadChoice.png","","","","","","","","","",""
"image-keyboard-response","48","1685128","0.0-3.0-4.0-1.0-2.11","60bf9943e4e04642d4634ecc","6662009ae78f21dd82fcd179","666208b114dba3de83030adc","null","","null","","","","","","","","./tasks/HMM-beads/Images/WhiteBeadChoiceCorrect.png","","","","","","","","","",""
"image-keyboard-response","49","1685828","0.0-3.0-4.0-1.0-0.12","60bf9943e4e04642d4634ecc","6662009ae78f21dd82fcd179","666208b114dba3de83030adc","699","","j","","","","","","","","./tasks/HMM-beads/Images/NewTrialWC.png","practice","0","12","0","0","1","1","false","",""
"image-keyboard-response","50","1686138","0.0-3.0-4.0-1.0-1.12","60bf9943e4e04642d4634ecc","6662009ae78f21dd82fcd179","666208b114dba3de83030adc","null","","null","","","","","","","","./tasks/HMM-beads/Images/WhiteBeadChoice.png","","","","","","","","","",""
"image-keyboard-response","51","1686653","0.0-3.0-4.0-1.0-2.12","60bf9943e4e04642d4634ecc","6662009ae78f21dd82fcd179","666208b114dba3de83030adc","null","","null","","","","","","","","./tasks/HMM-beads/Images/WhiteBeadChoiceWrong.png","","","","","","","","","",""
"image-keyboard-response","52","1689044","0.0-3.0-4.0-1.0-0.13","60bf9943e4e04642d4634ecc","6662009ae78f21dd82fcd179","666208b114dba3de83030adc","2390","","j","","","","","","","","./tasks/HMM-beads/Images/NewTrialBC.png","practice","0","13","0","0","0","1","false","",""
"image-keyboard-response","53","1689355","0.0-3.0-4.0-1.0-1.13","60bf9943e4e04642d4634ecc","6662009ae78f21dd82fcd179","666208b114dba3de83030adc","null","","null","","","","","","","","./tasks/HMM-beads/Images/WhiteBeadChoice.png","","","","","","","","","",""
"image-keyboard-response","54","1689864","0.0-3.0-4.0-1.0-2.13","60bf9943e4e04642d4634ecc","6662009ae78f21dd82fcd179","666208b114dba3de83030adc","null","","null","","","","","","","","./tasks/HMM-beads/Images/WhiteBeadChoiceWrong.png","","","","","","","","","",""
"image-keyboard-response","55","1692156","0.0-3.0-4.0-1.0-0.14","60bf9943e4e04642d4634ecc","6662009ae78f21dd82fcd179","666208b114dba3de83030adc","2290","","f","","","","","","","","./tasks/HMM-beads/Images/NewTrialBC.png","practice","0","14","0","0","0","0","true","",""
"image-keyboard-response","56","1692466","0.0-3.0-4.0-1.0-1.14","60bf9943e4e04642d4634ecc","6662009ae78f21dd82fcd179","666208b114dba3de83030adc","null","","null","","","","","","","","./tasks/HMM-beads/Images/BlackBeadChoice.png","","","","","","","","","",""
"image-keyboard-response","57","1692980","0.0-3.0-4.0-1.0-2.14","60bf9943e4e04642d4634ecc","6662009ae78f21dd82fcd179","666208b114dba3de83030adc","null","","null","","","","","","","","./tasks/HMM-beads/Images/BlackBeadChoiceCorrect.png","","","","","","","","","",""
"image-keyboard-response","58","1696484","0.0-3.0-4.0-1.0-0.15","60bf9943e4e04642d4634ecc","6662009ae78f21dd82fcd179","666208b114dba3de83030adc","3502","","f","","","","","","","","./tasks/HMM-beads/Images/NewTrialBC.png","practice","0","15","0","0","0","0","true","",""
"image-keyboard-response","59","1696792","0.0-3.0-4.0-1.0-1.15","60bf9943e4e04642d4634ecc","6662009ae78f21dd82fcd179","666208b114dba3de83030adc","null","","null","","","","","","","","./tasks/HMM-beads/Images/BlackBeadChoice.png","","","","","","","","","",""
"image-keyboard-response","60","1697306","0.0-3.0-4.0-1.0-2.15","60bf9943e4e04642d4634ecc","6662009ae78f21dd82fcd179","666208b114dba3de83030adc","null","","null","","","","","","","","./tasks/HMM-beads/Images/BlackBeadChoiceCorrect.png","","","","","","","","","",""
"image-keyboard-response","61","1698308","0.0-3.0-4.0-1.0-0.16","60bf9943e4e04642d4634ecc","6662009ae78f21dd82fcd179","666208b114dba3de83030adc","1000","","j","","","","","","","","./tasks/HMM-beads/Images/NewTrialBC.png","practice","0","16","0","0","0","1","false","",""
"image-keyboard-response","62","1698617","0.0-3.0-4.0-1.0-1.16","60bf9943e4e04642d4634ecc","6662009ae78f21dd82fcd179","666208b114dba3de83030adc","null","","null","","","","","","","","./tasks/HMM-beads/Images/WhiteBeadChoice.png","","","","","","","","","",""
"image-keyboard-response","63","1699132","0.0-3.0-4.0-1.0-2.16","60bf9943e4e04642d4634ecc","6662009ae78f21dd82fcd179","666208b114dba3de83030adc","null","","null","","","","","","","","./tasks/HMM-beads/Images/WhiteBeadChoiceWrong.png","","","","","","","","","",""
"image-keyboard-response","64","1701636","0.0-3.0-4.0-1.0-0.17","60bf9943e4e04642d4634ecc","6662009ae78f21dd82fcd179","666208b114dba3de83030adc","2503","","f","","","","","","","","./tasks/HMM-beads/Images/NewTrialBC.png","practice","0","17","0","0","0","0","true","",""
"image-keyboard-response","65","1701951","0.0-3.0-4.0-1.0-1.17","60bf9943e4e04642d4634ecc","6662009ae78f21dd82fcd179","666208b114dba3de83030adc","null","","null","","","","","","","","./tasks/HMM-beads/Images/BlackBeadChoice.png","","","","","","","","","",""
"image-keyboard-response","66","1702456","0.0-3.0-4.0-1.0-2.17","60bf9943e4e04642d4634ecc","6662009ae78f21dd82fcd179","666208b114dba3de83030adc","null","","null","","","","","","","","./tasks/HMM-beads/Images/BlackBeadChoiceCorrect.png","","","","","","","","","",""
"image-keyboard-response","67","1704836","0.0-3.0-4.0-1.0-0.18","60bf9943e4e04642d4634ecc","6662009ae78f21dd82fcd179","666208b114dba3de83030adc","2378","","j","","","","","","","","./tasks/HMM-beads/Images/NewTrialBC.png","practice","0","18","0","1","0","1","true","",""
"image-keyboard-response","68","1705151","0.0-3.0-4.0-1.0-1.18","60bf9943e4e04642d4634ecc","6662009ae78f21dd82fcd179","666208b114dba3de83030adc","null","","null","","","","","","","","./tasks/HMM-beads/Images/WhiteBeadChoice.png","","","","","","","","","",""
"image-keyboard-response","69","1705666","0.0-3.0-4.0-1.0-2.18","60bf9943e4e04642d4634ecc","6662009ae78f21dd82fcd179","666208b114dba3de83030adc","null","","null","","","","","","","","./tasks/HMM-beads/Images/WhiteBeadChoiceCorrect.png","","","","","","","","","",""
"image-keyboard-response","70","1706348","0.0-3.0-4.0-1.0-0.19","60bf9943e4e04642d4634ecc","6662009ae78f21dd82fcd179","666208b114dba3de83030adc","681","","f","","","","","","","","./tasks/HMM-beads/Images/NewTrialWC.png","practice","0","19","0","0","1","0","true","",""
"image-keyboard-response","71","1706665","0.0-3.0-4.0-1.0-1.19","60bf9943e4e04642d4634ecc","6662009ae78f21dd82fcd179","666208b114dba3de83030adc","null","","null","","","","","","","","./tasks/HMM-beads/Images/BlackBeadChoice.png","","","","","","","","","",""
"image-keyboard-response","72","1707177","0.0-3.0-4.0-1.0-2.19","60bf9943e4e04642d4634ecc","6662009ae78f21dd82fcd179","666208b114dba3de83030adc","null","","null","","","","","","","","./tasks/HMM-beads/Images/BlackBeadChoiceCorrect.png","","","","","","","","","",""
"image-keyboard-response","73","1709156","0.0-3.0-4.0-1.0-0.20","60bf9943e4e04642d4634ecc","6662009ae78f21dd82fcd179","666208b114dba3de83030adc","1977","","j","","","","","","","","./tasks/HMM-beads/Images/NewTrialBC.png","practice","0","20","0","0","0","1","false","",""
"image-keyboard-response","74","1709472","0.0-3.0-4.0-1.0-1.20","60bf9943e4e04642d4634ecc","6662009ae78f21dd82fcd179","666208b114dba3de83030adc","null","","null","","","","","","","","./tasks/HMM-beads/Images/WhiteBeadChoice.png","","","","","","","","","",""
"image-keyboard-response","75","1709988","0.0-3.0-4.0-1.0-2.20","60bf9943e4e04642d4634ecc","6662009ae78f21dd82fcd179","666208b114dba3de83030adc","null","","null","","","","","","","","./tasks/HMM-beads/Images/WhiteBeadChoiceWrong.png","","","","","","","","","",""
"image-keyboard-response","76","1710900","0.0-3.0-4.0-1.0-0.21","60bf9943e4e04642d4634ecc","6662009ae78f21dd82fcd179","666208b114dba3de83030adc","910","","j","","","","","","","","./tasks/HMM-beads/Images/NewTrialBC.png","practice","0","21","0","1","0","1","true","",""
"image-keyboard-response","77","1711205","0.0-3.0-4.0-1.0-1.21","60bf9943e4e04642d4634ecc","6662009ae78f21dd82fcd179","666208b114dba3de83030adc","null","","null","","","","","","","","./tasks/HMM-beads/Images/WhiteBeadChoice.png","","","","","","","","","",""
"image-keyboard-response","78","1711710","0.0-3.0-4.0-1.0-2.21","60bf9943e4e04642d4634ecc","6662009ae78f21dd82fcd179","666208b114dba3de83030adc","null","","null","","","","","","","","./tasks/HMM-beads/Images/WhiteBeadChoiceCorrect.png","","","","","","","","","",""
"image-keyboard-response","79","1714021","0.0-3.0-4.0-1.0-0.22","60bf9943e4e04642d4634ecc","6662009ae78f21dd82fcd179","666208b114dba3de83030adc","2309","","f","","","","","","","","./tasks/HMM-beads/Images/NewTrialWC.png","practice","0","22","1","1","1","0","false","",""
"image-keyboard-response","80","1714326","0.0-3.0-4.0-1.0-1.22","60bf9943e4e04642d4634ecc","6662009ae78f21dd82fcd179","666208b114dba3de83030adc","null","","null","","","","","","","","./tasks/HMM-beads/Images/BlackBeadChoice.png","","","","","","","","","",""
"image-keyboard-response","81","1714842","0.0-3.0-4.0-1.0-2.22","60bf9943e4e04642d4634ecc","6662009ae78f21dd82fcd179","666208b114dba3de83030adc","null","","null","","","","","","","","./tasks/HMM-beads/Images/BlackBeadChoiceWrong.png","","","","","","","","","",""
"image-keyboard-response","82","1725373","0.0-3.0-4.0-1.0-0.23","60bf9943e4e04642d4634ecc","6662009ae78f21dd82fcd179","666208b114dba3de83030adc","10528","","f","","","","","","","","./tasks/HMM-beads/Images/NewTrialWC.png","practice","0","23","1","0","1","0","true","",""
"image-keyboard-response","83","1725677","0.0-3.0-4.0-1.0-1.23","60bf9943e4e04642d4634ecc","6662009ae78f21dd82fcd179","666208b114dba3de83030adc","null","","null","","","","","","","","./tasks/HMM-beads/Images/BlackBeadChoice.png","","","","","","","","","",""
"image-keyboard-response","84","1726181","0.0-3.0-4.0-1.0-2.23","60bf9943e4e04642d4634ecc","6662009ae78f21dd82fcd179","666208b114dba3de83030adc","null","","null","","","","","","","","./tasks/HMM-beads/Images/BlackBeadChoiceCorrect.png","","","","","","","","","",""
"image-keyboard-response","85","1729580","0.0-3.0-4.0-1.0-0.24","60bf9943e4e04642d4634ecc","6662009ae78f21dd82fcd179","666208b114dba3de83030adc","3398","","j","","","","","","","","./tasks/HMM-beads/Images/NewTrialBC.png","practice","0","24","1","1","0","1","true","",""
"image-keyboard-response","86","1729884","0.0-3.0-4.0-1.0-1.24","60bf9943e4e04642d4634ecc","6662009ae78f21dd82fcd179","666208b114dba3de83030adc","null","","null","","","","","","","","./tasks/HMM-beads/Images/WhiteBeadChoice.png","","","","","","","","","",""
"image-keyboard-response","87","1730390","0.0-3.0-4.0-1.0-2.24","60bf9943e4e04642d4634ecc","6662009ae78f21dd82fcd179","666208b114dba3de83030adc","null","","null","","","","","","","","./tasks/HMM-beads/Images/WhiteBeadChoiceCorrect.png","","","","","","","","","",""
"image-keyboard-response","88","1733213","0.0-3.0-4.0-1.0-0.25","60bf9943e4e04642d4634ecc","6662009ae78f21dd82fcd179","666208b114dba3de83030adc","2821","","f","","","","","","","","./tasks/HMM-beads/Images/NewTrialWC.png","practice","0","25","1","1","1","0","false","",""
"image-keyboard-response","89","1733524","0.0-3.0-4.0-1.0-1.25","60bf9943e4e04642d4634ecc","6662009ae78f21dd82fcd179","666208b114dba3de83030adc","null","","null","","","","","","","","./tasks/HMM-beads/Images/BlackBeadChoice.png","","","","","","","","","",""
"image-keyboard-response","90","1734028","0.0-3.0-4.0-1.0-2.25","60bf9943e4e04642d4634ecc","6662009ae78f21dd82fcd179","666208b114dba3de83030adc","null","","null","","","","","","","","./tasks/HMM-beads/Images/BlackBeadChoiceWrong.png","","","","","","","","","",""
"image-keyboard-response","91","1737149","0.0-3.0-4.0-1.0-0.26","60bf9943e4e04642d4634ecc","6662009ae78f21dd82fcd179","666208b114dba3de83030adc","3118","","j","","","","","","","","./tasks/HMM-beads/Images/NewTrialWC.png","practice","0","26","1","1","1","1","true","",""
"image-keyboard-response","92","1737459","0.0-3.0-4.0-1.0-1.26","60bf9943e4e04642d4634ecc","6662009ae78f21dd82fcd179","666208b114dba3de83030adc","null","","null","","","","","","","","./tasks/HMM-beads/Images/WhiteBeadChoice.png","","","","","","","","","",""
"image-keyboard-response","93","1737963","0.0-3.0-4.0-1.0-2.26","60bf9943e4e04642d4634ecc","6662009ae78f21dd82fcd179","666208b114dba3de83030adc","null","","null","","","","","","","","./tasks/HMM-beads/Images/WhiteBeadChoiceCorrect.png","","","","","","","","","",""
"image-keyboard-response","94","1739573","0.0-3.0-4.0-1.0-0.27","60bf9943e4e04642d4634ecc","6662009ae78f21dd82fcd179","666208b114dba3de83030adc","1608","","f","","","","","","","","./tasks/HMM-beads/Images/NewTrialWC.png","practice","0","27","1","1","1","0","false","",""
"image-keyboard-response","95","1739880","0.0-3.0-4.0-1.0-1.27","60bf9943e4e04642d4634ecc","6662009ae78f21dd82fcd179","666208b114dba3de83030adc","null","","null","","","","","","","","./tasks/HMM-beads/Images/BlackBeadChoice.png","","","","","","","","","",""
"image-keyboard-response","96","1740394","0.0-3.0-4.0-1.0-2.27","60bf9943e4e04642d4634ecc","6662009ae78f21dd82fcd179","666208b114dba3de83030adc","null","","null","","","","","","","","./tasks/HMM-beads/Images/BlackBeadChoiceWrong.png","","","","","","","","","",""
"image-keyboard-response","97","1742365","0.0-3.0-4.0-1.0-0.28","60bf9943e4e04642d4634ecc","6662009ae78f21dd82fcd179","666208b114dba3de83030adc","1969","","f","","","","","","","","./tasks/HMM-beads/Images/NewTrialWC.png","practice","0","28","1","0","1","0","true","",""
"image-keyboard-response","98","1742673","0.0-3.0-4.0-1.0-1.28","60bf9943e4e04642d4634ecc","6662009ae78f21dd82fcd179","666208b114dba3de83030adc","null","","null","","","","","","","","./tasks/HMM-beads/Images/BlackBeadChoice.png","","","","","","","","","",""
"image-keyboard-response","99","1743179","0.0-3.0-4.0-1.0-2.28","60bf9943e4e04642d4634ecc","6662009ae78f21dd82fcd179","666208b114dba3de83030adc","null","","null","","","","","","","","./tasks/HMM-beads/Images/BlackBeadChoiceCorrect.png","","","","","","","","","",""
"image-keyboard-response","100","1743693","0.0-3.0-4.0-1.0-0.29","60bf9943e4e04642d4634ecc","6662009ae78f21dd82fcd179","666208b114dba3de83030adc","512","","j","","","","","","","","./tasks/HMM-beads/Images/NewTrialBC.png","practice","0","29","1","1","0","1","true","",""
"image-keyboard-response","101","1744003","0.0-3.0-4.0-1.0-1.29","60bf9943e4e04642d4634ecc","6662009ae78f21dd82fcd179","666208b114dba3de83030adc","null","","null","","","","","","","","./tasks/HMM-beads/Images/WhiteBeadChoice.png","","","","","","","","","",""
"image-keyboard-response","102","1744508","0.0-3.0-4.0-1.0-2.29","60bf9943e4e04642d4634ecc","6662009ae78f21dd82fcd179","666208b114dba3de83030adc","null","","null","","","","","","","","./tasks/HMM-beads/Images/WhiteBeadChoiceCorrect.png","","","","","","","","","",""
"image-keyboard-response","103","1745637","0.0-3.0-4.0-1.0-0.30","60bf9943e4e04642d4634ecc","6662009ae78f21dd82fcd179","666208b114dba3de83030adc","1127","","j","","","","","","","","./tasks/HMM-beads/Images/NewTrialWC.png","practice","0","30","1","0","1","1","false","",""
"image-keyboard-response","104","1745950","0.0-3.0-4.0-1.0-1.30","60bf9943e4e04642d4634ecc","6662009ae78f21dd82fcd179","666208b114dba3de83030adc","null","","null","","","","","","","","./tasks/HMM-beads/Images/WhiteBeadChoice.png","","","","","","","","","",""
"image-keyboard-response","105","1746461","0.0-3.0-4.0-1.0-2.30","60bf9943e4e04642d4634ecc","6662009ae78f21dd82fcd179","666208b114dba3de83030adc","null","","null","","","","","","","","./tasks/HMM-beads/Images/WhiteBeadChoiceWrong.png","","","","","","","","","",""
"image-keyboard-response","106","1748389","0.0-3.0-4.0-1.0-0.31","60bf9943e4e04642d4634ecc","6662009ae78f21dd82fcd179","666208b114dba3de83030adc","1925","","j","","","","","","","","./tasks/HMM-beads/Images/NewTrialBC.png","practice","0","31","1","1","0","1","true","",""
"image-keyboard-response","107","1748703","0.0-3.0-4.0-1.0-1.31","60bf9943e4e04642d4634ecc","6662009ae78f21dd82fcd179","666208b114dba3de83030adc","null","","null","","","","","","","","./tasks/HMM-beads/Images/WhiteBeadChoice.png","","","","","","","","","",""
"image-keyboard-response","108","1749210","0.0-3.0-4.0-1.0-2.31","60bf9943e4e04642d4634ecc","6662009ae78f21dd82fcd179","666208b114dba3de83030adc","null","","null","","","","","","","","./tasks/HMM-beads/Images/WhiteBeadChoiceCorrect.png","","","","","","","","","",""
"image-keyboard-response","109","1749340","0.0-3.0-4.0-1.0-0.32","60bf9943e4e04642d4634ecc","6662009ae78f21dd82fcd179","666208b114dba3de83030adc","128","","f","","","","","","","","./tasks/HMM-beads/Images/NewTrialWC.png","practice","0","32","1","1","1","0","false","",""
"image-keyboard-response","110","1749643","0.0-3.0-4.0-1.0-1.32","60bf9943e4e04642d4634ecc","6662009ae78f21dd82fcd179","666208b114dba3de83030adc","null","","null","","","","","","","","./tasks/HMM-beads/Images/BlackBeadChoice.png","","","","","","","","","",""
"image-keyboard-response","111","1750158","0.0-3.0-4.0-1.0-2.32","60bf9943e4e04642d4634ecc","6662009ae78f21dd82fcd179","666208b114dba3de83030adc","null","","null","","","","","","","","./tasks/HMM-beads/Images/BlackBeadChoiceWrong.png","","","","","","","","","",""
"image-keyboard-response","112","1753637","0.0-3.0-4.0-1.0-0.33","60bf9943e4e04642d4634ecc","6662009ae78f21dd82fcd179","666208b114dba3de83030adc","3476","","f","","","","","","","","./tasks/HMM-beads/Images/NewTrialWC.png","practice","0","33","1","1","1","0","false","",""
"image-keyboard-response","113","1753939","0.0-3.0-4.0-1.0-1.33","60bf9943e4e04642d4634ecc","6662009ae78f21dd82fcd179","666208b114dba3de83030adc","null","","null","","","","","","","","./tasks/HMM-beads/Images/BlackBeadChoice.png","","","","","","","","","",""
"image-keyboard-response","114","1754455","0.0-3.0-4.0-1.0-2.33","60bf9943e4e04642d4634ecc","6662009ae78f21dd82fcd179","666208b114dba3de83030adc","null","","null","","","","","","","","./tasks/HMM-beads/Images/BlackBeadChoiceWrong.png","","","","","","","","","",""
"image-keyboard-response","115","1756308","0.0-3.0-4.0-1.0-0.34","60bf9943e4e04642d4634ecc","6662009ae78f21dd82fcd179","666208b114dba3de83030adc","1851","","f","","","","","","","","./tasks/HMM-beads/Images/NewTrialWC.png","practice","0","34","1","1","1","0","false","",""
"image-keyboard-response","116","1756615","0.0-3.0-4.0-1.0-1.34","60bf9943e4e04642d4634ecc","6662009ae78f21dd82fcd179","666208b114dba3de83030adc","null","","null","","","","","","","","./tasks/HMM-beads/Images/BlackBeadChoice.png","","","","","","","","","",""
"image-keyboard-response","117","1757129","0.0-3.0-4.0-1.0-2.34","60bf9943e4e04642d4634ecc","6662009ae78f21dd82fcd179","666208b114dba3de83030adc","null","","null","","","","","","","","./tasks/HMM-beads/Images/BlackBeadChoiceWrong.png","","","","","","","","","",""
"image-keyboard-response","118","1762869","0.0-3.0-4.0-1.0-0.35","60bf9943e4e04642d4634ecc","6662009ae78f21dd82fcd179","666208b114dba3de83030adc","5738","","f","","","","","","","","./tasks/HMM-beads/Images/NewTrialWC.png","practice","0","35","1","1","1","0","false","",""
"image-keyboard-response","119","1763179","0.0-3.0-4.0-1.0-1.35","60bf9943e4e04642d4634ecc","6662009ae78f21dd82fcd179","666208b114dba3de83030adc","null","","null","","","","","","","","./tasks/HMM-beads/Images/BlackBeadChoice.png","","","","","","","","","",""
"image-keyboard-response","120","1763693","0.0-3.0-4.0-1.0-2.35","60bf9943e4e04642d4634ecc","6662009ae78f21dd82fcd179","666208b114dba3de83030adc","null","","null","","","","","","","","./tasks/HMM-beads/Images/BlackBeadChoiceWrong.png","","","","","","","","","",""
"image-keyboard-response","121","1764060","0.0-3.0-4.0-1.0-0.36","60bf9943e4e04642d4634ecc","6662009ae78f21dd82fcd179","666208b114dba3de83030adc","365","","j","","","","","","","","./tasks/HMM-beads/Images/NewTrialWC.png","practice","0","36","1","0","1","1","false","",""
"image-keyboard-response","122","1764367","0.0-3.0-4.0-1.0-1.36","60bf9943e4e04642d4634ecc","6662009ae78f21dd82fcd179","666208b114dba3de83030adc","null","","null","","","","","","","","./tasks/HMM-beads/Images/WhiteBeadChoice.png","","","","","","","","","",""
"image-keyboard-response","123","1764885","0.0-3.0-4.0-1.0-2.36","60bf9943e4e04642d4634ecc","6662009ae78f21dd82fcd179","666208b114dba3de83030adc","null","","null","","","","","","","","./tasks/HMM-beads/Images/WhiteBeadChoiceWrong.png","","","","","","","","","",""
"image-keyboard-response","124","1767989","0.0-3.0-4.0-1.0-0.37","60bf9943e4e04642d4634ecc","6662009ae78f21dd82fcd179","666208b114dba3de83030adc","3102","","j","","","","","","","","./tasks/HMM-beads/Images/NewTrialBC.png","practice","0","37","1","1","0","1","true","",""
"image-keyboard-response","125","1768296","0.0-3.0-4.0-1.0-1.37","60bf9943e4e04642d4634ecc","6662009ae78f21dd82fcd179","666208b114dba3de83030adc","null","","null","","","","","","","","./tasks/HMM-beads/Images/WhiteBeadChoice.png","","","","","","","","","",""
"image-keyboard-response","126","1768800","0.0-3.0-4.0-1.0-2.37","60bf9943e4e04642d4634ecc","6662009ae78f21dd82fcd179","666208b114dba3de83030adc","null","","null","","","","","","","","./tasks/HMM-beads/Images/WhiteBeadChoiceCorrect.png","","","","","","","","","",""
"image-keyboard-response","127","1771252","0.0-3.0-4.0-1.0-0.38","60bf9943e4e04642d4634ecc","6662009ae78f21dd82fcd179","666208b114dba3de83030adc","2451","","j","","","","","","","","./tasks/HMM-beads/Images/NewTrialWC.png","practice","0","38","1","1","1","1","true","",""
"image-keyboard-response","128","1771558","0.0-3.0-4.0-1.0-1.38","60bf9943e4e04642d4634ecc","6662009ae78f21dd82fcd179","666208b114dba3de83030adc","null","","null","","","","","","","","./tasks/HMM-beads/Images/WhiteBeadChoice.png","","","","","","","","","",""
"image-keyboard-response","129","1772066","0.0-3.0-4.0-1.0-2.38","60bf9943e4e04642d4634ecc","6662009ae78f21dd82fcd179","666208b114dba3de83030adc","null","","null","","","","","","","","./tasks/HMM-beads/Images/WhiteBeadChoiceCorrect.png","","","","","","","","","",""
"image-keyboard-response","130","1773388","0.0-3.0-4.0-1.0-0.39","60bf9943e4e04642d4634ecc","6662009ae78f21dd82fcd179","666208b114dba3de83030adc","1320","","j","","","","","","","","./tasks/HMM-beads/Images/NewTrialWC.png","practice","0","39","1","1","1","1","true","",""
"image-keyboard-response","131","1773700","0.0-3.0-4.0-1.0-1.39","60bf9943e4e04642d4634ecc","6662009ae78f21dd82fcd179","666208b114dba3de83030adc","null","","null","","","","","","","","./tasks/HMM-beads/Images/WhiteBeadChoice.png","","","","","","","","","",""
"image-keyboard-response","132","1774214","0.0-3.0-4.0-1.0-2.39","60bf9943e4e04642d4634ecc","6662009ae78f21dd82fcd179","666208b114dba3de83030adc","null","","null","","","","","","","","./tasks/HMM-beads/Images/WhiteBeadChoiceCorrect.png","","","","","","","","","",""
"html-keyboard-response","133","2149611","0.0-3.0-4.0-2.0","60bf9943e4e04642d4634ecc","6662009ae78f21dd82fcd179","666208b114dba3de83030adc","375395",""," ","","","","","","","","","","","","","","","","","",""
"instructions","134","2511736","0.0-3.0-5.0","60bf9943e4e04642d4634ecc","6662009ae78f21dd82fcd179","666208b114dba3de83030adc","362124","","","","[{""page_index"":0,""viewing_time"":6307},{""page_index"":1,""viewing_time"":355817}]","","","","","","","","","","","","","","","",""
"html-keyboard-response","135","2516570","0.0-3.0-6.0-0.0","60bf9943e4e04642d4634ecc","6662009ae78f21dd82fcd179","666208b114dba3de83030adc","4833",""," ","","","","","","","","<div align=center>In this block, there will be a <b>1% chance</b> that the jar on the next trial will be different from the jar on the current trial.<br><br></div>","","","","","","","","","",""
"image-keyboard-response","136","2518458","0.0-3.0-6.0-1.0-0.0","60bf9943e4e04642d4634ecc","6662009ae78f21dd82fcd179","666208b114dba3de83030adc","1886","","f","","","","","","","","./tasks/HMM-beads/Images/NoChoice.png","lowH","1","0","1","0","9","0","true","",""
"image-keyboard-response","137","2518774","0.0-3.0-6.0-1.0-1.0","60bf9943e4e04642d4634ecc","6662009ae78f21dd82fcd179","666208b114dba3de83030adc","null","","null","","","","","","","","./tasks/HMM-beads/Images/BlackBeadChoice.png","","","","","","","","","",""
"image-keyboard-response","138","2519281","0.0-3.0-6.0-1.0-2.0","60bf9943e4e04642d4634ecc","6662009ae78f21dd82fcd179","666208b114dba3de83030adc","null","","null","","","","","","","","./tasks/HMM-beads/Images/BlackBeadChoiceCorrect.png","","","","","","","","","",""
"image-keyboard-response","139","2521193","0.0-3.0-6.0-1.0-0.1","60bf9943e4e04642d4634ecc","6662009ae78f21dd82fcd179","666208b114dba3de83030adc","1911","","f","","","","","","","","./tasks/HMM-beads/Images/NewTrialBC.png","lowH","1","1","1","1","0","0","false","",""
"image-keyboard-response","140","2521508","0.0-3.0-6.0-1.0-1.1","60bf9943e4e04642d4634ecc","6662009ae78f21dd82fcd179","666208b114dba3de83030adc","null","","null","","","","","","","","./tasks/HMM-beads/Images/BlackBeadChoice.png","","","","","","","","","",""
"image-keyboard-response","141","2522019","0.0-3.0-6.0-1.0-2.1","60bf9943e4e04642d4634ecc","6662009ae78f21dd82fcd179","666208b114dba3de83030adc","null","","null","","","","","","","","./tasks/HMM-beads/Images/BlackBeadChoiceWrong.png","","","","","","","","","",""
"image-keyboard-response","142","2524417","0.0-3.0-6.0-1.0-0.2","60bf9943e4e04642d4634ecc","6662009ae78f21dd82fcd179","666208b114dba3de83030adc","2396","","j","","","","","","","","./tasks/HMM-beads/Images/NewTrialWC.png","lowH","1","2","1","1","1","1","true","",""
"image-keyboard-response","143","2524722","0.0-3.0-6.0-1.0-1.2","60bf9943e4e04642d4634ecc","6662009ae78f21dd82fcd179","666208b114dba3de83030adc","null","","null","","","","","","","","./tasks/HMM-beads/Images/WhiteBeadChoice.png","","","","","","","","","",""
"image-keyboard-response","144","2525227","0.0-3.0-6.0-1.0-2.2","60bf9943e4e04642d4634ecc","6662009ae78f21dd82fcd179","666208b114dba3de83030adc","null","","null","","","","","","","","./tasks/HMM-beads/Images/WhiteBeadChoiceCorrect.png","","","","","","","","","",""
"image-keyboard-response","145","2525866","0.0-3.0-6.0-1.0-0.3","60bf9943e4e04642d4634ecc","6662009ae78f21dd82fcd179","666208b114dba3de83030adc","637","","j","","","","","","","","./tasks/HMM-beads/Images/NewTrialWC.png","lowH","1","3","1","1","1","1","true","",""
"image-keyboard-response","146","2526176","0.0-3.0-6.0-1.0-1.3","60bf9943e4e04642d4634ecc","6662009ae78f21dd82fcd179","666208b114dba3de83030adc","null","","null","","","","","","","","./tasks/HMM-beads/Images/WhiteBeadChoice.png","","","","","","","","","",""
"image-keyboard-response","147","2526692","0.0-3.0-6.0-1.0-2.3","60bf9943e4e04642d4634ecc","6662009ae78f21dd82fcd179","666208b114dba3de83030adc","null","","null","","","","","","","","./tasks/HMM-beads/Images/WhiteBeadChoiceCorrect.png","","","","","","","","","",""
"image-keyboard-response","148","2528666","0.0-3.0-6.0-1.0-0.4","60bf9943e4e04642d4634ecc","6662009ae78f21dd82fcd179","666208b114dba3de83030adc","1971","","j","","","","","","","","./tasks/HMM-beads/Images/NewTrialWC.png","lowH","1","4","1","1","1","1","true","",""
"image-keyboard-response","149","2528983","0.0-3.0-6.0-1.0-1.4","60bf9943e4e04642d4634ecc","6662009ae78f21dd82fcd179","666208b114dba3de83030adc","null","","null","","","","","","","","./tasks/HMM-beads/Images/WhiteBeadChoice.png","","","","","","","","","",""
"image-keyboard-response","150","2529500","0.0-3.0-6.0-1.0-2.4","60bf9943e4e04642d4634ecc","6662009ae78f21dd82fcd179","666208b114dba3de83030adc","null","","null","","","","","","","","./tasks/HMM-beads/Images/WhiteBeadChoiceCorrect.png","","","","","","","","","",""
"image-keyboard-response","151","2529833","0.0-3.0-6.0-1.0-0.5","60bf9943e4e04642d4634ecc","6662009ae78f21dd82fcd179","666208b114dba3de83030adc","332","","f","","","","","","","","./tasks/HMM-beads/Images/NewTrialWC.png","lowH","1","5","1","1","1","0","false","",""
"image-keyboard-response","152","2530140","0.0-3.0-6.0-1.0-1.5","60bf9943e4e04642d4634ecc","6662009ae78f21dd82fcd179","666208b114dba3de83030adc","null","","null","","","","","","","","./tasks/HMM-beads/Images/BlackBeadChoice.png","","","","","","","","","",""
"image-keyboard-response","153","2530646","0.0-3.0-6.0-1.0-2.5","60bf9943e4e04642d4634ecc","6662009ae78f21dd82fcd179","666208b114dba3de83030adc","null","","null","","","","","","","","./tasks/HMM-beads/Images/BlackBeadChoiceWrong.png","","","","","","","","","",""
"image-keyboard-response","154","2531138","0.0-3.0-6.0-1.0-0.6","60bf9943e4e04642d4634ecc","6662009ae78f21dd82fcd179","666208b114dba3de83030adc","490","","j","","","","","","","","./tasks/HMM-beads/Images/NewTrialWC.png","lowH","1","6","1","0","1","1","false","",""
"image-keyboard-response","155","2531450","0.0-3.0-6.0-1.0-1.6","60bf9943e4e04642d4634ecc","6662009ae78f21dd82fcd179","666208b114dba3de83030adc","null","","null","","","","","","","","./tasks/HMM-beads/Images/WhiteBeadChoice.png","","","","","","","","","",""
"image-keyboard-response","156","2531956","0.0-3.0-6.0-1.0-2.6","60bf9943e4e04642d4634ecc","6662009ae78f21dd82fcd179","666208b114dba3de83030adc","null","","null","","","","","","","","./tasks/HMM-beads/Images/WhiteBeadChoiceWrong.png","","","","","","","","","",""
"image-keyboard-response","157","2532345","0.0-3.0-6.0-1.0-0.7","60bf9943e4e04642d4634ecc","6662009ae78f21dd82fcd179","666208b114dba3de83030adc","388","","f","","","","","","","","./tasks/HMM-beads/Images/NewTrialBC.png","lowH","1","7","1","1","0","0","false","",""
"image-keyboard-response","158","2532658","0.0-3.0-6.0-1.0-1.7","60bf9943e4e04642d4634ecc","6662009ae78f21dd82fcd179","666208b114dba3de83030adc","null","","null","","","","","","","","./tasks/HMM-beads/Images/BlackBeadChoice.png","","","","","","","","","",""
"image-keyboard-response","159","2533171","0.0-3.0-6.0-1.0-2.7","60bf9943e4e04642d4634ecc","6662009ae78f21dd82fcd179","666208b114dba3de83030adc","null","","null","","","","","","","","./tasks/HMM-beads/Images/BlackBeadChoiceWrong.png","","","","","","","","","",""
"image-keyboard-response","160","2534145","0.0-3.0-6.0-1.0-0.8","60bf9943e4e04642d4634ecc","6662009ae78f21dd82fcd179","666208b114dba3de83030adc","973","","j","","","","","","","","./tasks/HMM-beads/Images/NewTrialWC.png","lowH","1","8","1","1","1","1","true","",""
"image-keyboard-response","161","2534453","0.0-3.0-6.0-1.0-1.8","60bf9943e4e04642d4634ecc","6662009ae78f21dd82fcd179","666208b114dba3de83030adc","null","","null","","","","","","","","./tasks/HMM-beads/Images/WhiteBeadChoice.png","","","","","","","","","",""
"image-keyboard-response","162","2534969","0.0-3.0-6.0-1.0-2.8","60bf9943e4e04642d4634ecc","6662009ae78f21dd82fcd179","666208b114dba3de83030adc","null","","null","","","","","","","","./tasks/HMM-beads/Images/WhiteBeadChoiceCorrect.png","","","","","","","","","",""
"image-keyboard-response","163","2535537","0.0-3.0-6.0-1.0-0.9","60bf9943e4e04642d4634ecc","6662009ae78f21dd82fcd179","666208b114dba3de83030adc","567","","j","","","","","","","","./tasks/HMM-beads/Images/NewTrialWC.png","lowH","1","9","1","1","1","1","true","",""
"image-keyboard-response","164","2535846","0.0-3.0-6.0-1.0-1.9","60bf9943e4e04642d4634ecc","6662009ae78f21dd82fcd179","666208b114dba3de83030adc","null","","null","","","","","","","","./tasks/HMM-beads/Images/WhiteBeadChoice.png","","","","","","","","","",""
"image-keyboard-response","165","2536360","0.0-3.0-6.0-1.0-2.9","60bf9943e4e04642d4634ecc","6662009ae78f21dd82fcd179","666208b114dba3de83030adc","null","","null","","","","","","","","./tasks/HMM-beads/Images/WhiteBeadChoiceCorrect.png","","","","","","","","","",""
"image-keyboard-response","166","2537217","0.0-3.0-6.0-1.0-0.10","60bf9943e4e04642d4634ecc","6662009ae78f21dd82fcd179","666208b114dba3de83030adc","856","","j","","","","","","","","./tasks/HMM-beads/Images/NewTrialWC.png","lowH","1","10","1","1","1","1","true","",""
"image-keyboard-response","167","2537522","0.0-3.0-6.0-1.0-1.10","60bf9943e4e04642d4634ecc","6662009ae78f21dd82fcd179","666208b114dba3de83030adc","null","","null","","","","","","","","./tasks/HMM-beads/Images/WhiteBeadChoice.png","","","","","","","","","",""
"image-keyboard-response","168","2538034","0.0-3.0-6.0-1.0-2.10","60bf9943e4e04642d4634ecc","6662009ae78f21dd82fcd179","666208b114dba3de83030adc","null","","null","","","","","","","","./tasks/HMM-beads/Images/WhiteBeadChoiceCorrect.png","","","","","","","","","",""
"image-keyboard-response","169","2539186","0.0-3.0-6.0-1.0-0.11","60bf9943e4e04642d4634ecc","6662009ae78f21dd82fcd179","666208b114dba3de83030adc","1150","","f","","","","","","","","./tasks/HMM-beads/Images/NewTrialWC.png","lowH","1","11","1","1","1","0","false","",""
"image-keyboard-response","170","2539494","0.0-3.0-6.0-1.0-1.11","60bf9943e4e04642d4634ecc","6662009ae78f21dd82fcd179","666208b114dba3de83030adc","null","","null","","","","","","","","./tasks/HMM-beads/Images/BlackBeadChoice.png","","","","","","","","","",""
"image-keyboard-response","171","2540010","0.0-3.0-6.0-1.0-2.11","60bf9943e4e04642d4634ecc","6662009ae78f21dd82fcd179","666208b114dba3de83030adc","null","","null","","","","","","","","./tasks/HMM-beads/Images/BlackBeadChoiceWrong.png","","","","","","","","","",""
"image-keyboard-response","172","2540114","0.0-3.0-6.0-1.0-0.12","60bf9943e4e04642d4634ecc","6662009ae78f21dd82fcd179","666208b114dba3de83030adc","102","","j","","","","","","","","./tasks/HMM-beads/Images/NewTrialWC.png","lowH","1","12","1","1","1","1","true","",""
"image-keyboard-response","173","2540427","0.0-3.0-6.0-1.0-1.12","60bf9943e4e04642d4634ecc","6662009ae78f21dd82fcd179","666208b114dba3de83030adc","null","","null","","","","","","","","./tasks/HMM-beads/Images/WhiteBeadChoice.png","","","","","","","","","",""
"image-keyboard-response","174","2540941","0.0-3.0-6.0-1.0-2.12","60bf9943e4e04642d4634ecc","6662009ae78f21dd82fcd179","666208b114dba3de83030adc","null","","null","","","","","","","","./tasks/HMM-beads/Images/WhiteBeadChoiceCorrect.png","","","","","","","","","",""
"image-keyboard-response","175","2541178","0.0-3.0-6.0-1.0-0.13","60bf9943e4e04642d4634ecc","6662009ae78f21dd82fcd179","666208b114dba3de83030adc","235","","f","","","","","","","","./tasks/HMM-beads/Images/NewTrialWC.png","lowH","1","13","1","0","1","0","true","",""
"image-keyboard-response","176","2541489","0.0-3.0-6.0-1.0-1.13","60bf9943e4e04642d4634ecc","6662009ae78f21dd82fcd179","666208b114dba3de83030adc","null","","null","","","","","","","","./tasks/HMM-beads/Images/BlackBeadChoice.png","","","","","","","","","",""
"image-keyboard-response","177","2542001","0.0-3.0-6.0-1.0-2.13","60bf9943e4e04642d4634ecc","6662009ae78f21dd82fcd179","666208b114dba3de83030adc","null","","null","","","","","","","","./tasks/HMM-beads/Images/BlackBeadChoiceCorrect.png","","","","","","","","","",""
"image-keyboard-response","178","2542626","0.0-3.0-6.0-1.0-0.14","60bf9943e4e04642d4634ecc","6662009ae78f21dd82fcd179","666208b114dba3de83030adc","623","","f","","","","","","","","./tasks/HMM-beads/Images/NewTrialBC.png","lowH","1","14","1","0","0","0","true","",""
"image-keyboard-response","179","2542933","0.0-3.0-6.0-1.0-1.14","60bf9943e4e04642d4634ecc","6662009ae78f21dd82fcd179","666208b114dba3de83030adc","null","","null","","","","","","","","./tasks/HMM-beads/Images/BlackBeadChoice.png","","","","","","","","","",""
"image-keyboard-response","180","2543455","0.0-3.0-6.0-1.0-2.14","60bf9943e4e04642d4634ecc","6662009ae78f21dd82fcd179","666208b114dba3de83030adc","null","","null","","","","","","","","./tasks/HMM-beads/Images/BlackBeadChoiceCorrect.png","","","","","","","","","",""
"image-keyboard-response","181","2543874","0.0-3.0-6.0-1.0-0.15","60bf9943e4e04642d4634ecc","6662009ae78f21dd82fcd179","666208b114dba3de83030adc","417","","f","","","","","","","","./tasks/HMM-beads/Images/NewTrialBC.png","lowH","1","15","1","1","0","0","false","",""
"image-keyboard-response","182","2544186","0.0-3.0-6.0-1.0-1.15","60bf9943e4e04642d4634ecc","6662009ae78f21dd82fcd179","666208b114dba3de83030adc","null","","null","","","","","","","","./tasks/HMM-beads/Images/BlackBeadChoice.png","","","","","","","","","",""
"image-keyboard-response","183","2544700","0.0-3.0-6.0-1.0-2.15","60bf9943e4e04642d4634ecc","6662009ae78f21dd82fcd179","666208b114dba3de83030adc","null","","null","","","","","","","","./tasks/HMM-beads/Images/BlackBeadChoiceWrong.png","","","","","","","","","",""
"image-keyboard-response","184","2545058","0.0-3.0-6.0-1.0-0.16","60bf9943e4e04642d4634ecc","6662009ae78f21dd82fcd179","666208b114dba3de83030adc","356","","j","","","","","","","","./tasks/HMM-beads/Images/NewTrialWC.png","lowH","1","16","1","1","1","1","true","",""
"image-keyboard-response","185","2545361","0.0-3.0-6.0-1.0-1.16","60bf9943e4e04642d4634ecc","6662009ae78f21dd82fcd179","666208b114dba3de83030adc","null","","null","","","","","","","","./tasks/HMM-beads/Images/WhiteBeadChoice.png","","","","","","","","","",""
"image-keyboard-response","186","2545866","0.0-3.0-6.0-1.0-2.16","60bf9943e4e04642d4634ecc","6662009ae78f21dd82fcd179","666208b114dba3de83030adc","null","","null","","","","","","","","./tasks/HMM-beads/Images/WhiteBeadChoiceCorrect.png","","","","","","","","","",""
"image-keyboard-response","187","2545889","0.0-3.0-6.0-1.0-0.17","60bf9943e4e04642d4634ecc","6662009ae78f21dd82fcd179","666208b114dba3de83030adc","22","","j","","","","","","","","./tasks/HMM-beads/Images/NewTrialWC.png","lowH","1","17","1","1","1","1","true","",""
"image-keyboard-response","188","2546192","0.0-3.0-6.0-1.0-1.17","60bf9943e4e04642d4634ecc","6662009ae78f21dd82fcd179","666208b114dba3de83030adc","null","","null","","","","","","","","./tasks/HMM-beads/Images/WhiteBeadChoice.png","","","","","","","","","",""
"image-keyboard-response","189","2546704","0.0-3.0-6.0-1.0-2.17","60bf9943e4e04642d4634ecc","6662009ae78f21dd82fcd179","666208b114dba3de83030adc","null","","null","","","","","","","","./tasks/HMM-beads/Images/WhiteBeadChoiceCorrect.png","","","","","","","","","",""
"image-keyboard-response","190","2547202","0.0-3.0-6.0-1.0-0.18","60bf9943e4e04642d4634ecc","6662009ae78f21dd82fcd179","666208b114dba3de83030adc","496","","j","","","","","","","","./tasks/HMM-beads/Images/NewTrialWC.png","lowH","1","18","1","1","1","1","true","",""
"image-keyboard-response","191","2547512","0.0-3.0-6.0-1.0-1.18","60bf9943e4e04642d4634ecc","6662009ae78f21dd82fcd179","666208b114dba3de83030adc","null","","null","","","","","","","","./tasks/HMM-beads/Images/WhiteBeadChoice.png","","","","","","","","","",""
"image-keyboard-response","192","2548019","0.0-3.0-6.0-1.0-2.18","60bf9943e4e04642d4634ecc","6662009ae78f21dd82fcd179","666208b114dba3de83030adc","null","","null","","","","","","","","./tasks/HMM-beads/Images/WhiteBeadChoiceCorrect.png","","","","","","","","","",""
"image-keyboard-response","193","2549186","0.0-3.0-6.0-1.0-0.19","60bf9943e4e04642d4634ecc","6662009ae78f21dd82fcd179","666208b114dba3de83030adc","1165","","j","","","","","","","","./tasks/HMM-beads/Images/NewTrialWC.png","lowH","1","19","1","1","1","1","true","",""
"image-keyboard-response","194","2549501","0.0-3.0-6.0-1.0-1.19","60bf9943e4e04642d4634ecc","6662009ae78f21dd82fcd179","666208b114dba3de83030adc","null","","null","","","","","","","","./tasks/HMM-beads/Images/WhiteBeadChoice.png","","","","","","","","","",""
"image-keyboard-response","195","2550011","0.0-3.0-6.0-1.0-2.19","60bf9943e4e04642d4634ecc","6662009ae78f21dd82fcd179","666208b114dba3de83030adc","null","","null","","","","","","","","./tasks/HMM-beads/Images/WhiteBeadChoiceCorrect.png","","","","","","","","","",""
"image-keyboard-response","196","2550042","0.0-3.0-6.0-1.0-0.20","60bf9943e4e04642d4634ecc","6662009ae78f21dd82fcd179","666208b114dba3de83030adc","29","","f","","","","","","","","./tasks/HMM-beads/Images/NewTrialWC.png","lowH","1","20","1","1","1","0","false","",""
"image-keyboard-response","197","2550357","0.0-3.0-6.0-1.0-1.20","60bf9943e4e04642d4634ecc","6662009ae78f21dd82fcd179","666208b114dba3de83030adc","null","","null","","","","","","","","./tasks/HMM-beads/Images/BlackBeadChoice.png","","","","","","","","","",""
"image-keyboard-response","198","2550870","0.0-3.0-6.0-1.0-2.20","60bf9943e4e04642d4634ecc","6662009ae78f21dd82fcd179","666208b114dba3de83030adc","null","","null","","","","","","","","./tasks/HMM-beads/Images/BlackBeadChoiceWrong.png","","","","","","","","","",""
"image-keyboard-response","199","2551570","0.0-3.0-6.0-1.0-0.21","60bf9943e4e04642d4634ecc","6662009ae78f21dd82fcd179","666208b114dba3de83030adc","698","","j","","","","","","","","./tasks/HMM-beads/Images/NewTrialWC.png","lowH","1","21","1","1","1","1","true","",""
"image-keyboard-response","200","2551883","0.0-3.0-6.0-1.0-1.21","60bf9943e4e04642d4634ecc","6662009ae78f21dd82fcd179","666208b114dba3de83030adc","null","","null","","","","","","","","./tasks/HMM-beads/Images/WhiteBeadChoice.png","","","","","","","","","",""
"image-keyboard-response","201","2552394","0.0-3.0-6.0-1.0-2.21","60bf9943e4e04642d4634ecc","6662009ae78f21dd82fcd179","666208b114dba3de83030adc","null","","null","","","","","","","","./tasks/HMM-beads/Images/WhiteBeadChoiceCorrect.png","","","","","","","","","",""
"image-keyboard-response","202","2552482","0.0-3.0-6.0-1.0-0.22","60bf9943e4e04642d4634ecc","6662009ae78f21dd82fcd179","666208b114dba3de83030adc","86","","f","","","","","","","","./tasks/HMM-beads/Images/NewTrialWC.png","lowH","1","22","1","1","1","0","false","",""
"image-keyboard-response","203","2552785","0.0-3.0-6.0-1.0-1.22","60bf9943e4e04642d4634ecc","6662009ae78f21dd82fcd179","666208b114dba3de83030adc","null","","null","","","","","","","","./tasks/HMM-beads/Images/BlackBeadChoice.png","","","","","","","","","",""
"image-keyboard-response","204","2553299","0.0-3.0-6.0-1.0-2.22","60bf9943e4e04642d4634ecc","6662009ae78f21dd82fcd179","666208b114dba3de83030adc","null","","null","","","","","","","","./tasks/HMM-beads/Images/BlackBeadChoiceWrong.png","","","","","","","","","",""
"image-keyboard-response","205","2553505","0.0-3.0-6.0-1.0-0.23","60bf9943e4e04642d4634ecc","6662009ae78f21dd82fcd179","666208b114dba3de83030adc","205","","j","","","","","","","","./tasks/HMM-beads/Images/NewTrialWC.png","lowH","1","23","1","1","1","1","true","",""
"image-keyboard-response","206","2553822","0.0-3.0-6.0-1.0-1.23","60bf9943e4e04642d4634ecc","6662009ae78f21dd82fcd179","666208b114dba3de83030adc","null","","null","","","","","","","","./tasks/HMM-beads/Images/WhiteBeadChoice.png","","","","","","","","","",""
"image-keyboard-response","207","2554335","0.0-3.0-6.0-1.0-2.23","60bf9943e4e04642d4634ecc","6662009ae78f21dd82fcd179","666208b114dba3de83030adc","null","","null","","","","","","","","./tasks/HMM-beads/Images/WhiteBeadChoiceCorrect.png","","","","","","","","","",""
"image-keyboard-response","208","2554506","0.0-3.0-6.0-1.0-0.24","60bf9943e4e04642d4634ecc","6662009ae78f21dd82fcd179","666208b114dba3de83030adc","169","","j","","","","","","","","./tasks/HMM-beads/Images/NewTrialWC.png","lowH","1","24","1","0","1","1","false","",""
"image-keyboard-response","209","2554811","0.0-3.0-6.0-1.0-1.24","60bf9943e4e04642d4634ecc","6662009ae78f21dd82fcd179","666208b114dba3de83030adc","null","","null","","","","","","","","./tasks/HMM-beads/Images/WhiteBeadChoice.png","","","","","","","","","",""
"image-keyboard-response","210","2555315","0.0-3.0-6.0-1.0-2.24","60bf9943e4e04642d4634ecc","6662009ae78f21dd82fcd179","666208b114dba3de83030adc","null","","null","","","","","","","","./tasks/HMM-beads/Images/WhiteBeadChoiceWrong.png","","","","","","","","","",""
"image-keyboard-response","211","2555722","0.0-3.0-6.0-1.0-0.25","60bf9943e4e04642d4634ecc","6662009ae78f21dd82fcd179","666208b114dba3de83030adc","404","","f","","","","","","","","./tasks/HMM-beads/Images/NewTrialBC.png","lowH","1","25","1","1","0","0","false","",""
"image-keyboard-response","212","2556027","0.0-3.0-6.0-1.0-1.25","60bf9943e4e04642d4634ecc","6662009ae78f21dd82fcd179","666208b114dba3de83030adc","null","","null","","","","","","","","./tasks/HMM-beads/Images/BlackBeadChoice.png","","","","","","","","","",""
"image-keyboard-response","213","2556534","0.0-3.0-6.0-1.0-2.25","60bf9943e4e04642d4634ecc","6662009ae78f21dd82fcd179","666208b114dba3de83030adc","null","","null","","","","","","","","./tasks/HMM-beads/Images/BlackBeadChoiceWrong.png","","","","","","","","","",""
"image-keyboard-response","214","2557506","0.0-3.0-6.0-1.0-0.26","60bf9943e4e04642d4634ecc","6662009ae78f21dd82fcd179","666208b114dba3de83030adc","969","","j","","","","","","","","./tasks/HMM-beads/Images/NewTrialWC.png","lowH","1","26","1","0","1","1","false","",""
"image-keyboard-response","215","2557811","0.0-3.0-6.0-1.0-1.26","60bf9943e4e04642d4634ecc","6662009ae78f21dd82fcd179","666208b114dba3de83030adc","null","","null","","","","","","","","./tasks/HMM-beads/Images/WhiteBeadChoice.png","","","","","","","","","",""
"image-keyboard-response","216","2558322","0.0-3.0-6.0-1.0-2.26","60bf9943e4e04642d4634ecc","6662009ae78f21dd82fcd179","666208b114dba3de83030adc","null","","null","","","","","","","","./tasks/HMM-beads/Images/WhiteBeadChoiceWrong.png","","","","","","","","","",""
"image-keyboard-response","217","2559042","0.0-3.0-6.0-1.0-0.27","60bf9943e4e04642d4634ecc","6662009ae78f21dd82fcd179","666208b114dba3de83030adc","718","","j","","","","","","","","./tasks/HMM-beads/Images/NewTrialBC.png","lowH","1","27","1","1","0","1","true","",""
"image-keyboard-response","218","2559349","0.0-3.0-6.0-1.0-1.27","60bf9943e4e04642d4634ecc","6662009ae78f21dd82fcd179","666208b114dba3de83030adc","null","","null","","","","","","","","./tasks/HMM-beads/Images/WhiteBeadChoice.png","","","","","","","","","",""
"image-keyboard-response","219","2559862","0.0-3.0-6.0-1.0-2.27","60bf9943e4e04642d4634ecc","6662009ae78f21dd82fcd179","666208b114dba3de83030adc","null","","null","","","","","","","","./tasks/HMM-beads/Images/WhiteBeadChoiceCorrect.png","","","","","","","","","",""
"image-keyboard-response","220","2560586","0.0-3.0-6.0-1.0-0.28","60bf9943e4e04642d4634ecc","6662009ae78f21dd82fcd179","666208b114dba3de83030adc","723","","j","","","","","","","","./tasks/HMM-beads/Images/NewTrialWC.png","lowH","1","28","1","1","1","1","true","",""
"image-keyboard-response","221","2560905","0.0-3.0-6.0-1.0-1.28","60bf9943e4e04642d4634ecc","6662009ae78f21dd82fcd179","666208b114dba3de83030adc","null","","null","","","","","","","","./tasks/HMM-beads/Images/WhiteBeadChoice.png","","","","","","","","","",""
"image-keyboard-response","222","2561411","0.0-3.0-6.0-1.0-2.28","60bf9943e4e04642d4634ecc","6662009ae78f21dd82fcd179","666208b114dba3de83030adc","null","","null","","","","","","","","./tasks/HMM-beads/Images/WhiteBeadChoiceCorrect.png","","","","","","","","","",""
"image-keyboard-response","223","2561530","0.0-3.0-6.0-1.0-0.29","60bf9943e4e04642d4634ecc","6662009ae78f21dd82fcd179","666208b114dba3de83030adc","117","","j","","","","","","","","./tasks/HMM-beads/Images/NewTrialWC.png","lowH","1","29","1","1","1","1","true","",""
"image-keyboard-response","224","2561844","0.0-3.0-6.0-1.0-1.29","60bf9943e4e04642d4634ecc","6662009ae78f21dd82fcd179","666208b114dba3de83030adc","null","","null","","","","","","","","./tasks/HMM-beads/Images/WhiteBeadChoice.png","","","","","","","","","",""
"image-keyboard-response","225","2562358","0.0-3.0-6.0-1.0-2.29","60bf9943e4e04642d4634ecc","6662009ae78f21dd82fcd179","666208b114dba3de83030adc","null","","null","","","","","","","","./tasks/HMM-beads/Images/WhiteBeadChoiceCorrect.png","","","","","","","","","",""
"image-keyboard-response","226","2566402","0.0-3.0-6.0-1.0-0.30","60bf9943e4e04642d4634ecc","6662009ae78f21dd82fcd179","666208b114dba3de83030adc","4041","","f","","","","","","","","./tasks/HMM-beads/Images/NewTrialWC.png","lowH","1","30","1","1","1","0","false","",""
"image-keyboard-response","227","2566719","0.0-3.0-6.0-1.0-1.30","60bf9943e4e04642d4634ecc","6662009ae78f21dd82fcd179","666208b114dba3de83030adc","null","","null","","","","","","","","./tasks/HMM-beads/Images/BlackBeadChoice.png","","","","","","","","","",""
"image-keyboard-response","228","2567226","0.0-3.0-6.0-1.0-2.30","60bf9943e4e04642d4634ecc","6662009ae78f21dd82fcd179","666208b114dba3de83030adc","null","","null","","","","","","","","./tasks/HMM-beads/Images/BlackBeadChoiceWrong.png","","","","","","","","","",""
"image-keyboard-response","229","2568346","0.0-3.0-6.0-1.0-0.31","60bf9943e4e04642d4634ecc","6662009ae78f21dd82fcd179","666208b114dba3de83030adc","1118","","j","","","","","","","","./tasks/HMM-beads/Images/NewTrialWC.png","lowH","1","31","1","1","1","1","true","",""
"image-keyboard-response","230","2568655","0.0-3.0-6.0-1.0-1.31","60bf9943e4e04642d4634ecc","6662009ae78f21dd82fcd179","666208b114dba3de83030adc","null","","null","","","","","","","","./tasks/HMM-beads/Images/WhiteBeadChoice.png","","","","","","","","","",""
"image-keyboard-response","231","2569167","0.0-3.0-6.0-1.0-2.31","60bf9943e4e04642d4634ecc","6662009ae78f21dd82fcd179","666208b114dba3de83030adc","null","","null","","","","","","","","./tasks/HMM-beads/Images/WhiteBeadChoiceCorrect.png","","","","","","","","","",""
"image-keyboard-response","232","2577226","0.0-3.0-6.0-1.0-0.32","60bf9943e4e04642d4634ecc","6662009ae78f21dd82fcd179","666208b114dba3de83030adc","8057","","j","","","","","","","","./tasks/HMM-beads/Images/NewTrialWC.png","lowH","1","32","1","1","1","1","true","",""
"image-keyboard-response","233","2577535","0.0-3.0-6.0-1.0-1.32","60bf9943e4e04642d4634ecc","6662009ae78f21dd82fcd179","666208b114dba3de83030adc","null","","null","","","","","","","","./tasks/HMM-beads/Images/WhiteBeadChoice.png","","","","","","","","","",""
"image-keyboard-response","234","2578042","0.0-3.0-6.0-1.0-2.32","60bf9943e4e04642d4634ecc","6662009ae78f21dd82fcd179","666208b114dba3de83030adc","null","","null","","","","","","","","./tasks/HMM-beads/Images/WhiteBeadChoiceCorrect.png","","","","","","","","","",""
"image-keyboard-response","235","2578289","0.0-3.0-6.0-1.0-0.33","60bf9943e4e04642d4634ecc","6662009ae78f21dd82fcd179","666208b114dba3de83030adc","245","","j","","","","","","","","./tasks/HMM-beads/Images/NewTrialWC.png","lowH","1","33","1","1","1","1","true","",""
"image-keyboard-response","236","2578595","0.0-3.0-6.0-1.0-1.33","60bf9943e4e04642d4634ecc","6662009ae78f21dd82fcd179","666208b114dba3de83030adc","null","","null","","","","","","","","./tasks/HMM-beads/Images/WhiteBeadChoice.png","","","","","","","","","",""
"image-keyboard-response","237","2579103","0.0-3.0-6.0-1.0-2.33","60bf9943e4e04642d4634ecc","6662009ae78f21dd82fcd179","666208b114dba3de83030adc","null","","null","","","","","","","","./tasks/HMM-beads/Images/WhiteBeadChoiceCorrect.png","","","","","","","","","",""
"image-keyboard-response","238","2580145","0.0-3.0-6.0-1.0-0.34","60bf9943e4e04642d4634ecc","6662009ae78f21dd82fcd179","666208b114dba3de83030adc","1041","","j","","","","","","","","./tasks/HMM-beads/Images/NewTrialWC.png","lowH","1","34","1","1","1","1","true","",""
"image-keyboard-response","239","2580454","0.0-3.0-6.0-1.0-1.34","60bf9943e4e04642d4634ecc","6662009ae78f21dd82fcd179","666208b114dba3de83030adc","null","","null","","","","","","","","./tasks/HMM-beads/Images/WhiteBeadChoice.png","","","","","","","","","",""
"image-keyboard-response","240","2580964","0.0-3.0-6.0-1.0-2.34","60bf9943e4e04642d4634ecc","6662009ae78f21dd82fcd179","666208b114dba3de83030adc","null","","null","","","","","","","","./tasks/HMM-beads/Images/WhiteBeadChoiceCorrect.png","","","","","","","","","",""
"image-keyboard-response","241","2582385","0.0-3.0-6.0-1.0-0.35","60bf9943e4e04642d4634ecc","6662009ae78f21dd82fcd179","666208b114dba3de83030adc","1419","","j","","","","","","","","./tasks/HMM-beads/Images/NewTrialWC.png","lowH","1","35","1","1","1","1","true","",""
"image-keyboard-response","242","2582691","0.0-3.0-6.0-1.0-1.35","60bf9943e4e04642d4634ecc","6662009ae78f21dd82fcd179","666208b114dba3de83030adc","null","","null","","","","","","","","./tasks/HMM-beads/Images/WhiteBeadChoice.png","","","","","","","","","",""
"image-keyboard-response","243","2583205","0.0-3.0-6.0-1.0-2.35","60bf9943e4e04642d4634ecc","6662009ae78f21dd82fcd179","666208b114dba3de83030adc","null","","null","","","","","","","","./tasks/HMM-beads/Images/WhiteBeadChoiceCorrect.png","","","","","","","","","",""
"image-keyboard-response","244","2585721","0.0-3.0-6.0-1.0-0.36","60bf9943e4e04642d4634ecc","6662009ae78f21dd82fcd179","666208b114dba3de83030adc","2514","","j","","","","","","","","./tasks/HMM-beads/Images/NewTrialWC.png","lowH","1","36","1","1","1","1","true","",""
"image-keyboard-response","245","2586038","0.0-3.0-6.0-1.0-1.36","60bf9943e4e04642d4634ecc","6662009ae78f21dd82fcd179","666208b114dba3de83030adc","null","","null","","","","","","","","./tasks/HMM-beads/Images/WhiteBeadChoice.png","","","","","","","","","",""
"image-keyboard-response","246","2586546","0.0-3.0-6.0-1.0-2.36","60bf9943e4e04642d4634ecc","6662009ae78f21dd82fcd179","666208b114dba3de83030adc","null","","null","","","","","","","","./tasks/HMM-beads/Images/WhiteBeadChoiceCorrect.png","","","","","","","","","",""
"image-keyboard-response","247","2586897","0.0-3.0-6.0-1.0-0.37","60bf9943e4e04642d4634ecc","6662009ae78f21dd82fcd179","666208b114dba3de83030adc","350","","f","","","","","","","","./tasks/HMM-beads/Images/NewTrialWC.png","lowH","1","37","1","1","1","0","false","",""
"image-keyboard-response","248","2587202","0.0-3.0-6.0-1.0-1.37","60bf9943e4e04642d4634ecc","6662009ae78f21dd82fcd179","666208b114dba3de83030adc","null","","null","","","","","","","","./tasks/HMM-beads/Images/BlackBeadChoice.png","","","","","","","","","",""
"image-keyboard-response","249","2587714","0.0-3.0-6.0-1.0-2.37","60bf9943e4e04642d4634ecc","6662009ae78f21dd82fcd179","666208b114dba3de83030adc","null","","null","","","","","","","","./tasks/HMM-beads/Images/BlackBeadChoiceWrong.png","","","","","","","","","",""
"image-keyboard-response","250","2587994","0.0-3.0-6.0-1.0-0.38","60bf9943e4e04642d4634ecc","6662009ae78f21dd82fcd179","666208b114dba3de83030adc","278","","j","","","","","","","","./tasks/HMM-beads/Images/NewTrialWC.png","lowH","1","38","1","1","1","1","true","",""
"image-keyboard-response","251","2588304","0.0-3.0-6.0-1.0-1.38","60bf9943e4e04642d4634ecc","6662009ae78f21dd82fcd179","666208b114dba3de83030adc","null","","null","","","","","","","","./tasks/HMM-beads/Images/WhiteBeadChoice.png","","","","","","","","","",""
"image-keyboard-response","252","2588816","0.0-3.0-6.0-1.0-2.38","60bf9943e4e04642d4634ecc","6662009ae78f21dd82fcd179","666208b114dba3de83030adc","null","","null","","","","","","","","./tasks/HMM-beads/Images/WhiteBeadChoiceCorrect.png","","","","","","","","","",""
"image-keyboard-response","253","2589242","0.0-3.0-6.0-1.0-0.39","60bf9943e4e04642d4634ecc","6662009ae78f21dd82fcd179","666208b114dba3de83030adc","424","","j","","","","","","","","./tasks/HMM-beads/Images/NewTrialWC.png","lowH","1","39","1","1","1","1","true","",""
"image-keyboard-response","254","2589556","0.0-3.0-6.0-1.0-1.39","60bf9943e4e04642d4634ecc","6662009ae78f21dd82fcd179","666208b114dba3de83030adc","null","","null","","","","","","","","./tasks/HMM-beads/Images/WhiteBeadChoice.png","","","","","","","","","",""
"image-keyboard-response","255","2590065","0.0-3.0-6.0-1.0-2.39","60bf9943e4e04642d4634ecc","6662009ae78f21dd82fcd179","666208b114dba3de83030adc","null","","null","","","","","","","","./tasks/HMM-beads/Images/WhiteBeadChoiceCorrect.png","","","","","","","","","",""
"image-keyboard-response","256","2590273","0.0-3.0-6.0-1.0-0.40","60bf9943e4e04642d4634ecc","6662009ae78f21dd82fcd179","666208b114dba3de83030adc","207","","f","","","","","","","","./tasks/HMM-beads/Images/NewTrialWC.png","lowH","1","40","1","1","1","0","false","",""
"image-keyboard-response","257","2590579","0.0-3.0-6.0-1.0-1.40","60bf9943e4e04642d4634ecc","6662009ae78f21dd82fcd179","666208b114dba3de83030adc","null","","null","","","","","","","","./tasks/HMM-beads/Images/BlackBeadChoice.png","","","","","","","","","",""
"image-keyboard-response","258","2591081","0.0-3.0-6.0-1.0-2.40","60bf9943e4e04642d4634ecc","6662009ae78f21dd82fcd179","666208b114dba3de83030adc","null","","null","","","","","","","","./tasks/HMM-beads/Images/BlackBeadChoiceWrong.png","","","","","","","","","",""
"image-keyboard-response","259","2591442","0.0-3.0-6.0-1.0-0.41","60bf9943e4e04642d4634ecc","6662009ae78f21dd82fcd179","666208b114dba3de83030adc","358","","j","","","","","","","","./tasks/HMM-beads/Images/NewTrialWC.png","lowH","1","41","1","1","1","1","true","",""
"image-keyboard-response","260","2591756","0.0-3.0-6.0-1.0-1.41","60bf9943e4e04642d4634ecc","6662009ae78f21dd82fcd179","666208b114dba3de83030adc","null","","null","","","","","","","","./tasks/HMM-beads/Images/WhiteBeadChoice.png","","","","","","","","","",""
"image-keyboard-response","261","2592269","0.0-3.0-6.0-1.0-2.41","60bf9943e4e04642d4634ecc","6662009ae78f21dd82fcd179","666208b114dba3de83030adc","null","","null","","","","","","","","./tasks/HMM-beads/Images/WhiteBeadChoiceCorrect.png","","","","","","","","","",""
"image-keyboard-response","262","2592657","0.0-3.0-6.0-1.0-0.42","60bf9943e4e04642d4634ecc","6662009ae78f21dd82fcd179","666208b114dba3de83030adc","387","","j","","","","","","","","./tasks/HMM-beads/Images/NewTrialWC.png","lowH","1","42","1","1","1","1","true","",""
"image-keyboard-response","263","2592968","0.0-3.0-6.0-1.0-1.42","60bf9943e4e04642d4634ecc","6662009ae78f21dd82fcd179","666208b114dba3de83030adc","null","","null","","","","","","","","./tasks/HMM-beads/Images/WhiteBeadChoice.png","","","","","","","","","",""
"image-keyboard-response","264","2593475","0.0-3.0-6.0-1.0-2.42","60bf9943e4e04642d4634ecc","6662009ae78f21dd82fcd179","666208b114dba3de83030adc","null","","null","","","","","","","","./tasks/HMM-beads/Images/WhiteBeadChoiceCorrect.png","","","","","","","","","",""
"image-keyboard-response","265","2594153","0.0-3.0-6.0-1.0-0.43","60bf9943e4e04642d4634ecc","6662009ae78f21dd82fcd179","666208b114dba3de83030adc","676","","f","","","","","","","","./tasks/HMM-beads/Images/NewTrialWC.png","lowH","1","43","1","1","1","0","false","",""
"image-keyboard-response","266","2594470","0.0-3.0-6.0-1.0-1.43","60bf9943e4e04642d4634ecc","6662009ae78f21dd82fcd179","666208b114dba3de83030adc","null","","null","","","","","","","","./tasks/HMM-beads/Images/BlackBeadChoice.png","","","","","","","","","",""
"image-keyboard-response","267","2594983","0.0-3.0-6.0-1.0-2.43","60bf9943e4e04642d4634ecc","6662009ae78f21dd82fcd179","666208b114dba3de83030adc","null","","null","","","","","","","","./tasks/HMM-beads/Images/BlackBeadChoiceWrong.png","","","","","","","","","",""
"image-keyboard-response","268","2595273","0.0-3.0-6.0-1.0-0.44","60bf9943e4e04642d4634ecc","6662009ae78f21dd82fcd179","666208b114dba3de83030adc","288","","j","","","","","","","","./tasks/HMM-beads/Images/NewTrialWC.png","lowH","1","44","1","1","1","1","true","",""
"image-keyboard-response","269","2595591","0.0-3.0-6.0-1.0-1.44","60bf9943e4e04642d4634ecc","6662009ae78f21dd82fcd179","666208b114dba3de83030adc","null","","null","","","","","","","","./tasks/HMM-beads/Images/WhiteBeadChoice.png","","","","","","","","","",""
"image-keyboard-response","270","2596104","0.0-3.0-6.0-1.0-2.44","60bf9943e4e04642d4634ecc","6662009ae78f21dd82fcd179","666208b114dba3de83030adc","null","","null","","","","","","","","./tasks/HMM-beads/Images/WhiteBeadChoiceCorrect.png","","","","","","","","","",""
"image-keyboard-response","271","2596618","0.0-3.0-6.0-1.0-0.45","60bf9943e4e04642d4634ecc","6662009ae78f21dd82fcd179","666208b114dba3de83030adc","513","","j","","","","","","","","./tasks/HMM-beads/Images/NewTrialWC.png","lowH","1","45","1","1","1","1","true","",""
"image-keyboard-response","272","2596935","0.0-3.0-6.0-1.0-1.45","60bf9943e4e04642d4634ecc","6662009ae78f21dd82fcd179","666208b114dba3de83030adc","null","","null","","","","","","","","./tasks/HMM-beads/Images/WhiteBeadChoice.png","","","","","","","","","",""
"image-keyboard-response","273","2597451","0.0-3.0-6.0-1.0-2.45","60bf9943e4e04642d4634ecc","6662009ae78f21dd82fcd179","666208b114dba3de83030adc","null","","null","","","","","","","","./tasks/HMM-beads/Images/WhiteBeadChoiceCorrect.png","","","","","","","","","",""
"image-keyboard-response","274","2598682","0.0-3.0-6.0-1.0-0.46","60bf9943e4e04642d4634ecc","6662009ae78f21dd82fcd179","666208b114dba3de83030adc","1229","","f","","","","","","","","./tasks/HMM-beads/Images/NewTrialWC.png","lowH","1","46","1","1","1","0","false","",""
"image-keyboard-response","275","2598997","0.0-3.0-6.0-1.0-1.46","60bf9943e4e04642d4634ecc","6662009ae78f21dd82fcd179","666208b114dba3de83030adc","null","","null","","","","","","","","./tasks/HMM-beads/Images/BlackBeadChoice.png","","","","","","","","","",""
"image-keyboard-response","276","2599508","0.0-3.0-6.0-1.0-2.46","60bf9943e4e04642d4634ecc","6662009ae78f21dd82fcd179","666208b114dba3de83030adc","null","","null","","","","","","","","./tasks/HMM-beads/Images/BlackBeadChoiceWrong.png","","","","","","","","","",""
"image-keyboard-response","277","2599537","0.0-3.0-6.0-1.0-0.47","60bf9943e4e04642d4634ecc","6662009ae78f21dd82fcd179","666208b114dba3de83030adc","28","","j","","","","","","","","./tasks/HMM-beads/Images/NewTrialWC.png","lowH","1","47","1","0","1","1","false","",""
"image-keyboard-response","278","2599847","0.0-3.0-6.0-1.0-1.47","60bf9943e4e04642d4634ecc","6662009ae78f21dd82fcd179","666208b114dba3de83030adc","null","","null","","","","","","","","./tasks/HMM-beads/Images/WhiteBeadChoice.png","","","","","","","","","",""
"image-keyboard-response","279","2600354","0.0-3.0-6.0-1.0-2.47","60bf9943e4e04642d4634ecc","6662009ae78f21dd82fcd179","666208b114dba3de83030adc","null","","null","","","","","","","","./tasks/HMM-beads/Images/WhiteBeadChoiceWrong.png","","","","","","","","","",""
"image-keyboard-response","280","2600770","0.0-3.0-6.0-1.0-0.48","60bf9943e4e04642d4634ecc","6662009ae78f21dd82fcd179","666208b114dba3de83030adc","414","","f","","","","","","","","./tasks/HMM-beads/Images/NewTrialBC.png","lowH","1","48","1","0","0","0","true","",""
"image-keyboard-response","281","2601080","0.0-3.0-6.0-1.0-1.48","60bf9943e4e04642d4634ecc","6662009ae78f21dd82fcd179","666208b114dba3de83030adc","null","","null","","","","","","","","./tasks/HMM-beads/Images/BlackBeadChoice.png","","","","","","","","","",""
"image-keyboard-response","282","2601592","0.0-3.0-6.0-1.0-2.48","60bf9943e4e04642d4634ecc","6662009ae78f21dd82fcd179","666208b114dba3de83030adc","null","","null","","","","","","","","./tasks/HMM-beads/Images/BlackBeadChoiceCorrect.png","","","","","","","","","",""
"image-keyboard-response","283","2601745","0.0-3.0-6.0-1.0-0.49","60bf9943e4e04642d4634ecc","6662009ae78f21dd82fcd179","666208b114dba3de83030adc","152","","f","","","","","","","","./tasks/HMM-beads/Images/NewTrialBC.png","lowH","1","49","1","0","0","0","true","",""
"image-keyboard-response","284","2602059","0.0-3.0-6.0-1.0-1.49","60bf9943e4e04642d4634ecc","6662009ae78f21dd82fcd179","666208b114dba3de83030adc","null","","null","","","","","","","","./tasks/HMM-beads/Images/BlackBeadChoice.png","","","","","","","","","",""
"image-keyboard-response","285","2602571","0.0-3.0-6.0-1.0-2.49","60bf9943e4e04642d4634ecc","6662009ae78f21dd82fcd179","666208b114dba3de83030adc","null","","null","","","","","","","","./tasks/HMM-beads/Images/BlackBeadChoiceCorrect.png","","","","","","","","","",""
"image-keyboard-response","286","2603825","0.0-3.0-6.0-1.0-0.50","60bf9943e4e04642d4634ecc","6662009ae78f21dd82fcd179","666208b114dba3de83030adc","1253","","f","","","","","","","","./tasks/HMM-beads/Images/NewTrialBC.png","lowH","1","50","1","1","0","0","false","",""
"image-keyboard-response","287","2604137","0.0-3.0-6.0-1.0-1.50","60bf9943e4e04642d4634ecc","6662009ae78f21dd82fcd179","666208b114dba3de83030adc","null","","null","","","","","","","","./tasks/HMM-beads/Images/BlackBeadChoice.png","","","","","","","","","",""
"image-keyboard-response","288","2604643","0.0-3.0-6.0-1.0-2.50","60bf9943e4e04642d4634ecc","6662009ae78f21dd82fcd179","666208b114dba3de83030adc","null","","null","","","","","","","","./tasks/HMM-beads/Images/BlackBeadChoiceWrong.png","","","","","","","","","",""
"image-keyboard-response","289","2604945","0.0-3.0-6.0-1.0-0.51","60bf9943e4e04642d4634ecc","6662009ae78f21dd82fcd179","666208b114dba3de83030adc","300","","j","","","","","","","","./tasks/HMM-beads/Images/NewTrialWC.png","lowH","1","51","1","1","1","1","true","",""
"image-keyboard-response","290","2605248","0.0-3.0-6.0-1.0-1.51","60bf9943e4e04642d4634ecc","6662009ae78f21dd82fcd179","666208b114dba3de83030adc","null","","null","","","","","","","","./tasks/HMM-beads/Images/WhiteBeadChoice.png","","","","","","","","","",""
"image-keyboard-response","291","2605762","0.0-3.0-6.0-1.0-2.51","60bf9943e4e04642d4634ecc","6662009ae78f21dd82fcd179","666208b114dba3de83030adc","null","","null","","","","","","","","./tasks/HMM-beads/Images/WhiteBeadChoiceCorrect.png","","","","","","","","","",""
"image-keyboard-response","292","2605977","0.0-3.0-6.0-1.0-0.52","60bf9943e4e04642d4634ecc","6662009ae78f21dd82fcd179","666208b114dba3de83030adc","213","","j","","","","","","","","./tasks/HMM-beads/Images/NewTrialWC.png","lowH","1","52","1","1","1","1","true","",""
"image-keyboard-response","293","2606286","0.0-3.0-6.0-1.0-1.52","60bf9943e4e04642d4634ecc","6662009ae78f21dd82fcd179","666208b114dba3de83030adc","null","","null","","","","","","","","./tasks/HMM-beads/Images/WhiteBeadChoice.png","","","","","","","","","",""
"image-keyboard-response","294","2606802","0.0-3.0-6.0-1.0-2.52","60bf9943e4e04642d4634ecc","6662009ae78f21dd82fcd179","666208b114dba3de83030adc","null","","null","","","","","","","","./tasks/HMM-beads/Images/WhiteBeadChoiceCorrect.png","","","","","","","","","",""
"image-keyboard-response","295","2606874","0.0-3.0-6.0-1.0-0.53","60bf9943e4e04642d4634ecc","6662009ae78f21dd82fcd179","666208b114dba3de83030adc","70","","f","","","","","","","","./tasks/HMM-beads/Images/NewTrialWC.png","lowH","1","53","1","1","1","0","false","",""
"image-keyboard-response","296","2607189","0.0-3.0-6.0-1.0-1.53","60bf9943e4e04642d4634ecc","6662009ae78f21dd82fcd179","666208b114dba3de83030adc","null","","null","","","","","","","","./tasks/HMM-beads/Images/BlackBeadChoice.png","","","","","","","","","",""
"image-keyboard-response","297","2607696","0.0-3.0-6.0-1.0-2.53","60bf9943e4e04642d4634ecc","6662009ae78f21dd82fcd179","666208b114dba3de83030adc","null","","null","","","","","","","","./tasks/HMM-beads/Images/BlackBeadChoiceWrong.png","","","","","","","","","",""
"image-keyboard-response","298","2607849","0.0-3.0-6.0-1.0-0.54","60bf9943e4e04642d4634ecc","6662009ae78f21dd82fcd179","666208b114dba3de83030adc","152","","j","","","","","","","","./tasks/HMM-beads/Images/NewTrialWC.png","lowH","1","54","1","1","1","1","true","",""
"image-keyboard-response","299","2608159","0.0-3.0-6.0-1.0-1.54","60bf9943e4e04642d4634ecc","6662009ae78f21dd82fcd179","666208b114dba3de83030adc","null","","null","","","","","","","","./tasks/HMM-beads/Images/WhiteBeadChoice.png","","","","","","","","","",""
"image-keyboard-response","300","2608665","0.0-3.0-6.0-1.0-2.54","60bf9943e4e04642d4634ecc","6662009ae78f21dd82fcd179","666208b114dba3de83030adc","null","","null","","","","","","","","./tasks/HMM-beads/Images/WhiteBeadChoiceCorrect.png","","","","","","","","","",""
"image-keyboard-response","301","2609026","0.0-3.0-6.0-1.0-0.55","60bf9943e4e04642d4634ecc","6662009ae78f21dd82fcd179","666208b114dba3de83030adc","359","","j","","","","","","","","./tasks/HMM-beads/Images/NewTrialWC.png","lowH","1","55","1","1","1","1","true","",""
"image-keyboard-response","302","2609330","0.0-3.0-6.0-1.0-1.55","60bf9943e4e04642d4634ecc","6662009ae78f21dd82fcd179","666208b114dba3de83030adc","null","","null","","","","","","","","./tasks/HMM-beads/Images/WhiteBeadChoice.png","","","","","","","","","",""
"image-keyboard-response","303","2609838","0.0-3.0-6.0-1.0-2.55","60bf9943e4e04642d4634ecc","6662009ae78f21dd82fcd179","666208b114dba3de83030adc","null","","null","","","","","","","","./tasks/HMM-beads/Images/WhiteBeadChoiceCorrect.png","","","","","","","","","",""
"image-keyboard-response","304","2610625","0.0-3.0-6.0-1.0-0.56","60bf9943e4e04642d4634ecc","6662009ae78f21dd82fcd179","666208b114dba3de83030adc","785","","f","","","","","","","","./tasks/HMM-beads/Images/NewTrialWC.png","lowH","1","56","1","1","1","0","false","",""
"image-keyboard-response","305","2610934","0.0-3.0-6.0-1.0-1.56","60bf9943e4e04642d4634ecc","6662009ae78f21dd82fcd179","666208b114dba3de83030adc","null","","null","","","","","","","","./tasks/HMM-beads/Images/BlackBeadChoice.png","","","","","","","","","",""
"image-keyboard-response","306","2611443","0.0-3.0-6.0-1.0-2.56","60bf9943e4e04642d4634ecc","6662009ae78f21dd82fcd179","666208b114dba3de83030adc","null","","null","","","","","","","","./tasks/HMM-beads/Images/BlackBeadChoiceWrong.png","","","","","","","","","",""
"image-keyboard-response","307","2612617","0.0-3.0-6.0-1.0-0.57","60bf9943e4e04642d4634ecc","6662009ae78f21dd82fcd179","666208b114dba3de83030adc","1172","","j","","","","","","","","./tasks/HMM-beads/Images/NewTrialWC.png","lowH","1","57","1","1","1","1","true","",""
"image-keyboard-response","308","2612925","0.0-3.0-6.0-1.0-1.57","60bf9943e4e04642d4634ecc","6662009ae78f21dd82fcd179","666208b114dba3de83030adc","null","","null","","","","","","","","./tasks/HMM-beads/Images/WhiteBeadChoice.png","","","","","","","","","",""
"image-keyboard-response","309","2613436","0.0-3.0-6.0-1.0-2.57","60bf9943e4e04642d4634ecc","6662009ae78f21dd82fcd179","666208b114dba3de83030adc","null","","null","","","","","","","","./tasks/HMM-beads/Images/WhiteBeadChoiceCorrect.png","","","","","","","","","",""
"image-keyboard-response","310","2614017","0.0-3.0-6.0-1.0-0.58","60bf9943e4e04642d4634ecc","6662009ae78f21dd82fcd179","666208b114dba3de83030adc","579","","j","","","","","","","","./tasks/HMM-beads/Images/NewTrialWC.png","lowH","1","58","1","1","1","1","true","",""
"image-keyboard-response","311","2614333","0.0-3.0-6.0-1.0-1.58","60bf9943e4e04642d4634ecc","6662009ae78f21dd82fcd179","666208b114dba3de83030adc","null","","null","","","","","","","","./tasks/HMM-beads/Images/WhiteBeadChoice.png","","","","","","","","","",""
"image-keyboard-response","312","2614840","0.0-3.0-6.0-1.0-2.58","60bf9943e4e04642d4634ecc","6662009ae78f21dd82fcd179","666208b114dba3de83030adc","null","","null","","","","","","","","./tasks/HMM-beads/Images/WhiteBeadChoiceCorrect.png","","","","","","","","","",""
"image-keyboard-response","313","2615241","0.0-3.0-6.0-1.0-0.59","60bf9943e4e04642d4634ecc","6662009ae78f21dd82fcd179","666208b114dba3de83030adc","400","","f","","","","","","","","./tasks/HMM-beads/Images/NewTrialWC.png","lowH","1","59","1","0","1","0","true","",""
"image-keyboard-response","314","2615545","0.0-3.0-6.0-1.0-1.59","60bf9943e4e04642d4634ecc","6662009ae78f21dd82fcd179","666208b114dba3de83030adc","null","","null","","","","","","","","./tasks/HMM-beads/Images/BlackBeadChoice.png","","","","","","","","","",""
"image-keyboard-response","315","2616047","0.0-3.0-6.0-1.0-2.59","60bf9943e4e04642d4634ecc","6662009ae78f21dd82fcd179","666208b114dba3de83030adc","null","","null","","","","","","","","./tasks/HMM-beads/Images/BlackBeadChoiceCorrect.png","","","","","","","","","",""
"image-keyboard-response","316","2616921","0.0-3.0-6.0-1.0-0.60","60bf9943e4e04642d4634ecc","6662009ae78f21dd82fcd179","666208b114dba3de83030adc","872","","f","","","","","","","","./tasks/HMM-beads/Images/NewTrialBC.png","lowH","1","60","1","1","0","0","false","",""
"image-keyboard-response","317","2617225","0.0-3.0-6.0-1.0-1.60","60bf9943e4e04642d4634ecc","6662009ae78f21dd82fcd179","666208b114dba3de83030adc","null","","null","","","","","","","","./tasks/HMM-beads/Images/BlackBeadChoice.png","","","","","","","","","",""
"image-keyboard-response","318","2617738","0.0-3.0-6.0-1.0-2.60","60bf9943e4e04642d4634ecc","6662009ae78f21dd82fcd179","666208b114dba3de83030adc","null","","null","","","","","","","","./tasks/HMM-beads/Images/BlackBeadChoiceWrong.png","","","","","","","","","",""
"image-keyboard-response","319","2618129","0.0-3.0-6.0-1.0-0.61","60bf9943e4e04642d4634ecc","6662009ae78f21dd82fcd179","666208b114dba3de83030adc","390","","j","","","","","","","","./tasks/HMM-beads/Images/NewTrialWC.png","lowH","1","61","1","1","1","1","true","",""
"image-keyboard-response","320","2618431","0.0-3.0-6.0-1.0-1.61","60bf9943e4e04642d4634ecc","6662009ae78f21dd82fcd179","666208b114dba3de83030adc","null","","null","","","","","","","","./tasks/HMM-beads/Images/WhiteBeadChoice.png","","","","","","","","","",""
"image-keyboard-response","321","2618943","0.0-3.0-6.0-1.0-2.61","60bf9943e4e04642d4634ecc","6662009ae78f21dd82fcd179","666208b114dba3de83030adc","null","","null","","","","","","","","./tasks/HMM-beads/Images/WhiteBeadChoiceCorrect.png","","","","","","","","","",""
"image-keyboard-response","322","2619730","0.0-3.0-6.0-1.0-0.62","60bf9943e4e04642d4634ecc","6662009ae78f21dd82fcd179","666208b114dba3de83030adc","785","","j","","","","","","","","./tasks/HMM-beads/Images/NewTrialWC.png","lowH","1","62","1","0","1","1","false","",""
"image-keyboard-response","323","2620042","0.0-3.0-6.0-1.0-1.62","60bf9943e4e04642d4634ecc","6662009ae78f21dd82fcd179","666208b114dba3de83030adc","null","","null","","","","","","","","./tasks/HMM-beads/Images/WhiteBeadChoice.png","","","","","","","","","",""
"image-keyboard-response","324","2620554","0.0-3.0-6.0-1.0-2.62","60bf9943e4e04642d4634ecc","6662009ae78f21dd82fcd179","666208b114dba3de83030adc","null","","null","","","","","","","","./tasks/HMM-beads/Images/WhiteBeadChoiceWrong.png","","","","","","","","","",""
"image-keyboard-response","325","2621065","0.0-3.0-6.0-1.0-0.63","60bf9943e4e04642d4634ecc","6662009ae78f21dd82fcd179","666208b114dba3de83030adc","510","","f","","","","","","","","./tasks/HMM-beads/Images/NewTrialBC.png","lowH","1","63","1","1","0","0","false","",""
"image-keyboard-response","326","2621383","0.0-3.0-6.0-1.0-1.63","60bf9943e4e04642d4634ecc","6662009ae78f21dd82fcd179","666208b114dba3de83030adc","null","","null","","","","","","","","./tasks/HMM-beads/Images/BlackBeadChoice.png","","","","","","","","","",""
"image-keyboard-response","327","2621892","0.0-3.0-6.0-1.0-2.63","60bf9943e4e04642d4634ecc","6662009ae78f21dd82fcd179","666208b114dba3de83030adc","null","","null","","","","","","","","./tasks/HMM-beads/Images/BlackBeadChoiceWrong.png","","","","","","","","","",""
"image-keyboard-response","328","2622745","0.0-3.0-6.0-1.0-0.64","60bf9943e4e04642d4634ecc","6662009ae78f21dd82fcd179","666208b114dba3de83030adc","851","","j","","","","","","","","./tasks/HMM-beads/Images/NewTrialWC.png","lowH","1","64","1","1","1","1","true","",""
"image-keyboard-response","329","2623055","0.0-3.0-6.0-1.0-1.64","60bf9943e4e04642d4634ecc","6662009ae78f21dd82fcd179","666208b114dba3de83030adc","null","","null","","","","","","","","./tasks/HMM-beads/Images/WhiteBeadChoice.png","","","","","","","","","",""
"image-keyboard-response","330","2623557","0.0-3.0-6.0-1.0-2.64","60bf9943e4e04642d4634ecc","6662009ae78f21dd82fcd179","666208b114dba3de83030adc","null","","null","","","","","","","","./tasks/HMM-beads/Images/WhiteBeadChoiceCorrect.png","","","","","","","","","",""
"image-keyboard-response","331","2623689","0.0-3.0-6.0-1.0-0.65","60bf9943e4e04642d4634ecc","6662009ae78f21dd82fcd179","666208b114dba3de83030adc","131","","j","","","","","","","","./tasks/HMM-beads/Images/NewTrialWC.png","lowH","1","65","1","1","1","1","true","",""
"image-keyboard-response","332","2624001","0.0-3.0-6.0-1.0-1.65","60bf9943e4e04642d4634ecc","6662009ae78f21dd82fcd179","666208b114dba3de83030adc","null","","null","","","","","","","","./tasks/HMM-beads/Images/WhiteBeadChoice.png","","","","","","","","","",""
"image-keyboard-response","333","2625369","0.0-3.0-6.0-1.0-2.65","60bf9943e4e04642d4634ecc","6662009ae78f21dd82fcd179","666208b114dba3de83030adc","null","","null","","","","","","","","./tasks/HMM-beads/Images/WhiteBeadChoiceCorrect.png","","","","","","","","","",""
"image-keyboard-response","334","2635465","0.0-3.0-6.0-1.0-0.66","60bf9943e4e04642d4634ecc","6662009ae78f21dd82fcd179","666208b114dba3de83030adc","10095","","j","","","","","","","","./tasks/HMM-beads/Images/NewTrialWC.png","lowH","1","66","1","1","1","1","true","",""
"image-keyboard-response","335","2635775","0.0-3.0-6.0-1.0-1.66","60bf9943e4e04642d4634ecc","6662009ae78f21dd82fcd179","666208b114dba3de83030adc","null","","null","","","","","","","","./tasks/HMM-beads/Images/WhiteBeadChoice.png","","","","","","","","","",""
"image-keyboard-response","336","2636290","0.0-3.0-6.0-1.0-2.66","60bf9943e4e04642d4634ecc","6662009ae78f21dd82fcd179","666208b114dba3de83030adc","null","","null","","","","","","","","./tasks/HMM-beads/Images/WhiteBeadChoiceCorrect.png","","","","","","","","","",""
"image-keyboard-response","337","2638074","0.0-3.0-6.0-1.0-0.67","60bf9943e4e04642d4634ecc","6662009ae78f21dd82fcd179","666208b114dba3de83030adc","1781","","j","","","","","","","","./tasks/HMM-beads/Images/NewTrialWC.png","lowH","1","67","1","0","1","1","false","",""
"image-keyboard-response","338","2638379","0.0-3.0-6.0-1.0-1.67","60bf9943e4e04642d4634ecc","6662009ae78f21dd82fcd179","666208b114dba3de83030adc","null","","null","","","","","","","","./tasks/HMM-beads/Images/WhiteBeadChoice.png","","","","","","","","","",""
"image-keyboard-response","339","2638882","0.0-3.0-6.0-1.0-2.67","60bf9943e4e04642d4634ecc","6662009ae78f21dd82fcd179","666208b114dba3de83030adc","null","","null","","","","","","","","./tasks/HMM-beads/Images/WhiteBeadChoiceWrong.png","","","","","","","","","",""
"image-keyboard-response","340","2645913","0.0-3.0-6.0-1.0-0.68","60bf9943e4e04642d4634ecc","6662009ae78f21dd82fcd179","666208b114dba3de83030adc","7029","","f","","","","","","","","./tasks/HMM-beads/Images/NewTrialBC.png","lowH","1","68","1","1","0","0","false","",""
"image-keyboard-response","341","2646217","0.0-3.0-6.0-1.0-1.68","60bf9943e4e04642d4634ecc","6662009ae78f21dd82fcd179","666208b114dba3de83030adc","null","","null","","","","","","","","./tasks/HMM-beads/Images/BlackBeadChoice.png","","","","","","","","","",""
"image-keyboard-response","342","2646721","0.0-3.0-6.0-1.0-2.68","60bf9943e4e04642d4634ecc","6662009ae78f21dd82fcd179","666208b114dba3de83030adc","null","","null","","","","","","","","./tasks/HMM-beads/Images/BlackBeadChoiceWrong.png","","","","","","","","","",""
"image-keyboard-response","343","2647241","0.0-3.0-6.0-1.0-0.69","60bf9943e4e04642d4634ecc","6662009ae78f21dd82fcd179","666208b114dba3de83030adc","518","","j","","","","","","","","./tasks/HMM-beads/Images/NewTrialWC.png","lowH","1","69","0","1","1","1","true","",""
"image-keyboard-response","344","2647558","0.0-3.0-6.0-1.0-1.69","60bf9943e4e04642d4634ecc","6662009ae78f21dd82fcd179","666208b114dba3de83030adc","null","","null","","","","","","","","./tasks/HMM-beads/Images/WhiteBeadChoice.png","","","","","","","","","",""
"image-keyboard-response","345","2648062","0.0-3.0-6.0-1.0-2.69","60bf9943e4e04642d4634ecc","6662009ae78f21dd82fcd179","666208b114dba3de83030adc","null","","null","","","","","","","","./tasks/HMM-beads/Images/WhiteBeadChoiceCorrect.png","","","","","","","","","",""
"image-keyboard-response","346","2649897","0.0-3.0-6.0-1.0-0.70","60bf9943e4e04642d4634ecc","6662009ae78f21dd82fcd179","666208b114dba3de83030adc","1833","","j","","","","","","","","./tasks/HMM-beads/Images/NewTrialWC.png","lowH","1","70","0","1","1","1","true","",""
"image-keyboard-response","347","2650205","0.0-3.0-6.0-1.0-1.70","60bf9943e4e04642d4634ecc","6662009ae78f21dd82fcd179","666208b114dba3de83030adc","null","","null","","","","","","","","./tasks/HMM-beads/Images/WhiteBeadChoice.png","","","","","","","","","",""
"image-keyboard-response","348","2650718","0.0-3.0-6.0-1.0-2.70","60bf9943e4e04642d4634ecc","6662009ae78f21dd82fcd179","666208b114dba3de83030adc","null","","null","","","","","","","","./tasks/HMM-beads/Images/WhiteBeadChoiceCorrect.png","","","","","","","","","",""
"image-keyboard-response","349","2651769","0.0-3.0-6.0-1.0-0.71","60bf9943e4e04642d4634ecc","6662009ae78f21dd82fcd179","666208b114dba3de83030adc","1050","","f","","","","","","","","./tasks/HMM-beads/Images/NewTrialWC.png","lowH","1","71","0","0","1","0","true","",""
"image-keyboard-response","350","2652073","0.0-3.0-6.0-1.0-1.71","60bf9943e4e04642d4634ecc","6662009ae78f21dd82fcd179","666208b114dba3de83030adc","null","","null","","","","","","","","./tasks/HMM-beads/Images/BlackBeadChoice.png","","","","","","","","","",""
"image-keyboard-response","351","2652589","0.0-3.0-6.0-1.0-2.71","60bf9943e4e04642d4634ecc","6662009ae78f21dd82fcd179","666208b114dba3de83030adc","null","","null","","","","","","","","./tasks/HMM-beads/Images/BlackBeadChoiceCorrect.png","","","","","","","","","",""
"image-keyboard-response","352","2654737","0.0-3.0-6.0-1.0-0.72","60bf9943e4e04642d4634ecc","6662009ae78f21dd82fcd179","666208b114dba3de83030adc","2146","","j","","","","","","","","./tasks/HMM-beads/Images/NewTrialBC.png","lowH","1","72","0","0","0","1","false","",""
"image-keyboard-response","353","2655050","0.0-3.0-6.0-1.0-1.72","60bf9943e4e04642d4634ecc","6662009ae78f21dd82fcd179","666208b114dba3de83030adc","null","","null","","","","","","","","./tasks/HMM-beads/Images/WhiteBeadChoice.png","","","","","","","","","",""
"image-keyboard-response","354","2655564","0.0-3.0-6.0-1.0-2.72","60bf9943e4e04642d4634ecc","6662009ae78f21dd82fcd179","666208b114dba3de83030adc","null","","null","","","","","","","","./tasks/HMM-beads/Images/WhiteBeadChoiceWrong.png","","","","","","","","","",""
"image-keyboard-response","355","2656034","0.0-3.0-6.0-1.0-0.73","60bf9943e4e04642d4634ecc","6662009ae78f21dd82fcd179","666208b114dba3de83030adc","467","","j","","","","","","","","./tasks/HMM-beads/Images/NewTrialBC.png","lowH","1","73","0","1","0","1","true","",""
"image-keyboard-response","356","2656339","0.0-3.0-6.0-1.0-1.73","60bf9943e4e04642d4634ecc","6662009ae78f21dd82fcd179","666208b114dba3de83030adc","null","","null","","","","","","","","./tasks/HMM-beads/Images/WhiteBeadChoice.png","","","","","","","","","",""
"image-keyboard-response","357","2656846","0.0-3.0-6.0-1.0-2.73","60bf9943e4e04642d4634ecc","6662009ae78f21dd82fcd179","666208b114dba3de83030adc","null","","null","","","","","","","","./tasks/HMM-beads/Images/WhiteBeadChoiceCorrect.png","","","","","","","","","",""
"image-keyboard-response","358","2656959","0.0-3.0-6.0-1.0-0.74","60bf9943e4e04642d4634ecc","6662009ae78f21dd82fcd179","666208b114dba3de83030adc","111","","j","","","","","","","","./tasks/HMM-beads/Images/NewTrialWC.png","lowH","1","74","0","0","1","1","false","",""
"image-keyboard-response","359","2657271","0.0-3.0-6.0-1.0-1.74","60bf9943e4e04642d4634ecc","6662009ae78f21dd82fcd179","666208b114dba3de83030adc","null","","null","","","","","","","","./tasks/HMM-beads/Images/WhiteBeadChoice.png","","","","","","","","","",""
"image-keyboard-response","360","2657779","0.0-3.0-6.0-1.0-2.74","60bf9943e4e04642d4634ecc","6662009ae78f21dd82fcd179","666208b114dba3de83030adc","null","","null","","","","","","","","./tasks/HMM-beads/Images/WhiteBeadChoiceWrong.png","","","","","","","","","",""
"image-keyboard-response","361","2657801","0.0-3.0-6.0-1.0-0.75","60bf9943e4e04642d4634ecc","6662009ae78f21dd82fcd179","666208b114dba3de83030adc","20","","f","","","","","","","","./tasks/HMM-beads/Images/NewTrialBC.png","lowH","1","75","0","1","0","0","false","",""
"image-keyboard-response","362","2658105","0.0-3.0-6.0-1.0-1.75","60bf9943e4e04642d4634ecc","6662009ae78f21dd82fcd179","666208b114dba3de83030adc","null","","null","","","","","","","","./tasks/HMM-beads/Images/BlackBeadChoice.png","","","","","","","","","",""
"image-keyboard-response","363","2658612","0.0-3.0-6.0-1.0-2.75","60bf9943e4e04642d4634ecc","6662009ae78f21dd82fcd179","666208b114dba3de83030adc","null","","null","","","","","","","","./tasks/HMM-beads/Images/BlackBeadChoiceWrong.png","","","","","","","","","",""
"image-keyboard-response","364","2658649","0.0-3.0-6.0-1.0-0.76","60bf9943e4e04642d4634ecc","6662009ae78f21dd82fcd179","666208b114dba3de83030adc","33","","j","","","","","","","","./tasks/HMM-beads/Images/NewTrialWC.png","lowH","1","76","0","1","1","1","true","",""
"image-keyboard-response","365","2658969","0.0-3.0-6.0-1.0-1.76","60bf9943e4e04642d4634ecc","6662009ae78f21dd82fcd179","666208b114dba3de83030adc","null","","null","","","","","","","","./tasks/HMM-beads/Images/WhiteBeadChoice.png","","","","","","","","","",""
"image-keyboard-response","366","2659485","0.0-3.0-6.0-1.0-2.76","60bf9943e4e04642d4634ecc","6662009ae78f21dd82fcd179","666208b114dba3de83030adc","null","","null","","","","","","","","./tasks/HMM-beads/Images/WhiteBeadChoiceCorrect.png","","","","","","","","","",""
"image-keyboard-response","367","2659521","0.0-3.0-6.0-1.0-0.77","60bf9943e4e04642d4634ecc","6662009ae78f21dd82fcd179","666208b114dba3de83030adc","34","","j","","","","","","","","./tasks/HMM-beads/Images/NewTrialWC.png","lowH","1","77","0","0","1","1","false","",""
"image-keyboard-response","368","2659835","0.0-3.0-6.0-1.0-1.77","60bf9943e4e04642d4634ecc","6662009ae78f21dd82fcd179","666208b114dba3de83030adc","null","","null","","","","","","","","./tasks/HMM-beads/Images/WhiteBeadChoice.png","","","","","","","","","",""
"image-keyboard-response","369","2660351","0.0-3.0-6.0-1.0-2.77","60bf9943e4e04642d4634ecc","6662009ae78f21dd82fcd179","666208b114dba3de83030adc","null","","null","","","","","","","","./tasks/HMM-beads/Images/WhiteBeadChoiceWrong.png","","","","","","","","","",""
"image-keyboard-response","370","2660441","0.0-3.0-6.0-1.0-0.78","60bf9943e4e04642d4634ecc","6662009ae78f21dd82fcd179","666208b114dba3de83030adc","88","","f","","","","","","","","./tasks/HMM-beads/Images/NewTrialBC.png","lowH","1","78","0","0","0","0","true","",""
"image-keyboard-response","371","2660755","0.0-3.0-6.0-1.0-1.78","60bf9943e4e04642d4634ecc","6662009ae78f21dd82fcd179","666208b114dba3de83030adc","null","","null","","","","","","","","./tasks/HMM-beads/Images/BlackBeadChoice.png","","","","","","","","","",""
"image-keyboard-response","372","2661270","0.0-3.0-6.0-1.0-2.78","60bf9943e4e04642d4634ecc","6662009ae78f21dd82fcd179","666208b114dba3de83030adc","null","","null","","","","","","","","./tasks/HMM-beads/Images/BlackBeadChoiceCorrect.png","","","","","","","","","",""
