"trial_type","trial_index","time_elapsed","internal_node_id","subject_id","study_id","session_id","rt","url","response","question_order","view_history","success","timeout","failed_images","failed_audio","failed_video","stimulus","block","block_rep","trial_number","jar","bead","previous_bead","choice","correct","lowH_score","total_bonus"
"pavlovia","0","1831","0.0-0.0","5c45370eb00b3300018f9cd1","6662009ae78f21dd82fcd179","66620f1b406b34651e8aa313","","","","","","","","","","","","","","","","","","","","",""
"external-html","1","7902","0.0-1.0-0.0","5c45370eb00b3300018f9cd1","6662009ae78f21dd82fcd179","66620f1b406b34651e8aa313","5853","new_consent.html","","","","","","","","","","","","","","","","","","",""
"survey-multi-choice","2","16743","0.0-1.0-1.0","5c45370eb00b3300018f9cd1","6662009ae78f21dd82fcd179","66620f1b406b34651e8aa313","8839","","{""Q0"":""Male"",""Q1"":""Other""}","[0,1]","","","","","","","","","","","","","","","","",""
"survey-text","3","19414","0.0-1.0-2.0","5c45370eb00b3300018f9cd1","6662009ae78f21dd82fcd179","66620f1b406b34651e8aa313","2669","","{""Q0"":""34""}","","","","","","","","","","","","","","","","","",""
"instructions","4","21342","0.0-2.0","5c45370eb00b3300018f9cd1","6662009ae78f21dd82fcd179","66620f1b406b34651e8aa313","1808","","","","[{""page_index"":0,""viewing_time"":1808}]","","","","","","","","","","","","","","","",""
"preload","5","23112","0.0-3.0-0.0","5c45370eb00b3300018f9cd1","6662009ae78f21dd82fcd179","66620f1b406b34651e8aa313","","","","","","true","false","[]","[]","[]","","","","","","","","","","",""
"instructions","6","168257","0.0-3.0-1.0","5c45370eb00b3300018f9cd1","6662009ae78f21dd82fcd179","66620f1b406b34651e8aa313","145141","","","","[{""page_index"":0,""viewing_time"":11725},{""page_index"":1,""viewing_time"":11784},{""page_index"":2,""viewing_time"":2880},{""page_index"":3,""viewing_time"":2344},{""page_index"":4,""viewing_time"":6379},{""page_index"":3,""viewing_time"":1989},{""page_index"":4,""viewing_time"":1601},{""page_index"":5,""viewing_time"":1055},{""page_index"":4,""viewing_time"":1360},{""page_index"":5,""viewing_time"":26864},{""page_index"":6,""viewing_time"":28968},{""page_index"":7,""viewing_time"":12962},{""page_index"":8,""viewing_time"":6831},{""page_index"":7,""viewing_time"":936},{""page_index"":8,""viewing_time"":1255},{""page_index"":9,""viewing_time"":6080},{""page_index"":10,""viewing_time"":7432},{""page_index"":9,""viewing_time"":1664},{""page_index"":8,""viewing_time"":3032},{""page_index"":9,""viewing_time"":2312},{""page_index"":8,""viewing_time"":360},{""page_index"":7,""viewing_time"":728},{""page_index"":8,""viewing_time"":640},{""page_index"":9,""viewing_time"":728},{""page_index"":10,""viewing_time"":1928},{""page_index"":11,""viewing_time"":1304}]","","","","","","","","","","","","","","","",""
"html-button-response","7","171265","0.0-3.0-2.0-0.0-0.0","5c45370eb00b3300018f9cd1","6662009ae78f21dd82fcd179","66620f1b406b34651e8aa313","3007","","1","","","","","","","","<div align=center>Your goal is to predict…?<br><br></div>","","","","","","","","","",""
"html-button-response","8","176657","0.0-3.0-2.0-1.0-0.0","5c45370eb00b3300018f9cd1","6662009ae78f21dd82fcd179","66620f1b406b34651e8aa313","4168","","2","","","","","","","","<div align=center>In the jar with mostly white beads, there are ___% white beads and ___% black beads?<br><br></div>","","","","","","","","","",""
"html-button-response","9","182185","0.0-3.0-2.0-2.0-0.0","5c45370eb00b3300018f9cd1","6662009ae78f21dd82fcd179","66620f1b406b34651e8aa313","4496","","0","","","","","","","","<div align=center>When there is a 1% probability that the jars will switch, the next bead will most likely be drawn from the…<br><br></div>","","","","","","","","","",""
"html-button-response","10","185801","0.0-3.0-2.0-3.0-0.0","5c45370eb00b3300018f9cd1","6662009ae78f21dd82fcd179","66620f1b406b34651e8aa313","2640","","1","","","","","","","","<div align=center>When there is a 99% probability that the jars will switch, the next bead will most likely be drawn from the…<br><br></div>","","","","","","","","","",""
"instructions","11","191233","0.0-3.0-3.0","5c45370eb00b3300018f9cd1","6662009ae78f21dd82fcd179","66620f1b406b34651e8aa313","4464","","","","[{""page_index"":0,""viewing_time"":4463}]","","","","","","","","","","","","","","","",""
"html-keyboard-response","12","198019","0.0-3.0-4.0-0.0","5c45370eb00b3300018f9cd1","6662009ae78f21dd82fcd179","66620f1b406b34651e8aa313","6785",""," ","","","","","","","","<div align=center>In this practice block, there will be a <b>1% chance</b> that the jar on the next trial will be different from the jar on the current trial.<br><br></div>","","","","","","","","","",""
"image-keyboard-response","13","204227","0.0-3.0-4.0-1.0-0.0","5c45370eb00b3300018f9cd1","6662009ae78f21dd82fcd179","66620f1b406b34651e8aa313","6196","","f","","","","","","","","./tasks/HMM-beads/Images/NoChoice.png","practice","0","0","0","0","9","0","true","",""
"image-keyboard-response","14","204546","0.0-3.0-4.0-1.0-1.0","5c45370eb00b3300018f9cd1","6662009ae78f21dd82fcd179","66620f1b406b34651e8aa313","null","","null","","","","","","","","./tasks/HMM-beads/Images/BlackBeadChoice.png","","","","","","","","","",""
"image-keyboard-response","15","205066","0.0-3.0-4.0-1.0-2.0","5c45370eb00b3300018f9cd1","6662009ae78f21dd82fcd179","66620f1b406b34651e8aa313","null","","null","","","","","","","","./tasks/HMM-beads/Images/BlackBeadChoiceCorrect.png","","","","","","","","","",""
"image-keyboard-response","16","206818","0.0-3.0-4.0-1.0-0.1","5c45370eb00b3300018f9cd1","6662009ae78f21dd82fcd179","66620f1b406b34651e8aa313","1746","","f","","","","","","","","./tasks/HMM-beads/Images/NewTrialBC.png","practice","0","1","0","0","0","0","true","",""
"image-keyboard-response","17","207126","0.0-3.0-4.0-1.0-1.1","5c45370eb00b3300018f9cd1","6662009ae78f21dd82fcd179","66620f1b406b34651e8aa313","null","","null","","","","","","","","./tasks/HMM-beads/Images/BlackBeadChoice.png","","","","","","","","","",""
"image-keyboard-response","18","207631","0.0-3.0-4.0-1.0-2.1","5c45370eb00b3300018f9cd1","6662009ae78f21dd82fcd179","66620f1b406b34651e8aa313","null","","null","","","","","","","","./tasks/HMM-beads/Images/BlackBeadChoiceCorrect.png","","","","","","","","","",""
"image-keyboard-response","19","208539","0.0-3.0-4.0-1.0-0.2","5c45370eb00b3300018f9cd1","6662009ae78f21dd82fcd179","66620f1b406b34651e8aa313","902","","f","","","","","","","","./tasks/HMM-beads/Images/NewTrialBC.png","practice","0","2","0","1","0","0","false","",""
"image-keyboard-response","20","208857","0.0-3.0-4.0-1.0-1.2","5c45370eb00b3300018f9cd1","6662009ae78f21dd82fcd179","66620f1b406b34651e8aa313","null","","null","","","","","","","","./tasks/HMM-beads/Images/BlackBeadChoice.png","","","","","","","","","",""
"image-keyboard-response","21","209367","0.0-3.0-4.0-1.0-2.2","5c45370eb00b3300018f9cd1","6662009ae78f21dd82fcd179","66620f1b406b34651e8aa313","null","","null","","","","","","","","./tasks/HMM-beads/Images/BlackBeadChoiceWrong.png","","","","","","","","","",""
"image-keyboard-response","22","211929","0.0-3.0-4.0-1.0-0.3","5c45370eb00b3300018f9cd1","6662009ae78f21dd82fcd179","66620f1b406b34651e8aa313","2557","","f","","","","","","","","./tasks/HMM-beads/Images/NewTrialWC.png","practice","0","3","0","0","1","0","true","",""
"image-keyboard-response","23","212236","0.0-3.0-4.0-1.0-1.3","5c45370eb00b3300018f9cd1","6662009ae78f21dd82fcd179","66620f1b406b34651e8aa313","null","","null","","","","","","","","./tasks/HMM-beads/Images/BlackBeadChoice.png","","","","","","","","","",""
"image-keyboard-response","24","212746","0.0-3.0-4.0-1.0-2.3","5c45370eb00b3300018f9cd1","6662009ae78f21dd82fcd179","66620f1b406b34651e8aa313","null","","null","","","","","","","","./tasks/HMM-beads/Images/BlackBeadChoiceCorrect.png","","","","","","","","","",""
"image-keyboard-response","25","213738","0.0-3.0-4.0-1.0-0.4","5c45370eb00b3300018f9cd1","6662009ae78f21dd82fcd179","66620f1b406b34651e8aa313","987","","f","","","","","","","","./tasks/HMM-beads/Images/NewTrialBC.png","practice","0","4","0","0","0","0","true","",""
"image-keyboard-response","26","214046","0.0-3.0-4.0-1.0-1.4","5c45370eb00b3300018f9cd1","6662009ae78f21dd82fcd179","66620f1b406b34651e8aa313","null","","null","","","","","","","","./tasks/HMM-beads/Images/BlackBeadChoice.png","","","","","","","","","",""
"image-keyboard-response","27","214556","0.0-3.0-4.0-1.0-2.4","5c45370eb00b3300018f9cd1","6662009ae78f21dd82fcd179","66620f1b406b34651e8aa313","null","","null","","","","","","","","./tasks/HMM-beads/Images/BlackBeadChoiceCorrect.png","","","","","","","","","",""
"image-keyboard-response","28","215250","0.0-3.0-4.0-1.0-0.5","5c45370eb00b3300018f9cd1","6662009ae78f21dd82fcd179","66620f1b406b34651e8aa313","689","","f","","","","","","","","./tasks/HMM-beads/Images/NewTrialBC.png","practice","0","5","0","1","0","0","false","",""
"image-keyboard-response","29","215556","0.0-3.0-4.0-1.0-1.5","5c45370eb00b3300018f9cd1","6662009ae78f21dd82fcd179","66620f1b406b34651e8aa313","null","","null","","","","","","","","./tasks/HMM-beads/Images/BlackBeadChoice.png","","","","","","","","","",""
"image-keyboard-response","30","216076","0.0-3.0-4.0-1.0-2.5","5c45370eb00b3300018f9cd1","6662009ae78f21dd82fcd179","66620f1b406b34651e8aa313","null","","null","","","","","","","","./tasks/HMM-beads/Images/BlackBeadChoiceWrong.png","","","","","","","","","",""
"image-keyboard-response","31","217347","0.0-3.0-4.0-1.0-0.6","5c45370eb00b3300018f9cd1","6662009ae78f21dd82fcd179","66620f1b406b34651e8aa313","1267","","f","","","","","","","","./tasks/HMM-beads/Images/NewTrialWC.png","practice","0","6","0","0","1","0","true","",""
"image-keyboard-response","32","217656","0.0-3.0-4.0-1.0-1.6","5c45370eb00b3300018f9cd1","6662009ae78f21dd82fcd179","66620f1b406b34651e8aa313","null","","null","","","","","","","","./tasks/HMM-beads/Images/BlackBeadChoice.png","","","","","","","","","",""
"image-keyboard-response","33","218176","0.0-3.0-4.0-1.0-2.6","5c45370eb00b3300018f9cd1","6662009ae78f21dd82fcd179","66620f1b406b34651e8aa313","null","","null","","","","","","","","./tasks/HMM-beads/Images/BlackBeadChoiceCorrect.png","","","","","","","","","",""
"image-keyboard-response","34","219394","0.0-3.0-4.0-1.0-0.7","5c45370eb00b3300018f9cd1","6662009ae78f21dd82fcd179","66620f1b406b34651e8aa313","1214","","f","","","","","","","","./tasks/HMM-beads/Images/NewTrialBC.png","practice","0","7","0","0","0","0","true","",""
"image-keyboard-response","35","219716","0.0-3.0-4.0-1.0-1.7","5c45370eb00b3300018f9cd1","6662009ae78f21dd82fcd179","66620f1b406b34651e8aa313","null","","null","","","","","","","","./tasks/HMM-beads/Images/BlackBeadChoice.png","","","","","","","","","",""
"image-keyboard-response","36","220236","0.0-3.0-4.0-1.0-2.7","5c45370eb00b3300018f9cd1","6662009ae78f21dd82fcd179","66620f1b406b34651e8aa313","null","","null","","","","","","","","./tasks/HMM-beads/Images/BlackBeadChoiceCorrect.png","","","","","","","","","",""
"image-keyboard-response","37","221754","0.0-3.0-4.0-1.0-0.8","5c45370eb00b3300018f9cd1","6662009ae78f21dd82fcd179","66620f1b406b34651e8aa313","1514","","f","","","","","","","","./tasks/HMM-beads/Images/NewTrialBC.png","practice","0","8","0","0","0","0","true","",""
"image-keyboard-response","38","222076","0.0-3.0-4.0-1.0-1.8","5c45370eb00b3300018f9cd1","6662009ae78f21dd82fcd179","66620f1b406b34651e8aa313","null","","null","","","","","","","","./tasks/HMM-beads/Images/BlackBeadChoice.png","","","","","","","","","",""
"image-keyboard-response","39","222586","0.0-3.0-4.0-1.0-2.8","5c45370eb00b3300018f9cd1","6662009ae78f21dd82fcd179","66620f1b406b34651e8aa313","null","","null","","","","","","","","./tasks/HMM-beads/Images/BlackBeadChoiceCorrect.png","","","","","","","","","",""
"image-keyboard-response","40","223050","0.0-3.0-4.0-1.0-0.9","5c45370eb00b3300018f9cd1","6662009ae78f21dd82fcd179","66620f1b406b34651e8aa313","461","","f","","","","","","","","./tasks/HMM-beads/Images/NewTrialBC.png","practice","0","9","0","1","0","0","false","",""
"image-keyboard-response","41","223356","0.0-3.0-4.0-1.0-1.9","5c45370eb00b3300018f9cd1","6662009ae78f21dd82fcd179","66620f1b406b34651e8aa313","null","","null","","","","","","","","./tasks/HMM-beads/Images/BlackBeadChoice.png","","","","","","","","","",""
"image-keyboard-response","42","223876","0.0-3.0-4.0-1.0-2.9","5c45370eb00b3300018f9cd1","6662009ae78f21dd82fcd179","66620f1b406b34651e8aa313","null","","null","","","","","","","","./tasks/HMM-beads/Images/BlackBeadChoiceWrong.png","","","","","","","","","",""
"image-keyboard-response","43","225074","0.0-3.0-4.0-1.0-0.10","5c45370eb00b3300018f9cd1","6662009ae78f21dd82fcd179","66620f1b406b34651e8aa313","1193","","f","","","","","","","","./tasks/HMM-beads/Images/NewTrialWC.png","practice","0","10","0","0","1","0","true","",""
"image-keyboard-response","44","225396","0.0-3.0-4.0-1.0-1.10","5c45370eb00b3300018f9cd1","6662009ae78f21dd82fcd179","66620f1b406b34651e8aa313","null","","null","","","","","","","","./tasks/HMM-beads/Images/BlackBeadChoice.png","","","","","","","","","",""
"image-keyboard-response","45","225916","0.0-3.0-4.0-1.0-2.10","5c45370eb00b3300018f9cd1","6662009ae78f21dd82fcd179","66620f1b406b34651e8aa313","null","","null","","","","","","","","./tasks/HMM-beads/Images/BlackBeadChoiceCorrect.png","","","","","","","","","",""
"image-keyboard-response","46","226298","0.0-3.0-4.0-1.0-0.11","5c45370eb00b3300018f9cd1","6662009ae78f21dd82fcd179","66620f1b406b34651e8aa313","377","","f","","","","","","","","./tasks/HMM-beads/Images/NewTrialBC.png","practice","0","11","0","1","0","0","false","",""
"image-keyboard-response","47","226606","0.0-3.0-4.0-1.0-1.11","5c45370eb00b3300018f9cd1","6662009ae78f21dd82fcd179","66620f1b406b34651e8aa313","null","","null","","","","","","","","./tasks/HMM-beads/Images/BlackBeadChoice.png","","","","","","","","","",""
"image-keyboard-response","48","227116","0.0-3.0-4.0-1.0-2.11","5c45370eb00b3300018f9cd1","6662009ae78f21dd82fcd179","66620f1b406b34651e8aa313","null","","null","","","","","","","","./tasks/HMM-beads/Images/BlackBeadChoiceWrong.png","","","","","","","","","",""
"image-keyboard-response","49","227642","0.0-3.0-4.0-1.0-0.12","5c45370eb00b3300018f9cd1","6662009ae78f21dd82fcd179","66620f1b406b34651e8aa313","521","","f","","","","","","","","./tasks/HMM-beads/Images/NewTrialWC.png","practice","0","12","0","0","1","0","true","",""
"image-keyboard-response","50","227966","0.0-3.0-4.0-1.0-1.12","5c45370eb00b3300018f9cd1","6662009ae78f21dd82fcd179","66620f1b406b34651e8aa313","null","","null","","","","","","","","./tasks/HMM-beads/Images/BlackBeadChoice.png","","","","","","","","","",""
"image-keyboard-response","51","228481","0.0-3.0-4.0-1.0-2.12","5c45370eb00b3300018f9cd1","6662009ae78f21dd82fcd179","66620f1b406b34651e8aa313","null","","null","","","","","","","","./tasks/HMM-beads/Images/BlackBeadChoiceCorrect.png","","","","","","","","","",""
"image-keyboard-response","52","229146","0.0-3.0-4.0-1.0-0.13","5c45370eb00b3300018f9cd1","6662009ae78f21dd82fcd179","66620f1b406b34651e8aa313","660","","f","","","","","","","","./tasks/HMM-beads/Images/NewTrialBC.png","practice","0","13","0","0","0","0","true","",""
"image-keyboard-response","53","229467","0.0-3.0-4.0-1.0-1.13","5c45370eb00b3300018f9cd1","6662009ae78f21dd82fcd179","66620f1b406b34651e8aa313","null","","null","","","","","","","","./tasks/HMM-beads/Images/BlackBeadChoice.png","","","","","","","","","",""
"image-keyboard-response","54","230016","0.0-3.0-4.0-1.0-2.13","5c45370eb00b3300018f9cd1","6662009ae78f21dd82fcd179","66620f1b406b34651e8aa313","null","","null","","","","","","","","./tasks/HMM-beads/Images/BlackBeadChoiceCorrect.png","","","","","","","","","",""
"image-keyboard-response","55","230634","0.0-3.0-4.0-1.0-0.14","5c45370eb00b3300018f9cd1","6662009ae78f21dd82fcd179","66620f1b406b34651e8aa313","613","","f","","","","","","","","./tasks/HMM-beads/Images/NewTrialBC.png","practice","0","14","0","0","0","0","true","",""
"image-keyboard-response","56","230946","0.0-3.0-4.0-1.0-1.14","5c45370eb00b3300018f9cd1","6662009ae78f21dd82fcd179","66620f1b406b34651e8aa313","null","","null","","","","","","","","./tasks/HMM-beads/Images/BlackBeadChoice.png","","","","","","","","","",""
"image-keyboard-response","57","231466","0.0-3.0-4.0-1.0-2.14","5c45370eb00b3300018f9cd1","6662009ae78f21dd82fcd179","66620f1b406b34651e8aa313","null","","null","","","","","","","","./tasks/HMM-beads/Images/BlackBeadChoiceCorrect.png","","","","","","","","","",""
"image-keyboard-response","58","232138","0.0-3.0-4.0-1.0-0.15","5c45370eb00b3300018f9cd1","6662009ae78f21dd82fcd179","66620f1b406b34651e8aa313","669","","f","","","","","","","","./tasks/HMM-beads/Images/NewTrialBC.png","practice","0","15","0","0","0","0","true","",""
"image-keyboard-response","59","232446","0.0-3.0-4.0-1.0-1.15","5c45370eb00b3300018f9cd1","6662009ae78f21dd82fcd179","66620f1b406b34651e8aa313","null","","null","","","","","","","","./tasks/HMM-beads/Images/BlackBeadChoice.png","","","","","","","","","",""
"image-keyboard-response","60","232956","0.0-3.0-4.0-1.0-2.15","5c45370eb00b3300018f9cd1","6662009ae78f21dd82fcd179","66620f1b406b34651e8aa313","null","","null","","","","","","","","./tasks/HMM-beads/Images/BlackBeadChoiceCorrect.png","","","","","","","","","",""
"image-keyboard-response","61","233626","0.0-3.0-4.0-1.0-0.16","5c45370eb00b3300018f9cd1","6662009ae78f21dd82fcd179","66620f1b406b34651e8aa313","665","","f","","","","","","","","./tasks/HMM-beads/Images/NewTrialBC.png","practice","0","16","0","0","0","0","true","",""
"image-keyboard-response","62","233936","0.0-3.0-4.0-1.0-1.16","5c45370eb00b3300018f9cd1","6662009ae78f21dd82fcd179","66620f1b406b34651e8aa313","null","","null","","","","","","","","./tasks/HMM-beads/Images/BlackBeadChoice.png","","","","","","","","","",""
"image-keyboard-response","63","234447","0.0-3.0-4.0-1.0-2.16","5c45370eb00b3300018f9cd1","6662009ae78f21dd82fcd179","66620f1b406b34651e8aa313","null","","null","","","","","","","","./tasks/HMM-beads/Images/BlackBeadChoiceCorrect.png","","","","","","","","","",""
"image-keyboard-response","64","235162","0.0-3.0-4.0-1.0-0.17","5c45370eb00b3300018f9cd1","6662009ae78f21dd82fcd179","66620f1b406b34651e8aa313","710","","f","","","","","","","","./tasks/HMM-beads/Images/NewTrialBC.png","practice","0","17","0","0","0","0","true","",""
"image-keyboard-response","65","235476","0.0-3.0-4.0-1.0-1.17","5c45370eb00b3300018f9cd1","6662009ae78f21dd82fcd179","66620f1b406b34651e8aa313","null","","null","","","","","","","","./tasks/HMM-beads/Images/BlackBeadChoice.png","","","","","","","","","",""
"image-keyboard-response","66","235996","0.0-3.0-4.0-1.0-2.17","5c45370eb00b3300018f9cd1","6662009ae78f21dd82fcd179","66620f1b406b34651e8aa313","null","","null","","","","","","","","./tasks/HMM-beads/Images/BlackBeadChoiceCorrect.png","","","","","","","","","",""
"image-keyboard-response","67","236586","0.0-3.0-4.0-1.0-0.18","5c45370eb00b3300018f9cd1","6662009ae78f21dd82fcd179","66620f1b406b34651e8aa313","585","","f","","","","","","","","./tasks/HMM-beads/Images/NewTrialBC.png","practice","0","18","0","1","0","0","false","",""
"image-keyboard-response","68","236891","0.0-3.0-4.0-1.0-1.18","5c45370eb00b3300018f9cd1","6662009ae78f21dd82fcd179","66620f1b406b34651e8aa313","null","","null","","","","","","","","./tasks/HMM-beads/Images/BlackBeadChoice.png","","","","","","","","","",""
"image-keyboard-response","69","237416","0.0-3.0-4.0-1.0-2.18","5c45370eb00b3300018f9cd1","6662009ae78f21dd82fcd179","66620f1b406b34651e8aa313","null","","null","","","","","","","","./tasks/HMM-beads/Images/BlackBeadChoiceWrong.png","","","","","","","","","",""
"image-keyboard-response","70","238042","0.0-3.0-4.0-1.0-0.19","5c45370eb00b3300018f9cd1","6662009ae78f21dd82fcd179","66620f1b406b34651e8aa313","621","","f","","","","","","","","./tasks/HMM-beads/Images/NewTrialWC.png","practice","0","19","0","0","1","0","true","",""
"image-keyboard-response","71","238366","0.0-3.0-4.0-1.0-1.19","5c45370eb00b3300018f9cd1","6662009ae78f21dd82fcd179","66620f1b406b34651e8aa313","null","","null","","","","","","","","./tasks/HMM-beads/Images/BlackBeadChoice.png","","","","","","","","","",""
"image-keyboard-response","72","238876","0.0-3.0-4.0-1.0-2.19","5c45370eb00b3300018f9cd1","6662009ae78f21dd82fcd179","66620f1b406b34651e8aa313","null","","null","","","","","","","","./tasks/HMM-beads/Images/BlackBeadChoiceCorrect.png","","","","","","","","","",""
"image-keyboard-response","73","239650","0.0-3.0-4.0-1.0-0.20","5c45370eb00b3300018f9cd1","6662009ae78f21dd82fcd179","66620f1b406b34651e8aa313","768","","f","","","","","","","","./tasks/HMM-beads/Images/NewTrialBC.png","practice","0","20","0","0","0","0","true","",""
"image-keyboard-response","74","239956","0.0-3.0-4.0-1.0-1.20","5c45370eb00b3300018f9cd1","6662009ae78f21dd82fcd179","66620f1b406b34651e8aa313","null","","null","","","","","","","","./tasks/HMM-beads/Images/BlackBeadChoice.png","","","","","","","","","",""
"image-keyboard-response","75","240466","0.0-3.0-4.0-1.0-2.20","5c45370eb00b3300018f9cd1","6662009ae78f21dd82fcd179","66620f1b406b34651e8aa313","null","","null","","","","","","","","./tasks/HMM-beads/Images/BlackBeadChoiceCorrect.png","","","","","","","","","",""
"image-keyboard-response","76","241010","0.0-3.0-4.0-1.0-0.21","5c45370eb00b3300018f9cd1","6662009ae78f21dd82fcd179","66620f1b406b34651e8aa313","540","","f","","","","","","","","./tasks/HMM-beads/Images/NewTrialBC.png","practice","0","21","0","1","0","0","false","",""
"image-keyboard-response","77","241317","0.0-3.0-4.0-1.0-1.21","5c45370eb00b3300018f9cd1","6662009ae78f21dd82fcd179","66620f1b406b34651e8aa313","null","","null","","","","","","","","./tasks/HMM-beads/Images/BlackBeadChoice.png","","","","","","","","","",""
"image-keyboard-response","78","241826","0.0-3.0-4.0-1.0-2.21","5c45370eb00b3300018f9cd1","6662009ae78f21dd82fcd179","66620f1b406b34651e8aa313","null","","null","","","","","","","","./tasks/HMM-beads/Images/BlackBeadChoiceWrong.png","","","","","","","","","",""
"image-keyboard-response","79","242298","0.0-3.0-4.0-1.0-0.22","5c45370eb00b3300018f9cd1","6662009ae78f21dd82fcd179","66620f1b406b34651e8aa313","467","","f","","","","","","","","./tasks/HMM-beads/Images/NewTrialWC.png","practice","0","22","1","1","1","0","false","",""
"image-keyboard-response","80","242607","0.0-3.0-4.0-1.0-1.22","5c45370eb00b3300018f9cd1","6662009ae78f21dd82fcd179","66620f1b406b34651e8aa313","null","","null","","","","","","","","./tasks/HMM-beads/Images/BlackBeadChoice.png","","","","","","","","","",""
"image-keyboard-response","81","243127","0.0-3.0-4.0-1.0-2.22","5c45370eb00b3300018f9cd1","6662009ae78f21dd82fcd179","66620f1b406b34651e8aa313","null","","null","","","","","","","","./tasks/HMM-beads/Images/BlackBeadChoiceWrong.png","","","","","","","","","",""
"image-keyboard-response","82","243586","0.0-3.0-4.0-1.0-0.23","5c45370eb00b3300018f9cd1","6662009ae78f21dd82fcd179","66620f1b406b34651e8aa313","455","","f","","","","","","","","./tasks/HMM-beads/Images/NewTrialWC.png","practice","0","23","1","0","1","0","true","",""
"image-keyboard-response","83","243906","0.0-3.0-4.0-1.0-1.23","5c45370eb00b3300018f9cd1","6662009ae78f21dd82fcd179","66620f1b406b34651e8aa313","null","","null","","","","","","","","./tasks/HMM-beads/Images/BlackBeadChoice.png","","","","","","","","","",""
"image-keyboard-response","84","244426","0.0-3.0-4.0-1.0-2.23","5c45370eb00b3300018f9cd1","6662009ae78f21dd82fcd179","66620f1b406b34651e8aa313","null","","null","","","","","","","","./tasks/HMM-beads/Images/BlackBeadChoiceCorrect.png","","","","","","","","","",""
"image-keyboard-response","85","245018","0.0-3.0-4.0-1.0-0.24","5c45370eb00b3300018f9cd1","6662009ae78f21dd82fcd179","66620f1b406b34651e8aa313","587","","f","","","","","","","","./tasks/HMM-beads/Images/NewTrialBC.png","practice","0","24","1","1","0","0","false","",""
"image-keyboard-response","86","245327","0.0-3.0-4.0-1.0-1.24","5c45370eb00b3300018f9cd1","6662009ae78f21dd82fcd179","66620f1b406b34651e8aa313","null","","null","","","","","","","","./tasks/HMM-beads/Images/BlackBeadChoice.png","","","","","","","","","",""
"image-keyboard-response","87","245846","0.0-3.0-4.0-1.0-2.24","5c45370eb00b3300018f9cd1","6662009ae78f21dd82fcd179","66620f1b406b34651e8aa313","null","","null","","","","","","","","./tasks/HMM-beads/Images/BlackBeadChoiceWrong.png","","","","","","","","","",""
"image-keyboard-response","88","246594","0.0-3.0-4.0-1.0-0.25","5c45370eb00b3300018f9cd1","6662009ae78f21dd82fcd179","66620f1b406b34651e8aa313","742","","f","","","","","","","","./tasks/HMM-beads/Images/NewTrialWC.png","practice","0","25","1","1","1","0","false","",""
"image-keyboard-response","89","246907","0.0-3.0-4.0-1.0-1.25","5c45370eb00b3300018f9cd1","6662009ae78f21dd82fcd179","66620f1b406b34651e8aa313","null","","null","","","","","","","","./tasks/HMM-beads/Images/BlackBeadChoice.png","","","","","","","","","",""
"image-keyboard-response","90","247426","0.0-3.0-4.0-1.0-2.25","5c45370eb00b3300018f9cd1","6662009ae78f21dd82fcd179","66620f1b406b34651e8aa313","null","","null","","","","","","","","./tasks/HMM-beads/Images/BlackBeadChoiceWrong.png","","","","","","","","","",""
"image-keyboard-response","91","247907","0.0-3.0-4.0-1.0-0.26","5c45370eb00b3300018f9cd1","6662009ae78f21dd82fcd179","66620f1b406b34651e8aa313","460","","f","","","","","","","","./tasks/HMM-beads/Images/NewTrialWC.png","practice","0","26","1","1","1","0","false","",""
"image-keyboard-response","92","248226","0.0-3.0-4.0-1.0-1.26","5c45370eb00b3300018f9cd1","6662009ae78f21dd82fcd179","66620f1b406b34651e8aa313","null","","null","","","","","","","","./tasks/HMM-beads/Images/BlackBeadChoice.png","","","","","","","","","",""
"image-keyboard-response","93","248746","0.0-3.0-4.0-1.0-2.26","5c45370eb00b3300018f9cd1","6662009ae78f21dd82fcd179","66620f1b406b34651e8aa313","null","","null","","","","","","","","./tasks/HMM-beads/Images/BlackBeadChoiceWrong.png","","","","","","","","","",""
"image-keyboard-response","94","249250","0.0-3.0-4.0-1.0-0.27","5c45370eb00b3300018f9cd1","6662009ae78f21dd82fcd179","66620f1b406b34651e8aa313","498","","f","","","","","","","","./tasks/HMM-beads/Images/NewTrialWC.png","practice","0","27","1","1","1","0","false","",""
"image-keyboard-response","95","249566","0.0-3.0-4.0-1.0-1.27","5c45370eb00b3300018f9cd1","6662009ae78f21dd82fcd179","66620f1b406b34651e8aa313","null","","null","","","","","","","","./tasks/HMM-beads/Images/BlackBeadChoice.png","","","","","","","","","",""
"image-keyboard-response","96","250077","0.0-3.0-4.0-1.0-2.27","5c45370eb00b3300018f9cd1","6662009ae78f21dd82fcd179","66620f1b406b34651e8aa313","null","","null","","","","","","","","./tasks/HMM-beads/Images/BlackBeadChoiceWrong.png","","","","","","","","","",""
"image-keyboard-response","97","250674","0.0-3.0-4.0-1.0-0.28","5c45370eb00b3300018f9cd1","6662009ae78f21dd82fcd179","66620f1b406b34651e8aa313","591","","j","","","","","","","","./tasks/HMM-beads/Images/NewTrialWC.png","practice","0","28","1","0","1","1","false","",""
"image-keyboard-response","98","250996","0.0-3.0-4.0-1.0-1.28","5c45370eb00b3300018f9cd1","6662009ae78f21dd82fcd179","66620f1b406b34651e8aa313","null","","null","","","","","","","","./tasks/HMM-beads/Images/WhiteBeadChoice.png","","","","","","","","","",""
"image-keyboard-response","99","251522","0.0-3.0-4.0-1.0-2.28","5c45370eb00b3300018f9cd1","6662009ae78f21dd82fcd179","66620f1b406b34651e8aa313","null","","null","","","","","","","","./tasks/HMM-beads/Images/WhiteBeadChoiceWrong.png","","","","","","","","","",""
"image-keyboard-response","100","252162","0.0-3.0-4.0-1.0-0.29","5c45370eb00b3300018f9cd1","6662009ae78f21dd82fcd179","66620f1b406b34651e8aa313","635","","f","","","","","","","","./tasks/HMM-beads/Images/NewTrialBC.png","practice","0","29","1","1","0","0","false","",""
"image-keyboard-response","101","252471","0.0-3.0-4.0-1.0-1.29","5c45370eb00b3300018f9cd1","6662009ae78f21dd82fcd179","66620f1b406b34651e8aa313","null","","null","","","","","","","","./tasks/HMM-beads/Images/BlackBeadChoice.png","","","","","","","","","",""
"image-keyboard-response","102","252996","0.0-3.0-4.0-1.0-2.29","5c45370eb00b3300018f9cd1","6662009ae78f21dd82fcd179","66620f1b406b34651e8aa313","null","","null","","","","","","","","./tasks/HMM-beads/Images/BlackBeadChoiceWrong.png","","","","","","","","","",""
"image-keyboard-response","103","253706","0.0-3.0-4.0-1.0-0.30","5c45370eb00b3300018f9cd1","6662009ae78f21dd82fcd179","66620f1b406b34651e8aa313","704","","j","","","","","","","","./tasks/HMM-beads/Images/NewTrialWC.png","practice","0","30","1","0","1","1","false","",""
"image-keyboard-response","104","254022","0.0-3.0-4.0-1.0-1.30","5c45370eb00b3300018f9cd1","6662009ae78f21dd82fcd179","66620f1b406b34651e8aa313","null","","null","","","","","","","","./tasks/HMM-beads/Images/WhiteBeadChoice.png","","","","","","","","","",""
"image-keyboard-response","105","254546","0.0-3.0-4.0-1.0-2.30","5c45370eb00b3300018f9cd1","6662009ae78f21dd82fcd179","66620f1b406b34651e8aa313","null","","null","","","","","","","","./tasks/HMM-beads/Images/WhiteBeadChoiceWrong.png","","","","","","","","","",""
"image-keyboard-response","106","254970","0.0-3.0-4.0-1.0-0.31","5c45370eb00b3300018f9cd1","6662009ae78f21dd82fcd179","66620f1b406b34651e8aa313","419","","f","","","","","","","","./tasks/HMM-beads/Images/NewTrialBC.png","practice","0","31","1","1","0","0","false","",""
"image-keyboard-response","107","255276","0.0-3.0-4.0-1.0-1.31","5c45370eb00b3300018f9cd1","6662009ae78f21dd82fcd179","66620f1b406b34651e8aa313","null","","null","","","","","","","","./tasks/HMM-beads/Images/BlackBeadChoice.png","","","","","","","","","",""
"image-keyboard-response","108","255796","0.0-3.0-4.0-1.0-2.31","5c45370eb00b3300018f9cd1","6662009ae78f21dd82fcd179","66620f1b406b34651e8aa313","null","","null","","","","","","","","./tasks/HMM-beads/Images/BlackBeadChoiceWrong.png","","","","","","","","","",""
"image-keyboard-response","109","256226","0.0-3.0-4.0-1.0-0.32","5c45370eb00b3300018f9cd1","6662009ae78f21dd82fcd179","66620f1b406b34651e8aa313","427","","f","","","","","","","","./tasks/HMM-beads/Images/NewTrialWC.png","practice","0","32","1","1","1","0","false","",""
"image-keyboard-response","110","256547","0.0-3.0-4.0-1.0-1.32","5c45370eb00b3300018f9cd1","6662009ae78f21dd82fcd179","66620f1b406b34651e8aa313","null","","null","","","","","","","","./tasks/HMM-beads/Images/BlackBeadChoice.png","","","","","","","","","",""
"image-keyboard-response","111","257062","0.0-3.0-4.0-1.0-2.32","5c45370eb00b3300018f9cd1","6662009ae78f21dd82fcd179","66620f1b406b34651e8aa313","null","","null","","","","","","","","./tasks/HMM-beads/Images/BlackBeadChoiceWrong.png","","","","","","","","","",""
"image-keyboard-response","112","257546","0.0-3.0-4.0-1.0-0.33","5c45370eb00b3300018f9cd1","6662009ae78f21dd82fcd179","66620f1b406b34651e8aa313","480","","f","","","","","","","","./tasks/HMM-beads/Images/NewTrialWC.png","practice","0","33","1","1","1","0","false","",""
"image-keyboard-response","113","257857","0.0-3.0-4.0-1.0-1.33","5c45370eb00b3300018f9cd1","6662009ae78f21dd82fcd179","66620f1b406b34651e8aa313","null","","null","","","","","","","","./tasks/HMM-beads/Images/BlackBeadChoice.png","","","","","","","","","",""
"image-keyboard-response","114","258376","0.0-3.0-4.0-1.0-2.33","5c45370eb00b3300018f9cd1","6662009ae78f21dd82fcd179","66620f1b406b34651e8aa313","null","","null","","","","","","","","./tasks/HMM-beads/Images/BlackBeadChoiceWrong.png","","","","","","","","","",""
"image-keyboard-response","115","259034","0.0-3.0-4.0-1.0-0.34","5c45370eb00b3300018f9cd1","6662009ae78f21dd82fcd179","66620f1b406b34651e8aa313","653","","j","","","","","","","","./tasks/HMM-beads/Images/NewTrialWC.png","practice","0","34","1","1","1","1","true","",""
"image-keyboard-response","116","259342","0.0-3.0-4.0-1.0-1.34","5c45370eb00b3300018f9cd1","6662009ae78f21dd82fcd179","66620f1b406b34651e8aa313","null","","null","","","","","","","","./tasks/HMM-beads/Images/WhiteBeadChoice.png","","","","","","","","","",""
"image-keyboard-response","117","259857","0.0-3.0-4.0-1.0-2.34","5c45370eb00b3300018f9cd1","6662009ae78f21dd82fcd179","66620f1b406b34651e8aa313","null","","null","","","","","","","","./tasks/HMM-beads/Images/WhiteBeadChoiceCorrect.png","","","","","","","","","",""
"image-keyboard-response","118","260490","0.0-3.0-4.0-1.0-0.35","5c45370eb00b3300018f9cd1","6662009ae78f21dd82fcd179","66620f1b406b34651e8aa313","628","","j","","","","","","","","./tasks/HMM-beads/Images/NewTrialWC.png","practice","0","35","1","1","1","1","true","",""
"image-keyboard-response","119","260802","0.0-3.0-4.0-1.0-1.35","5c45370eb00b3300018f9cd1","6662009ae78f21dd82fcd179","66620f1b406b34651e8aa313","null","","null","","","","","","","","./tasks/HMM-beads/Images/WhiteBeadChoice.png","","","","","","","","","",""
"image-keyboard-response","120","261322","0.0-3.0-4.0-1.0-2.35","5c45370eb00b3300018f9cd1","6662009ae78f21dd82fcd179","66620f1b406b34651e8aa313","null","","null","","","","","","","","./tasks/HMM-beads/Images/WhiteBeadChoiceCorrect.png","","","","","","","","","",""
"image-keyboard-response","121","262154","0.0-3.0-4.0-1.0-0.36","5c45370eb00b3300018f9cd1","6662009ae78f21dd82fcd179","66620f1b406b34651e8aa313","827","","j","","","","","","","","./tasks/HMM-beads/Images/NewTrialWC.png","practice","0","36","1","0","1","1","false","",""
"image-keyboard-response","122","262471","0.0-3.0-4.0-1.0-1.36","5c45370eb00b3300018f9cd1","6662009ae78f21dd82fcd179","66620f1b406b34651e8aa313","null","","null","","","","","","","","./tasks/HMM-beads/Images/WhiteBeadChoice.png","","","","","","","","","",""
"image-keyboard-response","123","262997","0.0-3.0-4.0-1.0-2.36","5c45370eb00b3300018f9cd1","6662009ae78f21dd82fcd179","66620f1b406b34651e8aa313","null","","null","","","","","","","","./tasks/HMM-beads/Images/WhiteBeadChoiceWrong.png","","","","","","","","","",""
"image-keyboard-response","124","263435","0.0-3.0-4.0-1.0-0.37","5c45370eb00b3300018f9cd1","6662009ae78f21dd82fcd179","66620f1b406b34651e8aa313","433","","f","","","","","","","","./tasks/HMM-beads/Images/NewTrialBC.png","practice","0","37","1","1","0","0","false","",""
"image-keyboard-response","125","263757","0.0-3.0-4.0-1.0-1.37","5c45370eb00b3300018f9cd1","6662009ae78f21dd82fcd179","66620f1b406b34651e8aa313","null","","null","","","","","","","","./tasks/HMM-beads/Images/BlackBeadChoice.png","","","","","","","","","",""
"image-keyboard-response","126","264276","0.0-3.0-4.0-1.0-2.37","5c45370eb00b3300018f9cd1","6662009ae78f21dd82fcd179","66620f1b406b34651e8aa313","null","","null","","","","","","","","./tasks/HMM-beads/Images/BlackBeadChoiceWrong.png","","","","","","","","","",""
"image-keyboard-response","127","264666","0.0-3.0-4.0-1.0-0.38","5c45370eb00b3300018f9cd1","6662009ae78f21dd82fcd179","66620f1b406b34651e8aa313","385","","j","","","","","","","","./tasks/HMM-beads/Images/NewTrialWC.png","practice","0","38","1","1","1","1","true","",""
"image-keyboard-response","128","265016","0.0-3.0-4.0-1.0-1.38","5c45370eb00b3300018f9cd1","6662009ae78f21dd82fcd179","66620f1b406b34651e8aa313","null","","null","","","","","","","","./tasks/HMM-beads/Images/WhiteBeadChoice.png","","","","","","","","","",""
"image-keyboard-response","129","265529","0.0-3.0-4.0-1.0-2.38","5c45370eb00b3300018f9cd1","6662009ae78f21dd82fcd179","66620f1b406b34651e8aa313","null","","null","","","","","","","","./tasks/HMM-beads/Images/WhiteBeadChoiceCorrect.png","","","","","","","","","",""
"image-keyboard-response","130","266210","0.0-3.0-4.0-1.0-0.39","5c45370eb00b3300018f9cd1","6662009ae78f21dd82fcd179","66620f1b406b34651e8aa313","676","","j","","","","","","","","./tasks/HMM-beads/Images/NewTrialWC.png","practice","0","39","1","1","1","1","true","",""
"image-keyboard-response","131","266516","0.0-3.0-4.0-1.0-1.39","5c45370eb00b3300018f9cd1","6662009ae78f21dd82fcd179","66620f1b406b34651e8aa313","null","","null","","","","","","","","./tasks/HMM-beads/Images/WhiteBeadChoice.png","","","","","","","","","",""
"image-keyboard-response","132","267027","0.0-3.0-4.0-1.0-2.39","5c45370eb00b3300018f9cd1","6662009ae78f21dd82fcd179","66620f1b406b34651e8aa313","null","","null","","","","","","","","./tasks/HMM-beads/Images/WhiteBeadChoiceCorrect.png","","","","","","","","","",""
"html-keyboard-response","133","269433","0.0-3.0-4.0-2.0","5c45370eb00b3300018f9cd1","6662009ae78f21dd82fcd179","66620f1b406b34651e8aa313","2405",""," ","","","","","","","","","","","","","","","","","",""
"instructions","134","282049","0.0-3.0-5.0","5c45370eb00b3300018f9cd1","6662009ae78f21dd82fcd179","66620f1b406b34651e8aa313","12616","","","","[{""page_index"":0,""viewing_time"":7440},{""page_index"":1,""viewing_time"":5176}]","","","","","","","","","","","","","","","",""
"html-keyboard-response","135","284098","0.0-3.0-6.0-0.0","5c45370eb00b3300018f9cd1","6662009ae78f21dd82fcd179","66620f1b406b34651e8aa313","2049",""," ","","","","","","","","<div align=center>In this block, there will be a <b>1% chance</b> that the jar on the next trial will be different from the jar on the current trial.<br><br></div>","","","","","","","","","",""
"image-keyboard-response","136","285825","0.0-3.0-6.0-1.0-0.0","5c45370eb00b3300018f9cd1","6662009ae78f21dd82fcd179","66620f1b406b34651e8aa313","1722","","f","","","","","","","","./tasks/HMM-beads/Images/NoChoice.png","lowH","1","0","1","0","9","0","true","",""
"image-keyboard-response","137","286141","0.0-3.0-6.0-1.0-1.0","5c45370eb00b3300018f9cd1","6662009ae78f21dd82fcd179","66620f1b406b34651e8aa313","null","","null","","","","","","","","./tasks/HMM-beads/Images/BlackBeadChoice.png","","","","","","","","","",""
"image-keyboard-response","138","286666","0.0-3.0-6.0-1.0-2.0","5c45370eb00b3300018f9cd1","6662009ae78f21dd82fcd179","66620f1b406b34651e8aa313","null","","null","","","","","","","","./tasks/HMM-beads/Images/BlackBeadChoiceCorrect.png","","","","","","","","","",""
"image-keyboard-response","139","287355","0.0-3.0-6.0-1.0-0.1","5c45370eb00b3300018f9cd1","6662009ae78f21dd82fcd179","66620f1b406b34651e8aa313","684","","f","","","","","","","","./tasks/HMM-beads/Images/NewTrialBC.png","lowH","1","1","1","1","0","0","false","",""
"image-keyboard-response","140","287666","0.0-3.0-6.0-1.0-1.1","5c45370eb00b3300018f9cd1","6662009ae78f21dd82fcd179","66620f1b406b34651e8aa313","null","","null","","","","","","","","./tasks/HMM-beads/Images/BlackBeadChoice.png","","","","","","","","","",""
"image-keyboard-response","141","288177","0.0-3.0-6.0-1.0-2.1","5c45370eb00b3300018f9cd1","6662009ae78f21dd82fcd179","66620f1b406b34651e8aa313","null","","null","","","","","","","","./tasks/HMM-beads/Images/BlackBeadChoiceWrong.png","","","","","","","","","",""
"image-keyboard-response","142","288778","0.0-3.0-6.0-1.0-0.2","5c45370eb00b3300018f9cd1","6662009ae78f21dd82fcd179","66620f1b406b34651e8aa313","597","","f","","","","","","","","./tasks/HMM-beads/Images/NewTrialWC.png","lowH","1","2","1","1","1","0","false","",""
"image-keyboard-response","143","289091","0.0-3.0-6.0-1.0-1.2","5c45370eb00b3300018f9cd1","6662009ae78f21dd82fcd179","66620f1b406b34651e8aa313","null","","null","","","","","","","","./tasks/HMM-beads/Images/BlackBeadChoice.png","","","","","","","","","",""
"image-keyboard-response","144","289601","0.0-3.0-6.0-1.0-2.2","5c45370eb00b3300018f9cd1","6662009ae78f21dd82fcd179","66620f1b406b34651e8aa313","null","","null","","","","","","","","./tasks/HMM-beads/Images/BlackBeadChoiceWrong.png","","","","","","","","","",""
"image-keyboard-response","145","290410","0.0-3.0-6.0-1.0-0.3","5c45370eb00b3300018f9cd1","6662009ae78f21dd82fcd179","66620f1b406b34651e8aa313","804","","j","","","","","","","","./tasks/HMM-beads/Images/NewTrialWC.png","lowH","1","3","1","1","1","1","true","",""
"image-keyboard-response","146","290717","0.0-3.0-6.0-1.0-1.3","5c45370eb00b3300018f9cd1","6662009ae78f21dd82fcd179","66620f1b406b34651e8aa313","null","","null","","","","","","","","./tasks/HMM-beads/Images/WhiteBeadChoice.png","","","","","","","","","",""
"image-keyboard-response","147","291227","0.0-3.0-6.0-1.0-2.3","5c45370eb00b3300018f9cd1","6662009ae78f21dd82fcd179","66620f1b406b34651e8aa313","null","","null","","","","","","","","./tasks/HMM-beads/Images/WhiteBeadChoiceCorrect.png","","","","","","","","","",""
"image-keyboard-response","148","291978","0.0-3.0-6.0-1.0-0.4","5c45370eb00b3300018f9cd1","6662009ae78f21dd82fcd179","66620f1b406b34651e8aa313","747","","j","","","","","","","","./tasks/HMM-beads/Images/NewTrialWC.png","lowH","1","4","1","1","1","1","true","",""
"image-keyboard-response","149","292296","0.0-3.0-6.0-1.0-1.4","5c45370eb00b3300018f9cd1","6662009ae78f21dd82fcd179","66620f1b406b34651e8aa313","null","","null","","","","","","","","./tasks/HMM-beads/Images/WhiteBeadChoice.png","","","","","","","","","",""
"image-keyboard-response","150","292806","0.0-3.0-6.0-1.0-2.4","5c45370eb00b3300018f9cd1","6662009ae78f21dd82fcd179","66620f1b406b34651e8aa313","null","","null","","","","","","","","./tasks/HMM-beads/Images/WhiteBeadChoiceCorrect.png","","","","","","","","","",""
"image-keyboard-response","151","293370","0.0-3.0-6.0-1.0-0.5","5c45370eb00b3300018f9cd1","6662009ae78f21dd82fcd179","66620f1b406b34651e8aa313","560","","j","","","","","","","","./tasks/HMM-beads/Images/NewTrialWC.png","lowH","1","5","1","1","1","1","true","",""
"image-keyboard-response","152","293680","0.0-3.0-6.0-1.0-1.5","5c45370eb00b3300018f9cd1","6662009ae78f21dd82fcd179","66620f1b406b34651e8aa313","null","","null","","","","","","","","./tasks/HMM-beads/Images/WhiteBeadChoice.png","","","","","","","","","",""
"image-keyboard-response","153","294186","0.0-3.0-6.0-1.0-2.5","5c45370eb00b3300018f9cd1","6662009ae78f21dd82fcd179","66620f1b406b34651e8aa313","null","","null","","","","","","","","./tasks/HMM-beads/Images/WhiteBeadChoiceCorrect.png","","","","","","","","","",""
"image-keyboard-response","154","294842","0.0-3.0-6.0-1.0-0.6","5c45370eb00b3300018f9cd1","6662009ae78f21dd82fcd179","66620f1b406b34651e8aa313","653","","j","","","","","","","","./tasks/HMM-beads/Images/NewTrialWC.png","lowH","1","6","1","0","1","1","false","",""
"image-keyboard-response","155","295152","0.0-3.0-6.0-1.0-1.6","5c45370eb00b3300018f9cd1","6662009ae78f21dd82fcd179","66620f1b406b34651e8aa313","null","","null","","","","","","","","./tasks/HMM-beads/Images/WhiteBeadChoice.png","","","","","","","","","",""
"image-keyboard-response","156","295677","0.0-3.0-6.0-1.0-2.6","5c45370eb00b3300018f9cd1","6662009ae78f21dd82fcd179","66620f1b406b34651e8aa313","null","","null","","","","","","","","./tasks/HMM-beads/Images/WhiteBeadChoiceWrong.png","","","","","","","","","",""
"image-keyboard-response","157","296266","0.0-3.0-6.0-1.0-0.7","5c45370eb00b3300018f9cd1","6662009ae78f21dd82fcd179","66620f1b406b34651e8aa313","585","","f","","","","","","","","./tasks/HMM-beads/Images/NewTrialBC.png","lowH","1","7","1","1","0","0","false","",""
"image-keyboard-response","158","296577","0.0-3.0-6.0-1.0-1.7","5c45370eb00b3300018f9cd1","6662009ae78f21dd82fcd179","66620f1b406b34651e8aa313","null","","null","","","","","","","","./tasks/HMM-beads/Images/BlackBeadChoice.png","","","","","","","","","",""
"image-keyboard-response","159","297096","0.0-3.0-6.0-1.0-2.7","5c45370eb00b3300018f9cd1","6662009ae78f21dd82fcd179","66620f1b406b34651e8aa313","null","","null","","","","","","","","./tasks/HMM-beads/Images/BlackBeadChoiceWrong.png","","","","","","","","","",""
"image-keyboard-response","160","297891","0.0-3.0-6.0-1.0-0.8","5c45370eb00b3300018f9cd1","6662009ae78f21dd82fcd179","66620f1b406b34651e8aa313","789","","j","","","","","","","","./tasks/HMM-beads/Images/NewTrialWC.png","lowH","1","8","1","1","1","1","true","",""
"image-keyboard-response","161","298197","0.0-3.0-6.0-1.0-1.8","5c45370eb00b3300018f9cd1","6662009ae78f21dd82fcd179","66620f1b406b34651e8aa313","null","","null","","","","","","","","./tasks/HMM-beads/Images/WhiteBeadChoice.png","","","","","","","","","",""
"image-keyboard-response","162","298707","0.0-3.0-6.0-1.0-2.8","5c45370eb00b3300018f9cd1","6662009ae78f21dd82fcd179","66620f1b406b34651e8aa313","null","","null","","","","","","","","./tasks/HMM-beads/Images/WhiteBeadChoiceCorrect.png","","","","","","","","","",""
"image-keyboard-response","163","299258","0.0-3.0-6.0-1.0-0.9","5c45370eb00b3300018f9cd1","6662009ae78f21dd82fcd179","66620f1b406b34651e8aa313","546","","j","","","","","","","","./tasks/HMM-beads/Images/NewTrialWC.png","lowH","1","9","1","1","1","1","true","",""
"image-keyboard-response","164","299576","0.0-3.0-6.0-1.0-1.9","5c45370eb00b3300018f9cd1","6662009ae78f21dd82fcd179","66620f1b406b34651e8aa313","null","","null","","","","","","","","./tasks/HMM-beads/Images/WhiteBeadChoice.png","","","","","","","","","",""
"image-keyboard-response","165","300086","0.0-3.0-6.0-1.0-2.9","5c45370eb00b3300018f9cd1","6662009ae78f21dd82fcd179","66620f1b406b34651e8aa313","null","","null","","","","","","","","./tasks/HMM-beads/Images/WhiteBeadChoiceCorrect.png","","","","","","","","","",""
"image-keyboard-response","166","300546","0.0-3.0-6.0-1.0-0.10","5c45370eb00b3300018f9cd1","6662009ae78f21dd82fcd179","66620f1b406b34651e8aa313","457","","j","","","","","","","","./tasks/HMM-beads/Images/NewTrialWC.png","lowH","1","10","1","1","1","1","true","",""
"image-keyboard-response","167","300866","0.0-3.0-6.0-1.0-1.10","5c45370eb00b3300018f9cd1","6662009ae78f21dd82fcd179","66620f1b406b34651e8aa313","null","","null","","","","","","","","./tasks/HMM-beads/Images/WhiteBeadChoice.png","","","","","","","","","",""
"image-keyboard-response","168","301401","0.0-3.0-6.0-1.0-2.10","5c45370eb00b3300018f9cd1","6662009ae78f21dd82fcd179","66620f1b406b34651e8aa313","null","","null","","","","","","","","./tasks/HMM-beads/Images/WhiteBeadChoiceCorrect.png","","","","","","","","","",""
"image-keyboard-response","169","301754","0.0-3.0-6.0-1.0-0.11","5c45370eb00b3300018f9cd1","6662009ae78f21dd82fcd179","66620f1b406b34651e8aa313","348","","j","","","","","","","","./tasks/HMM-beads/Images/NewTrialWC.png","lowH","1","11","1","1","1","1","true","",""
"image-keyboard-response","170","302076","0.0-3.0-6.0-1.0-1.11","5c45370eb00b3300018f9cd1","6662009ae78f21dd82fcd179","66620f1b406b34651e8aa313","null","","null","","","","","","","","./tasks/HMM-beads/Images/WhiteBeadChoice.png","","","","","","","","","",""
"image-keyboard-response","171","302596","0.0-3.0-6.0-1.0-2.11","5c45370eb00b3300018f9cd1","6662009ae78f21dd82fcd179","66620f1b406b34651e8aa313","null","","null","","","","","","","","./tasks/HMM-beads/Images/WhiteBeadChoiceCorrect.png","","","","","","","","","",""
"image-keyboard-response","172","302983","0.0-3.0-6.0-1.0-0.12","5c45370eb00b3300018f9cd1","6662009ae78f21dd82fcd179","66620f1b406b34651e8aa313","381","","j","","","","","","","","./tasks/HMM-beads/Images/NewTrialWC.png","lowH","1","12","1","1","1","1","true","",""
"image-keyboard-response","173","303296","0.0-3.0-6.0-1.0-1.12","5c45370eb00b3300018f9cd1","6662009ae78f21dd82fcd179","66620f1b406b34651e8aa313","null","","null","","","","","","","","./tasks/HMM-beads/Images/WhiteBeadChoice.png","","","","","","","","","",""
"image-keyboard-response","174","303806","0.0-3.0-6.0-1.0-2.12","5c45370eb00b3300018f9cd1","6662009ae78f21dd82fcd179","66620f1b406b34651e8aa313","null","","null","","","","","","","","./tasks/HMM-beads/Images/WhiteBeadChoiceCorrect.png","","","","","","","","","",""
"image-keyboard-response","175","304362","0.0-3.0-6.0-1.0-0.13","5c45370eb00b3300018f9cd1","6662009ae78f21dd82fcd179","66620f1b406b34651e8aa313","551","","j","","","","","","","","./tasks/HMM-beads/Images/NewTrialWC.png","lowH","1","13","1","0","1","1","false","",""
"image-keyboard-response","176","304677","0.0-3.0-6.0-1.0-1.13","5c45370eb00b3300018f9cd1","6662009ae78f21dd82fcd179","66620f1b406b34651e8aa313","null","","null","","","","","","","","./tasks/HMM-beads/Images/WhiteBeadChoice.png","","","","","","","","","",""
"image-keyboard-response","177","305186","0.0-3.0-6.0-1.0-2.13","5c45370eb00b3300018f9cd1","6662009ae78f21dd82fcd179","66620f1b406b34651e8aa313","null","","null","","","","","","","","./tasks/HMM-beads/Images/WhiteBeadChoiceWrong.png","","","","","","","","","",""
"image-keyboard-response","178","306106","0.0-3.0-6.0-1.0-0.14","5c45370eb00b3300018f9cd1","6662009ae78f21dd82fcd179","66620f1b406b34651e8aa313","915","","j","","","","","","","","./tasks/HMM-beads/Images/NewTrialBC.png","lowH","1","14","1","0","0","1","false","",""
"image-keyboard-response","179","306421","0.0-3.0-6.0-1.0-1.14","5c45370eb00b3300018f9cd1","6662009ae78f21dd82fcd179","66620f1b406b34651e8aa313","null","","null","","","","","","","","./tasks/HMM-beads/Images/WhiteBeadChoice.png","","","","","","","","","",""
"image-keyboard-response","180","306936","0.0-3.0-6.0-1.0-2.14","5c45370eb00b3300018f9cd1","6662009ae78f21dd82fcd179","66620f1b406b34651e8aa313","null","","null","","","","","","","","./tasks/HMM-beads/Images/WhiteBeadChoiceWrong.png","","","","","","","","","",""
"image-keyboard-response","181","308059","0.0-3.0-6.0-1.0-0.15","5c45370eb00b3300018f9cd1","6662009ae78f21dd82fcd179","66620f1b406b34651e8aa313","1121","","j","","","","","","","","./tasks/HMM-beads/Images/NewTrialBC.png","lowH","1","15","1","1","0","1","true","",""
"image-keyboard-response","182","308376","0.0-3.0-6.0-1.0-1.15","5c45370eb00b3300018f9cd1","6662009ae78f21dd82fcd179","66620f1b406b34651e8aa313","null","","null","","","","","","","","./tasks/HMM-beads/Images/WhiteBeadChoice.png","","","","","","","","","",""
"image-keyboard-response","183","308886","0.0-3.0-6.0-1.0-2.15","5c45370eb00b3300018f9cd1","6662009ae78f21dd82fcd179","66620f1b406b34651e8aa313","null","","null","","","","","","","","./tasks/HMM-beads/Images/WhiteBeadChoiceCorrect.png","","","","","","","","","",""
"image-keyboard-response","184","309642","0.0-3.0-6.0-1.0-0.16","5c45370eb00b3300018f9cd1","6662009ae78f21dd82fcd179","66620f1b406b34651e8aa313","751","","j","","","","","","","","./tasks/HMM-beads/Images/NewTrialWC.png","lowH","1","16","1","1","1","1","true","",""
"image-keyboard-response","185","309966","0.0-3.0-6.0-1.0-1.16","5c45370eb00b3300018f9cd1","6662009ae78f21dd82fcd179","66620f1b406b34651e8aa313","null","","null","","","","","","","","./tasks/HMM-beads/Images/WhiteBeadChoice.png","","","","","","","","","",""
"image-keyboard-response","186","310476","0.0-3.0-6.0-1.0-2.16","5c45370eb00b3300018f9cd1","6662009ae78f21dd82fcd179","66620f1b406b34651e8aa313","null","","null","","","","","","","","./tasks/HMM-beads/Images/WhiteBeadChoiceCorrect.png","","","","","","","","","",""
"image-keyboard-response","187","310930","0.0-3.0-6.0-1.0-0.17","5c45370eb00b3300018f9cd1","6662009ae78f21dd82fcd179","66620f1b406b34651e8aa313","451","","j","","","","","","","","./tasks/HMM-beads/Images/NewTrialWC.png","lowH","1","17","1","1","1","1","true","",""
"image-keyboard-response","188","311246","0.0-3.0-6.0-1.0-1.17","5c45370eb00b3300018f9cd1","6662009ae78f21dd82fcd179","66620f1b406b34651e8aa313","null","","null","","","","","","","","./tasks/HMM-beads/Images/WhiteBeadChoice.png","","","","","","","","","",""
"image-keyboard-response","189","311766","0.0-3.0-6.0-1.0-2.17","5c45370eb00b3300018f9cd1","6662009ae78f21dd82fcd179","66620f1b406b34651e8aa313","null","","null","","","","","","","","./tasks/HMM-beads/Images/WhiteBeadChoiceCorrect.png","","","","","","","","","",""
"image-keyboard-response","190","312210","0.0-3.0-6.0-1.0-0.18","5c45370eb00b3300018f9cd1","6662009ae78f21dd82fcd179","66620f1b406b34651e8aa313","441","","j","","","","","","","","./tasks/HMM-beads/Images/NewTrialWC.png","lowH","1","18","1","1","1","1","true","",""
"image-keyboard-response","191","312526","0.0-3.0-6.0-1.0-1.18","5c45370eb00b3300018f9cd1","6662009ae78f21dd82fcd179","66620f1b406b34651e8aa313","null","","null","","","","","","","","./tasks/HMM-beads/Images/WhiteBeadChoice.png","","","","","","","","","",""
"image-keyboard-response","192","313036","0.0-3.0-6.0-1.0-2.18","5c45370eb00b3300018f9cd1","6662009ae78f21dd82fcd179","66620f1b406b34651e8aa313","null","","null","","","","","","","","./tasks/HMM-beads/Images/WhiteBeadChoiceCorrect.png","","","","","","","","","",""
"image-keyboard-response","193","313442","0.0-3.0-6.0-1.0-0.19","5c45370eb00b3300018f9cd1","6662009ae78f21dd82fcd179","66620f1b406b34651e8aa313","401","","j","","","","","","","","./tasks/HMM-beads/Images/NewTrialWC.png","lowH","1","19","1","1","1","1","true","",""
"image-keyboard-response","194","313756","0.0-3.0-6.0-1.0-1.19","5c45370eb00b3300018f9cd1","6662009ae78f21dd82fcd179","66620f1b406b34651e8aa313","null","","null","","","","","","","","./tasks/HMM-beads/Images/WhiteBeadChoice.png","","","","","","","","","",""
"image-keyboard-response","195","314276","0.0-3.0-6.0-1.0-2.19","5c45370eb00b3300018f9cd1","6662009ae78f21dd82fcd179","66620f1b406b34651e8aa313","null","","null","","","","","","","","./tasks/HMM-beads/Images/WhiteBeadChoiceCorrect.png","","","","","","","","","",""
"image-keyboard-response","196","314730","0.0-3.0-6.0-1.0-0.20","5c45370eb00b3300018f9cd1","6662009ae78f21dd82fcd179","66620f1b406b34651e8aa313","449","","j","","","","","","","","./tasks/HMM-beads/Images/NewTrialWC.png","lowH","1","20","1","1","1","1","true","",""
"image-keyboard-response","197","315041","0.0-3.0-6.0-1.0-1.20","5c45370eb00b3300018f9cd1","6662009ae78f21dd82fcd179","66620f1b406b34651e8aa313","null","","null","","","","","","","","./tasks/HMM-beads/Images/WhiteBeadChoice.png","","","","","","","","","",""
"image-keyboard-response","198","315556","0.0-3.0-6.0-1.0-2.20","5c45370eb00b3300018f9cd1","6662009ae78f21dd82fcd179","66620f1b406b34651e8aa313","null","","null","","","","","","","","./tasks/HMM-beads/Images/WhiteBeadChoiceCorrect.png","","","","","","","","","",""
"image-keyboard-response","199","315865","0.0-3.0-6.0-1.0-0.21","5c45370eb00b3300018f9cd1","6662009ae78f21dd82fcd179","66620f1b406b34651e8aa313","304","","j","","","","","","","","./tasks/HMM-beads/Images/NewTrialWC.png","lowH","1","21","1","1","1","1","true","",""
"image-keyboard-response","200","316186","0.0-3.0-6.0-1.0-1.21","5c45370eb00b3300018f9cd1","6662009ae78f21dd82fcd179","66620f1b406b34651e8aa313","null","","null","","","","","","","","./tasks/HMM-beads/Images/WhiteBeadChoice.png","","","","","","","","","",""
"image-keyboard-response","201","316696","0.0-3.0-6.0-1.0-2.21","5c45370eb00b3300018f9cd1","6662009ae78f21dd82fcd179","66620f1b406b34651e8aa313","null","","null","","","","","","","","./tasks/HMM-beads/Images/WhiteBeadChoiceCorrect.png","","","","","","","","","",""
"image-keyboard-response","202","317001","0.0-3.0-6.0-1.0-0.22","5c45370eb00b3300018f9cd1","6662009ae78f21dd82fcd179","66620f1b406b34651e8aa313","303","","j","","","","","","","","./tasks/HMM-beads/Images/NewTrialWC.png","lowH","1","22","1","1","1","1","true","",""
"image-keyboard-response","203","317306","0.0-3.0-6.0-1.0-1.22","5c45370eb00b3300018f9cd1","6662009ae78f21dd82fcd179","66620f1b406b34651e8aa313","null","","null","","","","","","","","./tasks/HMM-beads/Images/WhiteBeadChoice.png","","","","","","","","","",""
"image-keyboard-response","204","317826","0.0-3.0-6.0-1.0-2.22","5c45370eb00b3300018f9cd1","6662009ae78f21dd82fcd179","66620f1b406b34651e8aa313","null","","null","","","","","","","","./tasks/HMM-beads/Images/WhiteBeadChoiceCorrect.png","","","","","","","","","",""
"image-keyboard-response","205","318170","0.0-3.0-6.0-1.0-0.23","5c45370eb00b3300018f9cd1","6662009ae78f21dd82fcd179","66620f1b406b34651e8aa313","339","","j","","","","","","","","./tasks/HMM-beads/Images/NewTrialWC.png","lowH","1","23","1","1","1","1","true","",""
"image-keyboard-response","206","318496","0.0-3.0-6.0-1.0-1.23","5c45370eb00b3300018f9cd1","6662009ae78f21dd82fcd179","66620f1b406b34651e8aa313","null","","null","","","","","","","","./tasks/HMM-beads/Images/WhiteBeadChoice.png","","","","","","","","","",""
"image-keyboard-response","207","319006","0.0-3.0-6.0-1.0-2.23","5c45370eb00b3300018f9cd1","6662009ae78f21dd82fcd179","66620f1b406b34651e8aa313","null","","null","","","","","","","","./tasks/HMM-beads/Images/WhiteBeadChoiceCorrect.png","","","","","","","","","",""
"image-keyboard-response","208","319314","0.0-3.0-6.0-1.0-0.24","5c45370eb00b3300018f9cd1","6662009ae78f21dd82fcd179","66620f1b406b34651e8aa313","303","","j","","","","","","","","./tasks/HMM-beads/Images/NewTrialWC.png","lowH","1","24","1","0","1","1","false","",""
"image-keyboard-response","209","319626","0.0-3.0-6.0-1.0-1.24","5c45370eb00b3300018f9cd1","6662009ae78f21dd82fcd179","66620f1b406b34651e8aa313","null","","null","","","","","","","","./tasks/HMM-beads/Images/WhiteBeadChoice.png","","","","","","","","","",""
"image-keyboard-response","210","320146","0.0-3.0-6.0-1.0-2.24","5c45370eb00b3300018f9cd1","6662009ae78f21dd82fcd179","66620f1b406b34651e8aa313","null","","null","","","","","","","","./tasks/HMM-beads/Images/WhiteBeadChoiceWrong.png","","","","","","","","","",""
"image-keyboard-response","211","320826","0.0-3.0-6.0-1.0-0.25","5c45370eb00b3300018f9cd1","6662009ae78f21dd82fcd179","66620f1b406b34651e8aa313","675","","j","","","","","","","","./tasks/HMM-beads/Images/NewTrialBC.png","lowH","1","25","1","1","0","1","true","",""
"image-keyboard-response","212","321146","0.0-3.0-6.0-1.0-1.25","5c45370eb00b3300018f9cd1","6662009ae78f21dd82fcd179","66620f1b406b34651e8aa313","null","","null","","","","","","","","./tasks/HMM-beads/Images/WhiteBeadChoice.png","","","","","","","","","",""
"image-keyboard-response","213","321666","0.0-3.0-6.0-1.0-2.25","5c45370eb00b3300018f9cd1","6662009ae78f21dd82fcd179","66620f1b406b34651e8aa313","null","","null","","","","","","","","./tasks/HMM-beads/Images/WhiteBeadChoiceCorrect.png","","","","","","","","","",""
"image-keyboard-response","214","322018","0.0-3.0-6.0-1.0-0.26","5c45370eb00b3300018f9cd1","6662009ae78f21dd82fcd179","66620f1b406b34651e8aa313","346","","j","","","","","","","","./tasks/HMM-beads/Images/NewTrialWC.png","lowH","1","26","1","0","1","1","false","",""
"image-keyboard-response","215","322336","0.0-3.0-6.0-1.0-1.26","5c45370eb00b3300018f9cd1","6662009ae78f21dd82fcd179","66620f1b406b34651e8aa313","null","","null","","","","","","","","./tasks/HMM-beads/Images/WhiteBeadChoice.png","","","","","","","","","",""
"image-keyboard-response","216","322856","0.0-3.0-6.0-1.0-2.26","5c45370eb00b3300018f9cd1","6662009ae78f21dd82fcd179","66620f1b406b34651e8aa313","null","","null","","","","","","","","./tasks/HMM-beads/Images/WhiteBeadChoiceWrong.png","","","","","","","","","",""
"image-keyboard-response","217","323298","0.0-3.0-6.0-1.0-0.27","5c45370eb00b3300018f9cd1","6662009ae78f21dd82fcd179","66620f1b406b34651e8aa313","439","","j","","","","","","","","./tasks/HMM-beads/Images/NewTrialBC.png","lowH","1","27","1","1","0","1","true","",""
"image-keyboard-response","218","323606","0.0-3.0-6.0-1.0-1.27","5c45370eb00b3300018f9cd1","6662009ae78f21dd82fcd179","66620f1b406b34651e8aa313","null","","null","","","","","","","","./tasks/HMM-beads/Images/WhiteBeadChoice.png","","","","","","","","","",""
"image-keyboard-response","219","324126","0.0-3.0-6.0-1.0-2.27","5c45370eb00b3300018f9cd1","6662009ae78f21dd82fcd179","66620f1b406b34651e8aa313","null","","null","","","","","","","","./tasks/HMM-beads/Images/WhiteBeadChoiceCorrect.png","","","","","","","","","",""
"image-keyboard-response","220","324514","0.0-3.0-6.0-1.0-0.28","5c45370eb00b3300018f9cd1","6662009ae78f21dd82fcd179","66620f1b406b34651e8aa313","383","","j","","","","","","","","./tasks/HMM-beads/Images/NewTrialWC.png","lowH","1","28","1","1","1","1","true","",""
"image-keyboard-response","221","324837","0.0-3.0-6.0-1.0-1.28","5c45370eb00b3300018f9cd1","6662009ae78f21dd82fcd179","66620f1b406b34651e8aa313","null","","null","","","","","","","","./tasks/HMM-beads/Images/WhiteBeadChoice.png","","","","","","","","","",""
"image-keyboard-response","222","325356","0.0-3.0-6.0-1.0-2.28","5c45370eb00b3300018f9cd1","6662009ae78f21dd82fcd179","66620f1b406b34651e8aa313","null","","null","","","","","","","","./tasks/HMM-beads/Images/WhiteBeadChoiceCorrect.png","","","","","","","","","",""
"image-keyboard-response","223","325618","0.0-3.0-6.0-1.0-0.29","5c45370eb00b3300018f9cd1","6662009ae78f21dd82fcd179","66620f1b406b34651e8aa313","257","","j","","","","","","","","./tasks/HMM-beads/Images/NewTrialWC.png","lowH","1","29","1","1","1","1","true","",""
"image-keyboard-response","224","325936","0.0-3.0-6.0-1.0-1.29","5c45370eb00b3300018f9cd1","6662009ae78f21dd82fcd179","66620f1b406b34651e8aa313","null","","null","","","","","","","","./tasks/HMM-beads/Images/WhiteBeadChoice.png","","","","","","","","","",""
"image-keyboard-response","225","326446","0.0-3.0-6.0-1.0-2.29","5c45370eb00b3300018f9cd1","6662009ae78f21dd82fcd179","66620f1b406b34651e8aa313","null","","null","","","","","","","","./tasks/HMM-beads/Images/WhiteBeadChoiceCorrect.png","","","","","","","","","",""
"image-keyboard-response","226","326746","0.0-3.0-6.0-1.0-0.30","5c45370eb00b3300018f9cd1","6662009ae78f21dd82fcd179","66620f1b406b34651e8aa313","294","","j","","","","","","","","./tasks/HMM-beads/Images/NewTrialWC.png","lowH","1","30","1","1","1","1","true","",""
"image-keyboard-response","227","327056","0.0-3.0-6.0-1.0-1.30","5c45370eb00b3300018f9cd1","6662009ae78f21dd82fcd179","66620f1b406b34651e8aa313","null","","null","","","","","","","","./tasks/HMM-beads/Images/WhiteBeadChoice.png","","","","","","","","","",""
"image-keyboard-response","228","327576","0.0-3.0-6.0-1.0-2.30","5c45370eb00b3300018f9cd1","6662009ae78f21dd82fcd179","66620f1b406b34651e8aa313","null","","null","","","","","","","","./tasks/HMM-beads/Images/WhiteBeadChoiceCorrect.png","","","","","","","","","",""
"image-keyboard-response","229","327978","0.0-3.0-6.0-1.0-0.31","5c45370eb00b3300018f9cd1","6662009ae78f21dd82fcd179","66620f1b406b34651e8aa313","397","","j","","","","","","","","./tasks/HMM-beads/Images/NewTrialWC.png","lowH","1","31","1","1","1","1","true","",""
"image-keyboard-response","230","328286","0.0-3.0-6.0-1.0-1.31","5c45370eb00b3300018f9cd1","6662009ae78f21dd82fcd179","66620f1b406b34651e8aa313","null","","null","","","","","","","","./tasks/HMM-beads/Images/WhiteBeadChoice.png","","","","","","","","","",""
"image-keyboard-response","231","328806","0.0-3.0-6.0-1.0-2.31","5c45370eb00b3300018f9cd1","6662009ae78f21dd82fcd179","66620f1b406b34651e8aa313","null","","null","","","","","","","","./tasks/HMM-beads/Images/WhiteBeadChoiceCorrect.png","","","","","","","","","",""
"image-keyboard-response","232","329123","0.0-3.0-6.0-1.0-0.32","5c45370eb00b3300018f9cd1","6662009ae78f21dd82fcd179","66620f1b406b34651e8aa313","311","","j","","","","","","","","./tasks/HMM-beads/Images/NewTrialWC.png","lowH","1","32","1","1","1","1","true","",""
"image-keyboard-response","233","329446","0.0-3.0-6.0-1.0-1.32","5c45370eb00b3300018f9cd1","6662009ae78f21dd82fcd179","66620f1b406b34651e8aa313","null","","null","","","","","","","","./tasks/HMM-beads/Images/WhiteBeadChoice.png","","","","","","","","","",""
"image-keyboard-response","234","329956","0.0-3.0-6.0-1.0-2.32","5c45370eb00b3300018f9cd1","6662009ae78f21dd82fcd179","66620f1b406b34651e8aa313","null","","null","","","","","","","","./tasks/HMM-beads/Images/WhiteBeadChoiceCorrect.png","","","","","","","","","",""
"image-keyboard-response","235","330258","0.0-3.0-6.0-1.0-0.33","5c45370eb00b3300018f9cd1","6662009ae78f21dd82fcd179","66620f1b406b34651e8aa313","297","","j","","","","","","","","./tasks/HMM-beads/Images/NewTrialWC.png","lowH","1","33","1","1","1","1","true","",""
"image-keyboard-response","236","330576","0.0-3.0-6.0-1.0-1.33","5c45370eb00b3300018f9cd1","6662009ae78f21dd82fcd179","66620f1b406b34651e8aa313","null","","null","","","","","","","","./tasks/HMM-beads/Images/WhiteBeadChoice.png","","","","","","","","","",""
"image-keyboard-response","237","331081","0.0-3.0-6.0-1.0-2.33","5c45370eb00b3300018f9cd1","6662009ae78f21dd82fcd179","66620f1b406b34651e8aa313","null","","null","","","","","","","","./tasks/HMM-beads/Images/WhiteBeadChoiceCorrect.png","","","","","","","","","",""
"image-keyboard-response","238","331354","0.0-3.0-6.0-1.0-0.34","5c45370eb00b3300018f9cd1","6662009ae78f21dd82fcd179","66620f1b406b34651e8aa313","268","","j","","","","","","","","./tasks/HMM-beads/Images/NewTrialWC.png","lowH","1","34","1","1","1","1","true","",""
"image-keyboard-response","239","331676","0.0-3.0-6.0-1.0-1.34","5c45370eb00b3300018f9cd1","6662009ae78f21dd82fcd179","66620f1b406b34651e8aa313","null","","null","","","","","","","","./tasks/HMM-beads/Images/WhiteBeadChoice.png","","","","","","","","","",""
"image-keyboard-response","240","332186","0.0-3.0-6.0-1.0-2.34","5c45370eb00b3300018f9cd1","6662009ae78f21dd82fcd179","66620f1b406b34651e8aa313","null","","null","","","","","","","","./tasks/HMM-beads/Images/WhiteBeadChoiceCorrect.png","","","","","","","","","",""
"image-keyboard-response","241","332466","0.0-3.0-6.0-1.0-0.35","5c45370eb00b3300018f9cd1","6662009ae78f21dd82fcd179","66620f1b406b34651e8aa313","275","","j","","","","","","","","./tasks/HMM-beads/Images/NewTrialWC.png","lowH","1","35","1","1","1","1","true","",""
"image-keyboard-response","242","332816","0.0-3.0-6.0-1.0-1.35","5c45370eb00b3300018f9cd1","6662009ae78f21dd82fcd179","66620f1b406b34651e8aa313","null","","null","","","","","","","","./tasks/HMM-beads/Images/WhiteBeadChoice.png","","","","","","","","","",""
"image-keyboard-response","243","333336","0.0-3.0-6.0-1.0-2.35","5c45370eb00b3300018f9cd1","6662009ae78f21dd82fcd179","66620f1b406b34651e8aa313","null","","null","","","","","","","","./tasks/HMM-beads/Images/WhiteBeadChoiceCorrect.png","","","","","","","","","",""
"image-keyboard-response","244","333634","0.0-3.0-6.0-1.0-0.36","5c45370eb00b3300018f9cd1","6662009ae78f21dd82fcd179","66620f1b406b34651e8aa313","293","","j","","","","","","","","./tasks/HMM-beads/Images/NewTrialWC.png","lowH","1","36","1","1","1","1","true","",""
"image-keyboard-response","245","333946","0.0-3.0-6.0-1.0-1.36","5c45370eb00b3300018f9cd1","6662009ae78f21dd82fcd179","66620f1b406b34651e8aa313","null","","null","","","","","","","","./tasks/HMM-beads/Images/WhiteBeadChoice.png","","","","","","","","","",""
"image-keyboard-response","246","334456","0.0-3.0-6.0-1.0-2.36","5c45370eb00b3300018f9cd1","6662009ae78f21dd82fcd179","66620f1b406b34651e8aa313","null","","null","","","","","","","","./tasks/HMM-beads/Images/WhiteBeadChoiceCorrect.png","","","","","","","","","",""
"image-keyboard-response","247","334826","0.0-3.0-6.0-1.0-0.37","5c45370eb00b3300018f9cd1","6662009ae78f21dd82fcd179","66620f1b406b34651e8aa313","365","","j","","","","","","","","./tasks/HMM-beads/Images/NewTrialWC.png","lowH","1","37","1","1","1","1","true","",""
"image-keyboard-response","248","335136","0.0-3.0-6.0-1.0-1.37","5c45370eb00b3300018f9cd1","6662009ae78f21dd82fcd179","66620f1b406b34651e8aa313","null","","null","","","","","","","","./tasks/HMM-beads/Images/WhiteBeadChoice.png","","","","","","","","","",""
"image-keyboard-response","249","335652","0.0-3.0-6.0-1.0-2.37","5c45370eb00b3300018f9cd1","6662009ae78f21dd82fcd179","66620f1b406b34651e8aa313","null","","null","","","","","","","","./tasks/HMM-beads/Images/WhiteBeadChoiceCorrect.png","","","","","","","","","",""
"image-keyboard-response","250","335994","0.0-3.0-6.0-1.0-0.38","5c45370eb00b3300018f9cd1","6662009ae78f21dd82fcd179","66620f1b406b34651e8aa313","338","","j","","","","","","","","./tasks/HMM-beads/Images/NewTrialWC.png","lowH","1","38","1","1","1","1","true","",""
"image-keyboard-response","251","336302","0.0-3.0-6.0-1.0-1.38","5c45370eb00b3300018f9cd1","6662009ae78f21dd82fcd179","66620f1b406b34651e8aa313","null","","null","","","","","","","","./tasks/HMM-beads/Images/WhiteBeadChoice.png","","","","","","","","","",""
"image-keyboard-response","252","336816","0.0-3.0-6.0-1.0-2.38","5c45370eb00b3300018f9cd1","6662009ae78f21dd82fcd179","66620f1b406b34651e8aa313","null","","null","","","","","","","","./tasks/HMM-beads/Images/WhiteBeadChoiceCorrect.png","","","","","","","","","",""
"image-keyboard-response","253","337137","0.0-3.0-6.0-1.0-0.39","5c45370eb00b3300018f9cd1","6662009ae78f21dd82fcd179","66620f1b406b34651e8aa313","320","","j","","","","","","","","./tasks/HMM-beads/Images/NewTrialWC.png","lowH","1","39","1","1","1","1","true","",""
"image-keyboard-response","254","337456","0.0-3.0-6.0-1.0-1.39","5c45370eb00b3300018f9cd1","6662009ae78f21dd82fcd179","66620f1b406b34651e8aa313","null","","null","","","","","","","","./tasks/HMM-beads/Images/WhiteBeadChoice.png","","","","","","","","","",""
"image-keyboard-response","255","337966","0.0-3.0-6.0-1.0-2.39","5c45370eb00b3300018f9cd1","6662009ae78f21dd82fcd179","66620f1b406b34651e8aa313","null","","null","","","","","","","","./tasks/HMM-beads/Images/WhiteBeadChoiceCorrect.png","","","","","","","","","",""
"image-keyboard-response","256","338306","0.0-3.0-6.0-1.0-0.40","5c45370eb00b3300018f9cd1","6662009ae78f21dd82fcd179","66620f1b406b34651e8aa313","338","","j","","","","","","","","./tasks/HMM-beads/Images/NewTrialWC.png","lowH","1","40","1","1","1","1","true","",""
"image-keyboard-response","257","338616","0.0-3.0-6.0-1.0-1.40","5c45370eb00b3300018f9cd1","6662009ae78f21dd82fcd179","66620f1b406b34651e8aa313","null","","null","","","","","","","","./tasks/HMM-beads/Images/WhiteBeadChoice.png","","","","","","","","","",""
"image-keyboard-response","258","339127","0.0-3.0-6.0-1.0-2.40","5c45370eb00b3300018f9cd1","6662009ae78f21dd82fcd179","66620f1b406b34651e8aa313","null","","null","","","","","","","","./tasks/HMM-beads/Images/WhiteBeadChoiceCorrect.png","","","","","","","","","",""
"image-keyboard-response","259","339459","0.0-3.0-6.0-1.0-0.41","5c45370eb00b3300018f9cd1","6662009ae78f21dd82fcd179","66620f1b406b34651e8aa313","327","","j","","","","","","","","./tasks/HMM-beads/Images/NewTrialWC.png","lowH","1","41","1","1","1","1","true","",""
"image-keyboard-response","260","339766","0.0-3.0-6.0-1.0-1.41","5c45370eb00b3300018f9cd1","6662009ae78f21dd82fcd179","66620f1b406b34651e8aa313","null","","null","","","","","","","","./tasks/HMM-beads/Images/WhiteBeadChoice.png","","","","","","","","","",""
"image-keyboard-response","261","340276","0.0-3.0-6.0-1.0-2.41","5c45370eb00b3300018f9cd1","6662009ae78f21dd82fcd179","66620f1b406b34651e8aa313","null","","null","","","","","","","","./tasks/HMM-beads/Images/WhiteBeadChoiceCorrect.png","","","","","","","","","",""
"image-keyboard-response","262","340585","0.0-3.0-6.0-1.0-0.42","5c45370eb00b3300018f9cd1","6662009ae78f21dd82fcd179","66620f1b406b34651e8aa313","304","","j","","","","","","","","./tasks/HMM-beads/Images/NewTrialWC.png","lowH","1","42","1","1","1","1","true","",""
"image-keyboard-response","263","340906","0.0-3.0-6.0-1.0-1.42","5c45370eb00b3300018f9cd1","6662009ae78f21dd82fcd179","66620f1b406b34651e8aa313","null","","null","","","","","","","","./tasks/HMM-beads/Images/WhiteBeadChoice.png","","","","","","","","","",""
"image-keyboard-response","264","341427","0.0-3.0-6.0-1.0-2.42","5c45370eb00b3300018f9cd1","6662009ae78f21dd82fcd179","66620f1b406b34651e8aa313","null","","null","","","","","","","","./tasks/HMM-beads/Images/WhiteBeadChoiceCorrect.png","","","","","","","","","",""
"image-keyboard-response","265","341810","0.0-3.0-6.0-1.0-0.43","5c45370eb00b3300018f9cd1","6662009ae78f21dd82fcd179","66620f1b406b34651e8aa313","379","","j","","","","","","","","./tasks/HMM-beads/Images/NewTrialWC.png","lowH","1","43","1","1","1","1","true","",""
"image-keyboard-response","266","342126","0.0-3.0-6.0-1.0-1.43","5c45370eb00b3300018f9cd1","6662009ae78f21dd82fcd179","66620f1b406b34651e8aa313","null","","null","","","","","","","","./tasks/HMM-beads/Images/WhiteBeadChoice.png","","","","","","","","","",""
"image-keyboard-response","267","342636","0.0-3.0-6.0-1.0-2.43","5c45370eb00b3300018f9cd1","6662009ae78f21dd82fcd179","66620f1b406b34651e8aa313","null","","null","","","","","","","","./tasks/HMM-beads/Images/WhiteBeadChoiceCorrect.png","","","","","","","","","",""
"image-keyboard-response","268","343057","0.0-3.0-6.0-1.0-0.44","5c45370eb00b3300018f9cd1","6662009ae78f21dd82fcd179","66620f1b406b34651e8aa313","416","","j","","","","","","","","./tasks/HMM-beads/Images/NewTrialWC.png","lowH","1","44","1","1","1","1","true","",""
"image-keyboard-response","269","343366","0.0-3.0-6.0-1.0-1.44","5c45370eb00b3300018f9cd1","6662009ae78f21dd82fcd179","66620f1b406b34651e8aa313","null","","null","","","","","","","","./tasks/HMM-beads/Images/WhiteBeadChoice.png","","","","","","","","","",""
"image-keyboard-response","270","343876","0.0-3.0-6.0-1.0-2.44","5c45370eb00b3300018f9cd1","6662009ae78f21dd82fcd179","66620f1b406b34651e8aa313","null","","null","","","","","","","","./tasks/HMM-beads/Images/WhiteBeadChoiceCorrect.png","","","","","","","","","",""
"image-keyboard-response","271","344258","0.0-3.0-6.0-1.0-0.45","5c45370eb00b3300018f9cd1","6662009ae78f21dd82fcd179","66620f1b406b34651e8aa313","377","","j","","","","","","","","./tasks/HMM-beads/Images/NewTrialWC.png","lowH","1","45","1","1","1","1","true","",""
"image-keyboard-response","272","344576","0.0-3.0-6.0-1.0-1.45","5c45370eb00b3300018f9cd1","6662009ae78f21dd82fcd179","66620f1b406b34651e8aa313","null","","null","","","","","","","","./tasks/HMM-beads/Images/WhiteBeadChoice.png","","","","","","","","","",""
"image-keyboard-response","273","345096","0.0-3.0-6.0-1.0-2.45","5c45370eb00b3300018f9cd1","6662009ae78f21dd82fcd179","66620f1b406b34651e8aa313","null","","null","","","","","","","","./tasks/HMM-beads/Images/WhiteBeadChoiceCorrect.png","","","","","","","","","",""
"image-keyboard-response","274","345458","0.0-3.0-6.0-1.0-0.46","5c45370eb00b3300018f9cd1","6662009ae78f21dd82fcd179","66620f1b406b34651e8aa313","357","","j","","","","","","","","./tasks/HMM-beads/Images/NewTrialWC.png","lowH","1","46","1","1","1","1","true","",""
"image-keyboard-response","275","345777","0.0-3.0-6.0-1.0-1.46","5c45370eb00b3300018f9cd1","6662009ae78f21dd82fcd179","66620f1b406b34651e8aa313","null","","null","","","","","","","","./tasks/HMM-beads/Images/WhiteBeadChoice.png","","","","","","","","","",""
"image-keyboard-response","276","346286","0.0-3.0-6.0-1.0-2.46","5c45370eb00b3300018f9cd1","6662009ae78f21dd82fcd179","66620f1b406b34651e8aa313","null","","null","","","","","","","","./tasks/HMM-beads/Images/WhiteBeadChoiceCorrect.png","","","","","","","","","",""
"image-keyboard-response","277","346602","0.0-3.0-6.0-1.0-0.47","5c45370eb00b3300018f9cd1","6662009ae78f21dd82fcd179","66620f1b406b34651e8aa313","312","","j","","","","","","","","./tasks/HMM-beads/Images/NewTrialWC.png","lowH","1","47","1","0","1","1","false","",""
"image-keyboard-response","278","346911","0.0-3.0-6.0-1.0-1.47","5c45370eb00b3300018f9cd1","6662009ae78f21dd82fcd179","66620f1b406b34651e8aa313","null","","null","","","","","","","","./tasks/HMM-beads/Images/WhiteBeadChoice.png","","","","","","","","","",""
"image-keyboard-response","279","347451","0.0-3.0-6.0-1.0-2.47","5c45370eb00b3300018f9cd1","6662009ae78f21dd82fcd179","66620f1b406b34651e8aa313","null","","null","","","","","","","","./tasks/HMM-beads/Images/WhiteBeadChoiceWrong.png","","","","","","","","","",""
"image-keyboard-response","280","347753","0.0-3.0-6.0-1.0-0.48","5c45370eb00b3300018f9cd1","6662009ae78f21dd82fcd179","66620f1b406b34651e8aa313","297","","j","","","","","","","","./tasks/HMM-beads/Images/NewTrialBC.png","lowH","1","48","1","0","0","1","false","",""
"image-keyboard-response","281","348066","0.0-3.0-6.0-1.0-1.48","5c45370eb00b3300018f9cd1","6662009ae78f21dd82fcd179","66620f1b406b34651e8aa313","null","","null","","","","","","","","./tasks/HMM-beads/Images/WhiteBeadChoice.png","","","","","","","","","",""
"image-keyboard-response","282","348576","0.0-3.0-6.0-1.0-2.48","5c45370eb00b3300018f9cd1","6662009ae78f21dd82fcd179","66620f1b406b34651e8aa313","null","","null","","","","","","","","./tasks/HMM-beads/Images/WhiteBeadChoiceWrong.png","","","","","","","","","",""
"image-keyboard-response","283","348970","0.0-3.0-6.0-1.0-0.49","5c45370eb00b3300018f9cd1","6662009ae78f21dd82fcd179","66620f1b406b34651e8aa313","389","","j","","","","","","","","./tasks/HMM-beads/Images/NewTrialBC.png","lowH","1","49","1","0","0","1","false","",""
"image-keyboard-response","284","349276","0.0-3.0-6.0-1.0-1.49","5c45370eb00b3300018f9cd1","6662009ae78f21dd82fcd179","66620f1b406b34651e8aa313","null","","null","","","","","","","","./tasks/HMM-beads/Images/WhiteBeadChoice.png","","","","","","","","","",""
"image-keyboard-response","285","349796","0.0-3.0-6.0-1.0-2.49","5c45370eb00b3300018f9cd1","6662009ae78f21dd82fcd179","66620f1b406b34651e8aa313","null","","null","","","","","","","","./tasks/HMM-beads/Images/WhiteBeadChoiceWrong.png","","","","","","","","","",""
"image-keyboard-response","286","350026","0.0-3.0-6.0-1.0-0.50","5c45370eb00b3300018f9cd1","6662009ae78f21dd82fcd179","66620f1b406b34651e8aa313","226","","f","","","","","","","","./tasks/HMM-beads/Images/NewTrialBC.png","lowH","1","50","1","1","0","0","false","",""
"image-keyboard-response","287","350336","0.0-3.0-6.0-1.0-1.50","5c45370eb00b3300018f9cd1","6662009ae78f21dd82fcd179","66620f1b406b34651e8aa313","null","","null","","","","","","","","./tasks/HMM-beads/Images/BlackBeadChoice.png","","","","","","","","","",""
"image-keyboard-response","288","350852","0.0-3.0-6.0-1.0-2.50","5c45370eb00b3300018f9cd1","6662009ae78f21dd82fcd179","66620f1b406b34651e8aa313","null","","null","","","","","","","","./tasks/HMM-beads/Images/BlackBeadChoiceWrong.png","","","","","","","","","",""
"image-keyboard-response","289","351250","0.0-3.0-6.0-1.0-0.51","5c45370eb00b3300018f9cd1","6662009ae78f21dd82fcd179","66620f1b406b34651e8aa313","394","","j","","","","","","","","./tasks/HMM-beads/Images/NewTrialWC.png","lowH","1","51","1","1","1","1","true","",""
"image-keyboard-response","290","351576","0.0-3.0-6.0-1.0-1.51","5c45370eb00b3300018f9cd1","6662009ae78f21dd82fcd179","66620f1b406b34651e8aa313","null","","null","","","","","","","","./tasks/HMM-beads/Images/WhiteBeadChoice.png","","","","","","","","","",""
"image-keyboard-response","291","352087","0.0-3.0-6.0-1.0-2.51","5c45370eb00b3300018f9cd1","6662009ae78f21dd82fcd179","66620f1b406b34651e8aa313","null","","null","","","","","","","","./tasks/HMM-beads/Images/WhiteBeadChoiceCorrect.png","","","","","","","","","",""
"image-keyboard-response","292","352434","0.0-3.0-6.0-1.0-0.52","5c45370eb00b3300018f9cd1","6662009ae78f21dd82fcd179","66620f1b406b34651e8aa313","343","","j","","","","","","","","./tasks/HMM-beads/Images/NewTrialWC.png","lowH","1","52","1","1","1","1","true","",""
"image-keyboard-response","293","352756","0.0-3.0-6.0-1.0-1.52","5c45370eb00b3300018f9cd1","6662009ae78f21dd82fcd179","66620f1b406b34651e8aa313","null","","null","","","","","","","","./tasks/HMM-beads/Images/WhiteBeadChoice.png","","","","","","","","","",""
"image-keyboard-response","294","353276","0.0-3.0-6.0-1.0-2.52","5c45370eb00b3300018f9cd1","6662009ae78f21dd82fcd179","66620f1b406b34651e8aa313","null","","null","","","","","","","","./tasks/HMM-beads/Images/WhiteBeadChoiceCorrect.png","","","","","","","","","",""
"image-keyboard-response","295","353602","0.0-3.0-6.0-1.0-0.53","5c45370eb00b3300018f9cd1","6662009ae78f21dd82fcd179","66620f1b406b34651e8aa313","321","","j","","","","","","","","./tasks/HMM-beads/Images/NewTrialWC.png","lowH","1","53","1","1","1","1","true","",""
"image-keyboard-response","296","353911","0.0-3.0-6.0-1.0-1.53","5c45370eb00b3300018f9cd1","6662009ae78f21dd82fcd179","66620f1b406b34651e8aa313","null","","null","","","","","","","","./tasks/HMM-beads/Images/WhiteBeadChoice.png","","","","","","","","","",""
"image-keyboard-response","297","354421","0.0-3.0-6.0-1.0-2.53","5c45370eb00b3300018f9cd1","6662009ae78f21dd82fcd179","66620f1b406b34651e8aa313","null","","null","","","","","","","","./tasks/HMM-beads/Images/WhiteBeadChoiceCorrect.png","","","","","","","","","",""
"image-keyboard-response","298","354769","0.0-3.0-6.0-1.0-0.54","5c45370eb00b3300018f9cd1","6662009ae78f21dd82fcd179","66620f1b406b34651e8aa313","343","","j","","","","","","","","./tasks/HMM-beads/Images/NewTrialWC.png","lowH","1","54","1","1","1","1","true","",""
"image-keyboard-response","299","355086","0.0-3.0-6.0-1.0-1.54","5c45370eb00b3300018f9cd1","6662009ae78f21dd82fcd179","66620f1b406b34651e8aa313","null","","null","","","","","","","","./tasks/HMM-beads/Images/WhiteBeadChoice.png","","","","","","","","","",""
"image-keyboard-response","300","355606","0.0-3.0-6.0-1.0-2.54","5c45370eb00b3300018f9cd1","6662009ae78f21dd82fcd179","66620f1b406b34651e8aa313","null","","null","","","","","","","","./tasks/HMM-beads/Images/WhiteBeadChoiceCorrect.png","","","","","","","","","",""
"image-keyboard-response","301","355922","0.0-3.0-6.0-1.0-0.55","5c45370eb00b3300018f9cd1","6662009ae78f21dd82fcd179","66620f1b406b34651e8aa313","311","","j","","","","","","","","./tasks/HMM-beads/Images/NewTrialWC.png","lowH","1","55","1","1","1","1","true","",""
"image-keyboard-response","302","356237","0.0-3.0-6.0-1.0-1.55","5c45370eb00b3300018f9cd1","6662009ae78f21dd82fcd179","66620f1b406b34651e8aa313","null","","null","","","","","","","","./tasks/HMM-beads/Images/WhiteBeadChoice.png","","","","","","","","","",""
"image-keyboard-response","303","356756","0.0-3.0-6.0-1.0-2.55","5c45370eb00b3300018f9cd1","6662009ae78f21dd82fcd179","66620f1b406b34651e8aa313","null","","null","","","","","","","","./tasks/HMM-beads/Images/WhiteBeadChoiceCorrect.png","","","","","","","","","",""
"image-keyboard-response","304","357122","0.0-3.0-6.0-1.0-0.56","5c45370eb00b3300018f9cd1","6662009ae78f21dd82fcd179","66620f1b406b34651e8aa313","361","","j","","","","","","","","./tasks/HMM-beads/Images/NewTrialWC.png","lowH","1","56","1","1","1","1","true","",""
"image-keyboard-response","305","357447","0.0-3.0-6.0-1.0-1.56","5c45370eb00b3300018f9cd1","6662009ae78f21dd82fcd179","66620f1b406b34651e8aa313","null","","null","","","","","","","","./tasks/HMM-beads/Images/WhiteBeadChoice.png","","","","","","","","","",""
"image-keyboard-response","306","357956","0.0-3.0-6.0-1.0-2.56","5c45370eb00b3300018f9cd1","6662009ae78f21dd82fcd179","66620f1b406b34651e8aa313","null","","null","","","","","","","","./tasks/HMM-beads/Images/WhiteBeadChoiceCorrect.png","","","","","","","","","",""
"image-keyboard-response","307","358314","0.0-3.0-6.0-1.0-0.57","5c45370eb00b3300018f9cd1","6662009ae78f21dd82fcd179","66620f1b406b34651e8aa313","353","","j","","","","","","","","./tasks/HMM-beads/Images/NewTrialWC.png","lowH","1","57","1","1","1","1","true","",""
"image-keyboard-response","308","358627","0.0-3.0-6.0-1.0-1.57","5c45370eb00b3300018f9cd1","6662009ae78f21dd82fcd179","66620f1b406b34651e8aa313","null","","null","","","","","","","","./tasks/HMM-beads/Images/WhiteBeadChoice.png","","","","","","","","","",""
"image-keyboard-response","309","359146","0.0-3.0-6.0-1.0-2.57","5c45370eb00b3300018f9cd1","6662009ae78f21dd82fcd179","66620f1b406b34651e8aa313","null","","null","","","","","","","","./tasks/HMM-beads/Images/WhiteBeadChoiceCorrect.png","","","","","","","","","",""
"image-keyboard-response","310","359506","0.0-3.0-6.0-1.0-0.58","5c45370eb00b3300018f9cd1","6662009ae78f21dd82fcd179","66620f1b406b34651e8aa313","356","","j","","","","","","","","./tasks/HMM-beads/Images/NewTrialWC.png","lowH","1","58","1","1","1","1","true","",""
"image-keyboard-response","311","359826","0.0-3.0-6.0-1.0-1.58","5c45370eb00b3300018f9cd1","6662009ae78f21dd82fcd179","66620f1b406b34651e8aa313","null","","null","","","","","","","","./tasks/HMM-beads/Images/WhiteBeadChoice.png","","","","","","","","","",""
"image-keyboard-response","312","360347","0.0-3.0-6.0-1.0-2.58","5c45370eb00b3300018f9cd1","6662009ae78f21dd82fcd179","66620f1b406b34651e8aa313","null","","null","","","","","","","","./tasks/HMM-beads/Images/WhiteBeadChoiceCorrect.png","","","","","","","","","",""
"image-keyboard-response","313","360686","0.0-3.0-6.0-1.0-0.59","5c45370eb00b3300018f9cd1","6662009ae78f21dd82fcd179","66620f1b406b34651e8aa313","339","","j","","","","","","","","./tasks/HMM-beads/Images/NewTrialWC.png","lowH","1","59","1","0","1","1","false","",""
"image-keyboard-response","314","360992","0.0-3.0-6.0-1.0-1.59","5c45370eb00b3300018f9cd1","6662009ae78f21dd82fcd179","66620f1b406b34651e8aa313","null","","null","","","","","","","","./tasks/HMM-beads/Images/WhiteBeadChoice.png","","","","","","","","","",""
"image-keyboard-response","315","361512","0.0-3.0-6.0-1.0-2.59","5c45370eb00b3300018f9cd1","6662009ae78f21dd82fcd179","66620f1b406b34651e8aa313","null","","null","","","","","","","","./tasks/HMM-beads/Images/WhiteBeadChoiceWrong.png","","","","","","","","","",""
"image-keyboard-response","316","361886","0.0-3.0-6.0-1.0-0.60","5c45370eb00b3300018f9cd1","6662009ae78f21dd82fcd179","66620f1b406b34651e8aa313","339","","j","","","","","","","","./tasks/HMM-beads/Images/NewTrialBC.png","lowH","1","60","1","1","0","1","true","",""
"image-keyboard-response","317","362202","0.0-3.0-6.0-1.0-1.60","5c45370eb00b3300018f9cd1","6662009ae78f21dd82fcd179","66620f1b406b34651e8aa313","null","","null","","","","","","","","./tasks/HMM-beads/Images/WhiteBeadChoice.png","","","","","","","","","",""
"image-keyboard-response","318","362712","0.0-3.0-6.0-1.0-2.60","5c45370eb00b3300018f9cd1","6662009ae78f21dd82fcd179","66620f1b406b34651e8aa313","null","","null","","","","","","","","./tasks/HMM-beads/Images/WhiteBeadChoiceCorrect.png","","","","","","","","","",""
"image-keyboard-response","319","363030","0.0-3.0-6.0-1.0-0.61","5c45370eb00b3300018f9cd1","6662009ae78f21dd82fcd179","66620f1b406b34651e8aa313","313","","j","","","","","","","","./tasks/HMM-beads/Images/NewTrialWC.png","lowH","1","61","1","1","1","1","true","",""
"image-keyboard-response","320","363337","0.0-3.0-6.0-1.0-1.61","5c45370eb00b3300018f9cd1","6662009ae78f21dd82fcd179","66620f1b406b34651e8aa313","null","","null","","","","","","","","./tasks/HMM-beads/Images/WhiteBeadChoice.png","","","","","","","","","",""
"image-keyboard-response","321","363842","0.0-3.0-6.0-1.0-2.61","5c45370eb00b3300018f9cd1","6662009ae78f21dd82fcd179","66620f1b406b34651e8aa313","null","","null","","","","","","","","./tasks/HMM-beads/Images/WhiteBeadChoiceCorrect.png","","","","","","","","","",""
"image-keyboard-response","322","364206","0.0-3.0-6.0-1.0-0.62","5c45370eb00b3300018f9cd1","6662009ae78f21dd82fcd179","66620f1b406b34651e8aa313","358","","j","","","","","","","","./tasks/HMM-beads/Images/NewTrialWC.png","lowH","1","62","1","0","1","1","false","",""
"image-keyboard-response","323","364527","0.0-3.0-6.0-1.0-1.62","5c45370eb00b3300018f9cd1","6662009ae78f21dd82fcd179","66620f1b406b34651e8aa313","null","","null","","","","","","","","./tasks/HMM-beads/Images/WhiteBeadChoice.png","","","","","","","","","",""
"image-keyboard-response","324","365047","0.0-3.0-6.0-1.0-2.62","5c45370eb00b3300018f9cd1","6662009ae78f21dd82fcd179","66620f1b406b34651e8aa313","null","","null","","","","","","","","./tasks/HMM-beads/Images/WhiteBeadChoiceWrong.png","","","","","","","","","",""
"image-keyboard-response","325","365373","0.0-3.0-6.0-1.0-0.63","5c45370eb00b3300018f9cd1","6662009ae78f21dd82fcd179","66620f1b406b34651e8aa313","321","","j","","","","","","","","./tasks/HMM-beads/Images/NewTrialBC.png","lowH","1","63","1","1","0","1","true","",""
"image-keyboard-response","326","365692","0.0-3.0-6.0-1.0-1.63","5c45370eb00b3300018f9cd1","6662009ae78f21dd82fcd179","66620f1b406b34651e8aa313","null","","null","","","","","","","","./tasks/HMM-beads/Images/WhiteBeadChoice.png","","","","","","","","","",""
"image-keyboard-response","327","366202","0.0-3.0-6.0-1.0-2.63","5c45370eb00b3300018f9cd1","6662009ae78f21dd82fcd179","66620f1b406b34651e8aa313","null","","null","","","","","","","","./tasks/HMM-beads/Images/WhiteBeadChoiceCorrect.png","","","","","","","","","",""
"image-keyboard-response","328","366550","0.0-3.0-6.0-1.0-0.64","5c45370eb00b3300018f9cd1","6662009ae78f21dd82fcd179","66620f1b406b34651e8aa313","343","","j","","","","","","","","./tasks/HMM-beads/Images/NewTrialWC.png","lowH","1","64","1","1","1","1","true","",""
"image-keyboard-response","329","366872","0.0-3.0-6.0-1.0-1.64","5c45370eb00b3300018f9cd1","6662009ae78f21dd82fcd179","66620f1b406b34651e8aa313","null","","null","","","","","","","","./tasks/HMM-beads/Images/WhiteBeadChoice.png","","","","","","","","","",""
"image-keyboard-response","330","367391","0.0-3.0-6.0-1.0-2.64","5c45370eb00b3300018f9cd1","6662009ae78f21dd82fcd179","66620f1b406b34651e8aa313","null","","null","","","","","","","","./tasks/HMM-beads/Images/WhiteBeadChoiceCorrect.png","","","","","","","","","",""
"image-keyboard-response","331","367733","0.0-3.0-6.0-1.0-0.65","5c45370eb00b3300018f9cd1","6662009ae78f21dd82fcd179","66620f1b406b34651e8aa313","339","","j","","","","","","","","./tasks/HMM-beads/Images/NewTrialWC.png","lowH","1","65","1","1","1","1","true","",""
"image-keyboard-response","332","368042","0.0-3.0-6.0-1.0-1.65","5c45370eb00b3300018f9cd1","6662009ae78f21dd82fcd179","66620f1b406b34651e8aa313","null","","null","","","","","","","","./tasks/HMM-beads/Images/WhiteBeadChoice.png","","","","","","","","","",""
"image-keyboard-response","333","368562","0.0-3.0-6.0-1.0-2.65","5c45370eb00b3300018f9cd1","6662009ae78f21dd82fcd179","66620f1b406b34651e8aa313","null","","null","","","","","","","","./tasks/HMM-beads/Images/WhiteBeadChoiceCorrect.png","","","","","","","","","",""
"image-keyboard-response","334","368893","0.0-3.0-6.0-1.0-0.66","5c45370eb00b3300018f9cd1","6662009ae78f21dd82fcd179","66620f1b406b34651e8aa313","329","","j","","","","","","","","./tasks/HMM-beads/Images/NewTrialWC.png","lowH","1","66","1","1","1","1","true","",""
"image-keyboard-response","335","369201","0.0-3.0-6.0-1.0-1.66","5c45370eb00b3300018f9cd1","6662009ae78f21dd82fcd179","66620f1b406b34651e8aa313","null","","null","","","","","","","","./tasks/HMM-beads/Images/WhiteBeadChoice.png","","","","","","","","","",""
"image-keyboard-response","336","369712","0.0-3.0-6.0-1.0-2.66","5c45370eb00b3300018f9cd1","6662009ae78f21dd82fcd179","66620f1b406b34651e8aa313","null","","null","","","","","","","","./tasks/HMM-beads/Images/WhiteBeadChoiceCorrect.png","","","","","","","","","",""
"image-keyboard-response","337","370055","0.0-3.0-6.0-1.0-0.67","5c45370eb00b3300018f9cd1","6662009ae78f21dd82fcd179","66620f1b406b34651e8aa313","338","","j","","","","","","","","./tasks/HMM-beads/Images/NewTrialWC.png","lowH","1","67","1","0","1","1","false","",""
"image-keyboard-response","338","370362","0.0-3.0-6.0-1.0-1.67","5c45370eb00b3300018f9cd1","6662009ae78f21dd82fcd179","66620f1b406b34651e8aa313","null","","null","","","","","","","","./tasks/HMM-beads/Images/WhiteBeadChoice.png","","","","","","","","","",""
"image-keyboard-response","339","370872","0.0-3.0-6.0-1.0-2.67","5c45370eb00b3300018f9cd1","6662009ae78f21dd82fcd179","66620f1b406b34651e8aa313","null","","null","","","","","","","","./tasks/HMM-beads/Images/WhiteBeadChoiceWrong.png","","","","","","","","","",""
"image-keyboard-response","340","371366","0.0-3.0-6.0-1.0-0.68","5c45370eb00b3300018f9cd1","6662009ae78f21dd82fcd179","66620f1b406b34651e8aa313","489","","j","","","","","","","","./tasks/HMM-beads/Images/NewTrialBC.png","lowH","1","68","1","1","0","1","true","",""
"image-keyboard-response","341","371672","0.0-3.0-6.0-1.0-1.68","5c45370eb00b3300018f9cd1","6662009ae78f21dd82fcd179","66620f1b406b34651e8aa313","null","","null","","","","","","","","./tasks/HMM-beads/Images/WhiteBeadChoice.png","","","","","","","","","",""
"image-keyboard-response","342","372182","0.0-3.0-6.0-1.0-2.68","5c45370eb00b3300018f9cd1","6662009ae78f21dd82fcd179","66620f1b406b34651e8aa313","null","","null","","","","","","","","./tasks/HMM-beads/Images/WhiteBeadChoiceCorrect.png","","","","","","","","","",""
"image-keyboard-response","343","372534","0.0-3.0-6.0-1.0-0.69","5c45370eb00b3300018f9cd1","6662009ae78f21dd82fcd179","66620f1b406b34651e8aa313","347","","j","","","","","","","","./tasks/HMM-beads/Images/NewTrialWC.png","lowH","1","69","0","1","1","1","true","",""
"image-keyboard-response","344","372848","0.0-3.0-6.0-1.0-1.69","5c45370eb00b3300018f9cd1","6662009ae78f21dd82fcd179","66620f1b406b34651e8aa313","null","","null","","","","","","","","./tasks/HMM-beads/Images/WhiteBeadChoice.png","","","","","","","","","",""
"image-keyboard-response","345","373372","0.0-3.0-6.0-1.0-2.69","5c45370eb00b3300018f9cd1","6662009ae78f21dd82fcd179","66620f1b406b34651e8aa313","null","","null","","","","","","","","./tasks/HMM-beads/Images/WhiteBeadChoiceCorrect.png","","","","","","","","","",""
"image-keyboard-response","346","373694","0.0-3.0-6.0-1.0-0.70","5c45370eb00b3300018f9cd1","6662009ae78f21dd82fcd179","66620f1b406b34651e8aa313","318","","j","","","","","","","","./tasks/HMM-beads/Images/NewTrialWC.png","lowH","1","70","0","1","1","1","true","",""
"image-keyboard-response","347","374001","0.0-3.0-6.0-1.0-1.70","5c45370eb00b3300018f9cd1","6662009ae78f21dd82fcd179","66620f1b406b34651e8aa313","null","","null","","","","","","","","./tasks/HMM-beads/Images/WhiteBeadChoice.png","","","","","","","","","",""
"image-keyboard-response","348","374522","0.0-3.0-6.0-1.0-2.70","5c45370eb00b3300018f9cd1","6662009ae78f21dd82fcd179","66620f1b406b34651e8aa313","null","","null","","","","","","","","./tasks/HMM-beads/Images/WhiteBeadChoiceCorrect.png","","","","","","","","","",""
"image-keyboard-response","349","375006","0.0-3.0-6.0-1.0-0.71","5c45370eb00b3300018f9cd1","6662009ae78f21dd82fcd179","66620f1b406b34651e8aa313","479","","j","","","","","","","","./tasks/HMM-beads/Images/NewTrialWC.png","lowH","1","71","0","0","1","1","false","",""
"image-keyboard-response","350","375322","0.0-3.0-6.0-1.0-1.71","5c45370eb00b3300018f9cd1","6662009ae78f21dd82fcd179","66620f1b406b34651e8aa313","null","","null","","","","","","","","./tasks/HMM-beads/Images/WhiteBeadChoice.png","","","","","","","","","",""
"image-keyboard-response","351","375832","0.0-3.0-6.0-1.0-2.71","5c45370eb00b3300018f9cd1","6662009ae78f21dd82fcd179","66620f1b406b34651e8aa313","null","","null","","","","","","","","./tasks/HMM-beads/Images/WhiteBeadChoiceWrong.png","","","","","","","","","",""
"image-keyboard-response","352","376606","0.0-3.0-6.0-1.0-0.72","5c45370eb00b3300018f9cd1","6662009ae78f21dd82fcd179","66620f1b406b34651e8aa313","767","","j","","","","","","","","./tasks/HMM-beads/Images/NewTrialBC.png","lowH","1","72","0","0","0","1","false","",""
"image-keyboard-response","353","376952","0.0-3.0-6.0-1.0-1.72","5c45370eb00b3300018f9cd1","6662009ae78f21dd82fcd179","66620f1b406b34651e8aa313","null","","null","","","","","","","","./tasks/HMM-beads/Images/WhiteBeadChoice.png","","","","","","","","","",""
"image-keyboard-response","354","377472","0.0-3.0-6.0-1.0-2.72","5c45370eb00b3300018f9cd1","6662009ae78f21dd82fcd179","66620f1b406b34651e8aa313","null","","null","","","","","","","","./tasks/HMM-beads/Images/WhiteBeadChoiceWrong.png","","","","","","","","","",""
"image-keyboard-response","355","378037","0.0-3.0-6.0-1.0-0.73","5c45370eb00b3300018f9cd1","6662009ae78f21dd82fcd179","66620f1b406b34651e8aa313","560","","j","","","","","","","","./tasks/HMM-beads/Images/NewTrialBC.png","lowH","1","73","0","1","0","1","true","",""
"image-keyboard-response","356","378352","0.0-3.0-6.0-1.0-1.73","5c45370eb00b3300018f9cd1","6662009ae78f21dd82fcd179","66620f1b406b34651e8aa313","null","","null","","","","","","","","./tasks/HMM-beads/Images/WhiteBeadChoice.png","","","","","","","","","",""
"image-keyboard-response","357","378872","0.0-3.0-6.0-1.0-2.73","5c45370eb00b3300018f9cd1","6662009ae78f21dd82fcd179","66620f1b406b34651e8aa313","null","","null","","","","","","","","./tasks/HMM-beads/Images/WhiteBeadChoiceCorrect.png","","","","","","","","","",""
"image-keyboard-response","358","379366","0.0-3.0-6.0-1.0-0.74","5c45370eb00b3300018f9cd1","6662009ae78f21dd82fcd179","66620f1b406b34651e8aa313","489","","j","","","","","","","","./tasks/HMM-beads/Images/NewTrialWC.png","lowH","1","74","0","0","1","1","false","",""
"image-keyboard-response","359","379672","0.0-3.0-6.0-1.0-1.74","5c45370eb00b3300018f9cd1","6662009ae78f21dd82fcd179","66620f1b406b34651e8aa313","null","","null","","","","","","","","./tasks/HMM-beads/Images/WhiteBeadChoice.png","","","","","","","","","",""
"image-keyboard-response","360","380182","0.0-3.0-6.0-1.0-2.74","5c45370eb00b3300018f9cd1","6662009ae78f21dd82fcd179","66620f1b406b34651e8aa313","null","","null","","","","","","","","./tasks/HMM-beads/Images/WhiteBeadChoiceWrong.png","","","","","","","","","",""
"image-keyboard-response","361","380485","0.0-3.0-6.0-1.0-0.75","5c45370eb00b3300018f9cd1","6662009ae78f21dd82fcd179","66620f1b406b34651e8aa313","300","","j","","","","","","","","./tasks/HMM-beads/Images/NewTrialBC.png","lowH","1","75","0","1","0","1","true","",""
"image-keyboard-response","362","380802","0.0-3.0-6.0-1.0-1.75","5c45370eb00b3300018f9cd1","6662009ae78f21dd82fcd179","66620f1b406b34651e8aa313","null","","null","","","","","","","","./tasks/HMM-beads/Images/WhiteBeadChoice.png","","","","","","","","","",""
"image-keyboard-response","363","381312","0.0-3.0-6.0-1.0-2.75","5c45370eb00b3300018f9cd1","6662009ae78f21dd82fcd179","66620f1b406b34651e8aa313","null","","null","","","","","","","","./tasks/HMM-beads/Images/WhiteBeadChoiceCorrect.png","","","","","","","","","",""
"image-keyboard-response","364","381773","0.0-3.0-6.0-1.0-0.76","5c45370eb00b3300018f9cd1","6662009ae78f21dd82fcd179","66620f1b406b34651e8aa313","456","","j","","","","","","","","./tasks/HMM-beads/Images/NewTrialWC.png","lowH","1","76","0","1","1","1","true","",""
"image-keyboard-response","365","382092","0.0-3.0-6.0-1.0-1.76","5c45370eb00b3300018f9cd1","6662009ae78f21dd82fcd179","66620f1b406b34651e8aa313","null","","null","","","","","","","","./tasks/HMM-beads/Images/WhiteBeadChoice.png","","","","","","","","","",""
"image-keyboard-response","366","382602","0.0-3.0-6.0-1.0-2.76","5c45370eb00b3300018f9cd1","6662009ae78f21dd82fcd179","66620f1b406b34651e8aa313","null","","null","","","","","","","","./tasks/HMM-beads/Images/WhiteBeadChoiceCorrect.png","","","","","","","","","",""
"image-keyboard-response","367","382861","0.0-3.0-6.0-1.0-0.77","5c45370eb00b3300018f9cd1","6662009ae78f21dd82fcd179","66620f1b406b34651e8aa313","257","","j","","","","","","","","./tasks/HMM-beads/Images/NewTrialWC.png","lowH","1","77","0","0","1","1","false","",""
"image-keyboard-response","368","383177","0.0-3.0-6.0-1.0-1.77","5c45370eb00b3300018f9cd1","6662009ae78f21dd82fcd179","66620f1b406b34651e8aa313","null","","null","","","","","","","","./tasks/HMM-beads/Images/WhiteBeadChoice.png","","","","","","","","","",""
"image-keyboard-response","369","383692","0.0-3.0-6.0-1.0-2.77","5c45370eb00b3300018f9cd1","6662009ae78f21dd82fcd179","66620f1b406b34651e8aa313","null","","null","","","","","","","","./tasks/HMM-beads/Images/WhiteBeadChoiceWrong.png","","","","","","","","","",""
"image-keyboard-response","370","384093","0.0-3.0-6.0-1.0-0.78","5c45370eb00b3300018f9cd1","6662009ae78f21dd82fcd179","66620f1b406b34651e8aa313","400","","j","","","","","","","","./tasks/HMM-beads/Images/NewTrialBC.png","lowH","1","78","0","0","0","1","false","",""
"image-keyboard-response","371","384397","0.0-3.0-6.0-1.0-1.78","5c45370eb00b3300018f9cd1","6662009ae78f21dd82fcd179","66620f1b406b34651e8aa313","null","","null","","","","","","","","./tasks/HMM-beads/Images/WhiteBeadChoice.png","","","","","","","","","",""
"image-keyboard-response","372","384901","0.0-3.0-6.0-1.0-2.78","5c45370eb00b3300018f9cd1","6662009ae78f21dd82fcd179","66620f1b406b34651e8aa313","null","","null","","","","","","","","./tasks/HMM-beads/Images/WhiteBeadChoiceWrong.png","","","","","","","","","",""
