"trial_type","trial_index","time_elapsed","internal_node_id","subject_id","study_id","session_id","rt","url","response","question_order","view_history","success","timeout","failed_images","failed_audio","failed_video","stimulus","block","block_rep","trial_number","jar","bead","previous_bead","choice","correct","lowH_score","total_bonus"
"pavlovia","0","1303","0.0-0.0","612bbb31165932bda554443a","6662009ae78f21dd82fcd179","6662180a890b0cd3c56323fe","","","","","","","","","","","","","","","","","","","","",""
"external-html","1","12662","0.0-1.0-0.0","612bbb31165932bda554443a","6662009ae78f21dd82fcd179","6662180a890b0cd3c56323fe","11224","new_consent.html","","","","","","","","","","","","","","","","","","",""
"survey-multi-choice","2","18170","0.0-1.0-1.0","612bbb31165932bda554443a","6662009ae78f21dd82fcd179","6662180a890b0cd3c56323fe","5506","","{""Q0"":""Female"",""Q1"":""White""}","[0,1]","","","","","","","","","","","","","","","","",""
"survey-text","3","21495","0.0-1.0-2.0","612bbb31165932bda554443a","6662009ae78f21dd82fcd179","6662180a890b0cd3c56323fe","3321","","{""Q0"":""21""}","","","","","","","","","","","","","","","","","",""
"instructions","4","23246","0.0-2.0","612bbb31165932bda554443a","6662009ae78f21dd82fcd179","6662180a890b0cd3c56323fe","1636","","","","[{""page_index"":0,""viewing_time"":1635}]","","","","","","","","","","","","","","","",""
"preload","5","24599","0.0-3.0-0.0","612bbb31165932bda554443a","6662009ae78f21dd82fcd179","6662180a890b0cd3c56323fe","","","","","","true","false","[]","[]","[]","","","","","","","","","","",""
"instructions","6","104612","0.0-3.0-1.0","612bbb31165932bda554443a","6662009ae78f21dd82fcd179","6662180a890b0cd3c56323fe","80012","","","","[{""page_index"":0,""viewing_time"":25409},{""page_index"":1,""viewing_time"":3559},{""page_index"":2,""viewing_time"":3225},{""page_index"":3,""viewing_time"":1652},{""page_index"":4,""viewing_time"":4432},{""page_index"":5,""viewing_time"":12935},{""page_index"":6,""viewing_time"":4648},{""page_index"":7,""viewing_time"":3547},{""page_index"":8,""viewing_time"":2363},{""page_index"":9,""viewing_time"":8297},{""page_index"":10,""viewing_time"":8195},{""page_index"":11,""viewing_time"":1750}]","","","","","","","","","","","","","","","",""
"html-button-response","7","108073","0.0-3.0-2.0-0.0-0.0","612bbb31165932bda554443a","6662009ae78f21dd82fcd179","6662180a890b0cd3c56323fe","3459","","1","","","","","","","","<div align=center>Your goal is to predict…?<br><br></div>","","","","","","","","","",""
"html-button-response","8","112911","0.0-3.0-2.0-1.0-0.0","612bbb31165932bda554443a","6662009ae78f21dd82fcd179","6662180a890b0cd3c56323fe","3007","","2","","","","","","","","<div align=center>In the jar with mostly white beads, there are ___% white beads and ___% black beads?<br><br></div>","","","","","","","","","",""
"html-button-response","9","117708","0.0-3.0-2.0-2.0-0.0","612bbb31165932bda554443a","6662009ae78f21dd82fcd179","6662180a890b0cd3c56323fe","3699","","0","","","","","","","","<div align=center>When there is a 1% probability that the jars will switch, the next bead will most likely be drawn from the…<br><br></div>","","","","","","","","","",""
"html-button-response","10","123182","0.0-3.0-2.0-3.0-0.0","612bbb31165932bda554443a","6662009ae78f21dd82fcd179","6662180a890b0cd3c56323fe","4213","","1","","","","","","","","<div align=center>When there is a 99% probability that the jars will switch, the next bead will most likely be drawn from the…<br><br></div>","","","","","","","","","",""
"instructions","11","126752","0.0-3.0-3.0","612bbb31165932bda554443a","6662009ae78f21dd82fcd179","6662180a890b0cd3c56323fe","2433","","","","[{""page_index"":0,""viewing_time"":2432}]","","","","","","","","","","","","","","","",""
"html-keyboard-response","12","131425","0.0-3.0-4.0-0.0","612bbb31165932bda554443a","6662009ae78f21dd82fcd179","6662180a890b0cd3c56323fe","4672",""," ","","","","","","","","<div align=center>In this practice block, there will be a <b>1% chance</b> that the jar on the next trial will be different from the jar on the current trial.<br><br></div>","","","","","","","","","",""
"image-keyboard-response","13","136904","0.0-3.0-4.0-1.0-0.0","612bbb31165932bda554443a","6662009ae78f21dd82fcd179","6662180a890b0cd3c56323fe","5475","","f","","","","","","","","./tasks/HMM-beads/Images/NoChoice.png","practice","0","0","0","0","9","0","true","",""
"image-keyboard-response","14","137210","0.0-3.0-4.0-1.0-1.0","612bbb31165932bda554443a","6662009ae78f21dd82fcd179","6662180a890b0cd3c56323fe","null","","null","","","","","","","","./tasks/HMM-beads/Images/BlackBeadChoice.png","","","","","","","","","",""
"image-keyboard-response","15","137727","0.0-3.0-4.0-1.0-2.0","612bbb31165932bda554443a","6662009ae78f21dd82fcd179","6662180a890b0cd3c56323fe","null","","null","","","","","","","","./tasks/HMM-beads/Images/BlackBeadChoiceCorrect.png","","","","","","","","","",""
"image-keyboard-response","16","139380","0.0-3.0-4.0-1.0-0.1","612bbb31165932bda554443a","6662009ae78f21dd82fcd179","6662180a890b0cd3c56323fe","1651","","f","","","","","","","","./tasks/HMM-beads/Images/NewTrialBC.png","practice","0","1","0","0","0","0","true","",""
"image-keyboard-response","17","139698","0.0-3.0-4.0-1.0-1.1","612bbb31165932bda554443a","6662009ae78f21dd82fcd179","6662180a890b0cd3c56323fe","null","","null","","","","","","","","./tasks/HMM-beads/Images/BlackBeadChoice.png","","","","","","","","","",""
"image-keyboard-response","18","140210","0.0-3.0-4.0-1.0-2.1","612bbb31165932bda554443a","6662009ae78f21dd82fcd179","6662180a890b0cd3c56323fe","null","","null","","","","","","","","./tasks/HMM-beads/Images/BlackBeadChoiceCorrect.png","","","","","","","","","",""
"image-keyboard-response","19","141873","0.0-3.0-4.0-1.0-0.2","612bbb31165932bda554443a","6662009ae78f21dd82fcd179","6662180a890b0cd3c56323fe","1662","","f","","","","","","","","./tasks/HMM-beads/Images/NewTrialBC.png","practice","0","2","0","1","0","0","false","",""
"image-keyboard-response","20","142189","0.0-3.0-4.0-1.0-1.2","612bbb31165932bda554443a","6662009ae78f21dd82fcd179","6662180a890b0cd3c56323fe","null","","null","","","","","","","","./tasks/HMM-beads/Images/BlackBeadChoice.png","","","","","","","","","",""
"image-keyboard-response","21","142702","0.0-3.0-4.0-1.0-2.2","612bbb31165932bda554443a","6662009ae78f21dd82fcd179","6662180a890b0cd3c56323fe","null","","null","","","","","","","","./tasks/HMM-beads/Images/BlackBeadChoiceWrong.png","","","","","","","","","",""
"image-keyboard-response","22","143849","0.0-3.0-4.0-1.0-0.3","612bbb31165932bda554443a","6662009ae78f21dd82fcd179","6662180a890b0cd3c56323fe","1145","","f","","","","","","","","./tasks/HMM-beads/Images/NewTrialWC.png","practice","0","3","0","0","1","0","true","",""
"image-keyboard-response","23","144156","0.0-3.0-4.0-1.0-1.3","612bbb31165932bda554443a","6662009ae78f21dd82fcd179","6662180a890b0cd3c56323fe","null","","null","","","","","","","","./tasks/HMM-beads/Images/BlackBeadChoice.png","","","","","","","","","",""
"image-keyboard-response","24","144659","0.0-3.0-4.0-1.0-2.3","612bbb31165932bda554443a","6662009ae78f21dd82fcd179","6662180a890b0cd3c56323fe","null","","null","","","","","","","","./tasks/HMM-beads/Images/BlackBeadChoiceCorrect.png","","","","","","","","","",""
"image-keyboard-response","25","147983","0.0-3.0-4.0-1.0-0.4","612bbb31165932bda554443a","6662009ae78f21dd82fcd179","6662180a890b0cd3c56323fe","3322","","f","","","","","","","","./tasks/HMM-beads/Images/NewTrialBC.png","practice","0","4","0","0","0","0","true","",""
"image-keyboard-response","26","148288","0.0-3.0-4.0-1.0-1.4","612bbb31165932bda554443a","6662009ae78f21dd82fcd179","6662180a890b0cd3c56323fe","null","","null","","","","","","","","./tasks/HMM-beads/Images/BlackBeadChoice.png","","","","","","","","","",""
"image-keyboard-response","27","148801","0.0-3.0-4.0-1.0-2.4","612bbb31165932bda554443a","6662009ae78f21dd82fcd179","6662180a890b0cd3c56323fe","null","","null","","","","","","","","./tasks/HMM-beads/Images/BlackBeadChoiceCorrect.png","","","","","","","","","",""
"image-keyboard-response","28","151780","0.0-3.0-4.0-1.0-0.5","612bbb31165932bda554443a","6662009ae78f21dd82fcd179","6662180a890b0cd3c56323fe","2978","","f","","","","","","","","./tasks/HMM-beads/Images/NewTrialBC.png","practice","0","5","0","1","0","0","false","",""
"image-keyboard-response","29","152089","0.0-3.0-4.0-1.0-1.5","612bbb31165932bda554443a","6662009ae78f21dd82fcd179","6662180a890b0cd3c56323fe","null","","null","","","","","","","","./tasks/HMM-beads/Images/BlackBeadChoice.png","","","","","","","","","",""
"image-keyboard-response","30","152608","0.0-3.0-4.0-1.0-2.5","612bbb31165932bda554443a","6662009ae78f21dd82fcd179","6662180a890b0cd3c56323fe","null","","null","","","","","","","","./tasks/HMM-beads/Images/BlackBeadChoiceWrong.png","","","","","","","","","",""
"image-keyboard-response","31","153631","0.0-3.0-4.0-1.0-0.6","612bbb31165932bda554443a","6662009ae78f21dd82fcd179","6662180a890b0cd3c56323fe","1021","","f","","","","","","","","./tasks/HMM-beads/Images/NewTrialWC.png","practice","0","6","0","0","1","0","true","",""
"image-keyboard-response","32","153939","0.0-3.0-4.0-1.0-1.6","612bbb31165932bda554443a","6662009ae78f21dd82fcd179","6662180a890b0cd3c56323fe","null","","null","","","","","","","","./tasks/HMM-beads/Images/BlackBeadChoice.png","","","","","","","","","",""
"image-keyboard-response","33","154449","0.0-3.0-4.0-1.0-2.6","612bbb31165932bda554443a","6662009ae78f21dd82fcd179","6662180a890b0cd3c56323fe","null","","null","","","","","","","","./tasks/HMM-beads/Images/BlackBeadChoiceCorrect.png","","","","","","","","","",""
"image-keyboard-response","34","155101","0.0-3.0-4.0-1.0-0.7","612bbb31165932bda554443a","6662009ae78f21dd82fcd179","6662180a890b0cd3c56323fe","650","","f","","","","","","","","./tasks/HMM-beads/Images/NewTrialBC.png","practice","0","7","0","0","0","0","true","",""
"image-keyboard-response","35","155412","0.0-3.0-4.0-1.0-1.7","612bbb31165932bda554443a","6662009ae78f21dd82fcd179","6662180a890b0cd3c56323fe","null","","null","","","","","","","","./tasks/HMM-beads/Images/BlackBeadChoice.png","","","","","","","","","",""
"image-keyboard-response","36","155925","0.0-3.0-4.0-1.0-2.7","612bbb31165932bda554443a","6662009ae78f21dd82fcd179","6662180a890b0cd3c56323fe","null","","null","","","","","","","","./tasks/HMM-beads/Images/BlackBeadChoiceCorrect.png","","","","","","","","","",""
"image-keyboard-response","37","156296","0.0-3.0-4.0-1.0-0.8","612bbb31165932bda554443a","6662009ae78f21dd82fcd179","6662180a890b0cd3c56323fe","369","","j","","","","","","","","./tasks/HMM-beads/Images/NewTrialBC.png","practice","0","8","0","0","0","1","false","",""
"image-keyboard-response","38","156606","0.0-3.0-4.0-1.0-1.8","612bbb31165932bda554443a","6662009ae78f21dd82fcd179","6662180a890b0cd3c56323fe","null","","null","","","","","","","","./tasks/HMM-beads/Images/WhiteBeadChoice.png","","","","","","","","","",""
"image-keyboard-response","39","157109","0.0-3.0-4.0-1.0-2.8","612bbb31165932bda554443a","6662009ae78f21dd82fcd179","6662180a890b0cd3c56323fe","null","","null","","","","","","","","./tasks/HMM-beads/Images/WhiteBeadChoiceWrong.png","","","","","","","","","",""
"image-keyboard-response","40","157844","0.0-3.0-4.0-1.0-0.9","612bbb31165932bda554443a","6662009ae78f21dd82fcd179","6662180a890b0cd3c56323fe","733","","f","","","","","","","","./tasks/HMM-beads/Images/NewTrialBC.png","practice","0","9","0","1","0","0","false","",""
"image-keyboard-response","41","158146","0.0-3.0-4.0-1.0-1.9","612bbb31165932bda554443a","6662009ae78f21dd82fcd179","6662180a890b0cd3c56323fe","null","","null","","","","","","","","./tasks/HMM-beads/Images/BlackBeadChoice.png","","","","","","","","","",""
"image-keyboard-response","42","158660","0.0-3.0-4.0-1.0-2.9","612bbb31165932bda554443a","6662009ae78f21dd82fcd179","6662180a890b0cd3c56323fe","null","","null","","","","","","","","./tasks/HMM-beads/Images/BlackBeadChoiceWrong.png","","","","","","","","","",""
"image-keyboard-response","43","160431","0.0-3.0-4.0-1.0-0.10","612bbb31165932bda554443a","6662009ae78f21dd82fcd179","6662180a890b0cd3c56323fe","1767","","f","","","","","","","","./tasks/HMM-beads/Images/NewTrialWC.png","practice","0","10","0","0","1","0","true","",""
"image-keyboard-response","44","160745","0.0-3.0-4.0-1.0-1.10","612bbb31165932bda554443a","6662009ae78f21dd82fcd179","6662180a890b0cd3c56323fe","null","","null","","","","","","","","./tasks/HMM-beads/Images/BlackBeadChoice.png","","","","","","","","","",""
"image-keyboard-response","45","161259","0.0-3.0-4.0-1.0-2.10","612bbb31165932bda554443a","6662009ae78f21dd82fcd179","6662180a890b0cd3c56323fe","null","","null","","","","","","","","./tasks/HMM-beads/Images/BlackBeadChoiceCorrect.png","","","","","","","","","",""
"image-keyboard-response","46","161830","0.0-3.0-4.0-1.0-0.11","612bbb31165932bda554443a","6662009ae78f21dd82fcd179","6662180a890b0cd3c56323fe","569","","f","","","","","","","","./tasks/HMM-beads/Images/NewTrialBC.png","practice","0","11","0","1","0","0","false","",""
"image-keyboard-response","47","162138","0.0-3.0-4.0-1.0-1.11","612bbb31165932bda554443a","6662009ae78f21dd82fcd179","6662180a890b0cd3c56323fe","null","","null","","","","","","","","./tasks/HMM-beads/Images/BlackBeadChoice.png","","","","","","","","","",""
"image-keyboard-response","48","162641","0.0-3.0-4.0-1.0-2.11","612bbb31165932bda554443a","6662009ae78f21dd82fcd179","6662180a890b0cd3c56323fe","null","","null","","","","","","","","./tasks/HMM-beads/Images/BlackBeadChoiceWrong.png","","","","","","","","","",""
"image-keyboard-response","49","163584","0.0-3.0-4.0-1.0-0.12","612bbb31165932bda554443a","6662009ae78f21dd82fcd179","6662180a890b0cd3c56323fe","941","","f","","","","","","","","./tasks/HMM-beads/Images/NewTrialWC.png","practice","0","12","0","0","1","0","true","",""
"image-keyboard-response","50","163888","0.0-3.0-4.0-1.0-1.12","612bbb31165932bda554443a","6662009ae78f21dd82fcd179","6662180a890b0cd3c56323fe","null","","null","","","","","","","","./tasks/HMM-beads/Images/BlackBeadChoice.png","","","","","","","","","",""
"image-keyboard-response","51","164391","0.0-3.0-4.0-1.0-2.12","612bbb31165932bda554443a","6662009ae78f21dd82fcd179","6662180a890b0cd3c56323fe","null","","null","","","","","","","","./tasks/HMM-beads/Images/BlackBeadChoiceCorrect.png","","","","","","","","","",""
"image-keyboard-response","52","165081","0.0-3.0-4.0-1.0-0.13","612bbb31165932bda554443a","6662009ae78f21dd82fcd179","6662180a890b0cd3c56323fe","689","","f","","","","","","","","./tasks/HMM-beads/Images/NewTrialBC.png","practice","0","13","0","0","0","0","true","",""
"image-keyboard-response","53","165388","0.0-3.0-4.0-1.0-1.13","612bbb31165932bda554443a","6662009ae78f21dd82fcd179","6662180a890b0cd3c56323fe","null","","null","","","","","","","","./tasks/HMM-beads/Images/BlackBeadChoice.png","","","","","","","","","",""
"image-keyboard-response","54","165891","0.0-3.0-4.0-1.0-2.13","612bbb31165932bda554443a","6662009ae78f21dd82fcd179","6662180a890b0cd3c56323fe","null","","null","","","","","","","","./tasks/HMM-beads/Images/BlackBeadChoiceCorrect.png","","","","","","","","","",""
"image-keyboard-response","55","166345","0.0-3.0-4.0-1.0-0.14","612bbb31165932bda554443a","6662009ae78f21dd82fcd179","6662180a890b0cd3c56323fe","452","","f","","","","","","","","./tasks/HMM-beads/Images/NewTrialBC.png","practice","0","14","0","0","0","0","true","",""
"image-keyboard-response","56","166671","0.0-3.0-4.0-1.0-1.14","612bbb31165932bda554443a","6662009ae78f21dd82fcd179","6662180a890b0cd3c56323fe","null","","null","","","","","","","","./tasks/HMM-beads/Images/BlackBeadChoice.png","","","","","","","","","",""
"image-keyboard-response","57","167182","0.0-3.0-4.0-1.0-2.14","612bbb31165932bda554443a","6662009ae78f21dd82fcd179","6662180a890b0cd3c56323fe","null","","null","","","","","","","","./tasks/HMM-beads/Images/BlackBeadChoiceCorrect.png","","","","","","","","","",""
"image-keyboard-response","58","167823","0.0-3.0-4.0-1.0-0.15","612bbb31165932bda554443a","6662009ae78f21dd82fcd179","6662180a890b0cd3c56323fe","639","","j","","","","","","","","./tasks/HMM-beads/Images/NewTrialBC.png","practice","0","15","0","0","0","1","false","",""
"image-keyboard-response","59","168137","0.0-3.0-4.0-1.0-1.15","612bbb31165932bda554443a","6662009ae78f21dd82fcd179","6662180a890b0cd3c56323fe","null","","null","","","","","","","","./tasks/HMM-beads/Images/WhiteBeadChoice.png","","","","","","","","","",""
"image-keyboard-response","60","168650","0.0-3.0-4.0-1.0-2.15","612bbb31165932bda554443a","6662009ae78f21dd82fcd179","6662180a890b0cd3c56323fe","null","","null","","","","","","","","./tasks/HMM-beads/Images/WhiteBeadChoiceWrong.png","","","","","","","","","",""
"image-keyboard-response","61","169269","0.0-3.0-4.0-1.0-0.16","612bbb31165932bda554443a","6662009ae78f21dd82fcd179","6662180a890b0cd3c56323fe","617","","j","","","","","","","","./tasks/HMM-beads/Images/NewTrialBC.png","practice","0","16","0","0","0","1","false","",""
"image-keyboard-response","62","169571","0.0-3.0-4.0-1.0-1.16","612bbb31165932bda554443a","6662009ae78f21dd82fcd179","6662180a890b0cd3c56323fe","null","","null","","","","","","","","./tasks/HMM-beads/Images/WhiteBeadChoice.png","","","","","","","","","",""
"image-keyboard-response","63","170082","0.0-3.0-4.0-1.0-2.16","612bbb31165932bda554443a","6662009ae78f21dd82fcd179","6662180a890b0cd3c56323fe","null","","null","","","","","","","","./tasks/HMM-beads/Images/WhiteBeadChoiceWrong.png","","","","","","","","","",""
"image-keyboard-response","64","170808","0.0-3.0-4.0-1.0-0.17","612bbb31165932bda554443a","6662009ae78f21dd82fcd179","6662180a890b0cd3c56323fe","723","","j","","","","","","","","./tasks/HMM-beads/Images/NewTrialBC.png","practice","0","17","0","0","0","1","false","",""
"image-keyboard-response","65","171121","0.0-3.0-4.0-1.0-1.17","612bbb31165932bda554443a","6662009ae78f21dd82fcd179","6662180a890b0cd3c56323fe","null","","null","","","","","","","","./tasks/HMM-beads/Images/WhiteBeadChoice.png","","","","","","","","","",""
"image-keyboard-response","66","171634","0.0-3.0-4.0-1.0-2.17","612bbb31165932bda554443a","6662009ae78f21dd82fcd179","6662180a890b0cd3c56323fe","null","","null","","","","","","","","./tasks/HMM-beads/Images/WhiteBeadChoiceWrong.png","","","","","","","","","",""
"image-keyboard-response","67","172284","0.0-3.0-4.0-1.0-0.18","612bbb31165932bda554443a","6662009ae78f21dd82fcd179","6662180a890b0cd3c56323fe","648","","j","","","","","","","","./tasks/HMM-beads/Images/NewTrialBC.png","practice","0","18","0","1","0","1","true","",""
"image-keyboard-response","68","172587","0.0-3.0-4.0-1.0-1.18","612bbb31165932bda554443a","6662009ae78f21dd82fcd179","6662180a890b0cd3c56323fe","null","","null","","","","","","","","./tasks/HMM-beads/Images/WhiteBeadChoice.png","","","","","","","","","",""
"image-keyboard-response","69","173108","0.0-3.0-4.0-1.0-2.18","612bbb31165932bda554443a","6662009ae78f21dd82fcd179","6662180a890b0cd3c56323fe","null","","null","","","","","","","","./tasks/HMM-beads/Images/WhiteBeadChoiceCorrect.png","","","","","","","","","",""
"image-keyboard-response","70","174022","0.0-3.0-4.0-1.0-0.19","612bbb31165932bda554443a","6662009ae78f21dd82fcd179","6662180a890b0cd3c56323fe","913","","f","","","","","","","","./tasks/HMM-beads/Images/NewTrialWC.png","practice","0","19","0","0","1","0","true","",""
"image-keyboard-response","71","174328","0.0-3.0-4.0-1.0-1.19","612bbb31165932bda554443a","6662009ae78f21dd82fcd179","6662180a890b0cd3c56323fe","null","","null","","","","","","","","./tasks/HMM-beads/Images/BlackBeadChoice.png","","","","","","","","","",""
"image-keyboard-response","72","174840","0.0-3.0-4.0-1.0-2.19","612bbb31165932bda554443a","6662009ae78f21dd82fcd179","6662180a890b0cd3c56323fe","null","","null","","","","","","","","./tasks/HMM-beads/Images/BlackBeadChoiceCorrect.png","","","","","","","","","",""
"image-keyboard-response","73","175399","0.0-3.0-4.0-1.0-0.20","612bbb31165932bda554443a","6662009ae78f21dd82fcd179","6662180a890b0cd3c56323fe","556","","f","","","","","","","","./tasks/HMM-beads/Images/NewTrialBC.png","practice","0","20","0","0","0","0","true","",""
"image-keyboard-response","74","175704","0.0-3.0-4.0-1.0-1.20","612bbb31165932bda554443a","6662009ae78f21dd82fcd179","6662180a890b0cd3c56323fe","null","","null","","","","","","","","./tasks/HMM-beads/Images/BlackBeadChoice.png","","","","","","","","","",""
"image-keyboard-response","75","176216","0.0-3.0-4.0-1.0-2.20","612bbb31165932bda554443a","6662009ae78f21dd82fcd179","6662180a890b0cd3c56323fe","null","","null","","","","","","","","./tasks/HMM-beads/Images/BlackBeadChoiceCorrect.png","","","","","","","","","",""
"image-keyboard-response","76","176969","0.0-3.0-4.0-1.0-0.21","612bbb31165932bda554443a","6662009ae78f21dd82fcd179","6662180a890b0cd3c56323fe","751","","f","","","","","","","","./tasks/HMM-beads/Images/NewTrialBC.png","practice","0","21","0","1","0","0","false","",""
"image-keyboard-response","77","177286","0.0-3.0-4.0-1.0-1.21","612bbb31165932bda554443a","6662009ae78f21dd82fcd179","6662180a890b0cd3c56323fe","null","","null","","","","","","","","./tasks/HMM-beads/Images/BlackBeadChoice.png","","","","","","","","","",""
"image-keyboard-response","78","177791","0.0-3.0-4.0-1.0-2.21","612bbb31165932bda554443a","6662009ae78f21dd82fcd179","6662180a890b0cd3c56323fe","null","","null","","","","","","","","./tasks/HMM-beads/Images/BlackBeadChoiceWrong.png","","","","","","","","","",""
"image-keyboard-response","79","179230","0.0-3.0-4.0-1.0-0.22","612bbb31165932bda554443a","6662009ae78f21dd82fcd179","6662180a890b0cd3c56323fe","1437","","f","","","","","","","","./tasks/HMM-beads/Images/NewTrialWC.png","practice","0","22","1","1","1","0","false","",""
"image-keyboard-response","80","179538","0.0-3.0-4.0-1.0-1.22","612bbb31165932bda554443a","6662009ae78f21dd82fcd179","6662180a890b0cd3c56323fe","null","","null","","","","","","","","./tasks/HMM-beads/Images/BlackBeadChoice.png","","","","","","","","","",""
"image-keyboard-response","81","180048","0.0-3.0-4.0-1.0-2.22","612bbb31165932bda554443a","6662009ae78f21dd82fcd179","6662180a890b0cd3c56323fe","null","","null","","","","","","","","./tasks/HMM-beads/Images/BlackBeadChoiceWrong.png","","","","","","","","","",""
"image-keyboard-response","82","180850","0.0-3.0-4.0-1.0-0.23","612bbb31165932bda554443a","6662009ae78f21dd82fcd179","6662180a890b0cd3c56323fe","799","","f","","","","","","","","./tasks/HMM-beads/Images/NewTrialWC.png","practice","0","23","1","0","1","0","true","",""
"image-keyboard-response","83","181157","0.0-3.0-4.0-1.0-1.23","612bbb31165932bda554443a","6662009ae78f21dd82fcd179","6662180a890b0cd3c56323fe","null","","null","","","","","","","","./tasks/HMM-beads/Images/BlackBeadChoice.png","","","","","","","","","",""
"image-keyboard-response","84","181665","0.0-3.0-4.0-1.0-2.23","612bbb31165932bda554443a","6662009ae78f21dd82fcd179","6662180a890b0cd3c56323fe","null","","null","","","","","","","","./tasks/HMM-beads/Images/BlackBeadChoiceCorrect.png","","","","","","","","","",""
"image-keyboard-response","85","182370","0.0-3.0-4.0-1.0-0.24","612bbb31165932bda554443a","6662009ae78f21dd82fcd179","6662180a890b0cd3c56323fe","702","","f","","","","","","","","./tasks/HMM-beads/Images/NewTrialBC.png","practice","0","24","1","1","0","0","false","",""
"image-keyboard-response","86","182678","0.0-3.0-4.0-1.0-1.24","612bbb31165932bda554443a","6662009ae78f21dd82fcd179","6662180a890b0cd3c56323fe","null","","null","","","","","","","","./tasks/HMM-beads/Images/BlackBeadChoice.png","","","","","","","","","",""
"image-keyboard-response","87","183189","0.0-3.0-4.0-1.0-2.24","612bbb31165932bda554443a","6662009ae78f21dd82fcd179","6662180a890b0cd3c56323fe","null","","null","","","","","","","","./tasks/HMM-beads/Images/BlackBeadChoiceWrong.png","","","","","","","","","",""
"image-keyboard-response","88","184942","0.0-3.0-4.0-1.0-0.25","612bbb31165932bda554443a","6662009ae78f21dd82fcd179","6662180a890b0cd3c56323fe","1751","","f","","","","","","","","./tasks/HMM-beads/Images/NewTrialWC.png","practice","0","25","1","1","1","0","false","",""
"image-keyboard-response","89","185245","0.0-3.0-4.0-1.0-1.25","612bbb31165932bda554443a","6662009ae78f21dd82fcd179","6662180a890b0cd3c56323fe","null","","null","","","","","","","","./tasks/HMM-beads/Images/BlackBeadChoice.png","","","","","","","","","",""
"image-keyboard-response","90","185756","0.0-3.0-4.0-1.0-2.25","612bbb31165932bda554443a","6662009ae78f21dd82fcd179","6662180a890b0cd3c56323fe","null","","null","","","","","","","","./tasks/HMM-beads/Images/BlackBeadChoiceWrong.png","","","","","","","","","",""
"image-keyboard-response","91","186337","0.0-3.0-4.0-1.0-0.26","612bbb31165932bda554443a","6662009ae78f21dd82fcd179","6662180a890b0cd3c56323fe","579","","j","","","","","","","","./tasks/HMM-beads/Images/NewTrialWC.png","practice","0","26","1","1","1","1","true","",""
"image-keyboard-response","92","186652","0.0-3.0-4.0-1.0-1.26","612bbb31165932bda554443a","6662009ae78f21dd82fcd179","6662180a890b0cd3c56323fe","null","","null","","","","","","","","./tasks/HMM-beads/Images/WhiteBeadChoice.png","","","","","","","","","",""
"image-keyboard-response","93","187157","0.0-3.0-4.0-1.0-2.26","612bbb31165932bda554443a","6662009ae78f21dd82fcd179","6662180a890b0cd3c56323fe","null","","null","","","","","","","","./tasks/HMM-beads/Images/WhiteBeadChoiceCorrect.png","","","","","","","","","",""
"image-keyboard-response","94","188522","0.0-3.0-4.0-1.0-0.27","612bbb31165932bda554443a","6662009ae78f21dd82fcd179","6662180a890b0cd3c56323fe","1363","","j","","","","","","","","./tasks/HMM-beads/Images/NewTrialWC.png","practice","0","27","1","1","1","1","true","",""
"image-keyboard-response","95","188852","0.0-3.0-4.0-1.0-1.27","612bbb31165932bda554443a","6662009ae78f21dd82fcd179","6662180a890b0cd3c56323fe","null","","null","","","","","","","","./tasks/HMM-beads/Images/WhiteBeadChoice.png","","","","","","","","","",""
"image-keyboard-response","96","189354","0.0-3.0-4.0-1.0-2.27","612bbb31165932bda554443a","6662009ae78f21dd82fcd179","6662180a890b0cd3c56323fe","null","","null","","","","","","","","./tasks/HMM-beads/Images/WhiteBeadChoiceCorrect.png","","","","","","","","","",""
"image-keyboard-response","97","192259","0.0-3.0-4.0-1.0-0.28","612bbb31165932bda554443a","6662009ae78f21dd82fcd179","6662180a890b0cd3c56323fe","2903","","j","","","","","","","","./tasks/HMM-beads/Images/NewTrialWC.png","practice","0","28","1","0","1","1","false","",""
"image-keyboard-response","98","192569","0.0-3.0-4.0-1.0-1.28","612bbb31165932bda554443a","6662009ae78f21dd82fcd179","6662180a890b0cd3c56323fe","null","","null","","","","","","","","./tasks/HMM-beads/Images/WhiteBeadChoice.png","","","","","","","","","",""
"image-keyboard-response","99","193073","0.0-3.0-4.0-1.0-2.28","612bbb31165932bda554443a","6662009ae78f21dd82fcd179","6662180a890b0cd3c56323fe","null","","null","","","","","","","","./tasks/HMM-beads/Images/WhiteBeadChoiceWrong.png","","","","","","","","","",""
"image-keyboard-response","100","195473","0.0-3.0-4.0-1.0-0.29","612bbb31165932bda554443a","6662009ae78f21dd82fcd179","6662180a890b0cd3c56323fe","2398","","f","","","","","","","","./tasks/HMM-beads/Images/NewTrialBC.png","practice","0","29","1","1","0","0","false","",""
"image-keyboard-response","101","195785","0.0-3.0-4.0-1.0-1.29","612bbb31165932bda554443a","6662009ae78f21dd82fcd179","6662180a890b0cd3c56323fe","null","","null","","","","","","","","./tasks/HMM-beads/Images/BlackBeadChoice.png","","","","","","","","","",""
"image-keyboard-response","102","196297","0.0-3.0-4.0-1.0-2.29","612bbb31165932bda554443a","6662009ae78f21dd82fcd179","6662180a890b0cd3c56323fe","null","","null","","","","","","","","./tasks/HMM-beads/Images/BlackBeadChoiceWrong.png","","","","","","","","","",""
"image-keyboard-response","103","199029","0.0-3.0-4.0-1.0-0.30","612bbb31165932bda554443a","6662009ae78f21dd82fcd179","6662180a890b0cd3c56323fe","2730","","f","","","","","","","","./tasks/HMM-beads/Images/NewTrialWC.png","practice","0","30","1","0","1","0","true","",""
"image-keyboard-response","104","199335","0.0-3.0-4.0-1.0-1.30","612bbb31165932bda554443a","6662009ae78f21dd82fcd179","6662180a890b0cd3c56323fe","null","","null","","","","","","","","./tasks/HMM-beads/Images/BlackBeadChoice.png","","","","","","","","","",""
"image-keyboard-response","105","199839","0.0-3.0-4.0-1.0-2.30","612bbb31165932bda554443a","6662009ae78f21dd82fcd179","6662180a890b0cd3c56323fe","null","","null","","","","","","","","./tasks/HMM-beads/Images/BlackBeadChoiceCorrect.png","","","","","","","","","",""
"image-keyboard-response","106","200785","0.0-3.0-4.0-1.0-0.31","612bbb31165932bda554443a","6662009ae78f21dd82fcd179","6662180a890b0cd3c56323fe","945","","f","","","","","","","","./tasks/HMM-beads/Images/NewTrialBC.png","practice","0","31","1","1","0","0","false","",""
"image-keyboard-response","107","201087","0.0-3.0-4.0-1.0-1.31","612bbb31165932bda554443a","6662009ae78f21dd82fcd179","6662180a890b0cd3c56323fe","null","","null","","","","","","","","./tasks/HMM-beads/Images/BlackBeadChoice.png","","","","","","","","","",""
"image-keyboard-response","108","201618","0.0-3.0-4.0-1.0-2.31","612bbb31165932bda554443a","6662009ae78f21dd82fcd179","6662180a890b0cd3c56323fe","null","","null","","","","","","","","./tasks/HMM-beads/Images/BlackBeadChoiceWrong.png","","","","","","","","","",""
"image-keyboard-response","109","202861","0.0-3.0-4.0-1.0-0.32","612bbb31165932bda554443a","6662009ae78f21dd82fcd179","6662180a890b0cd3c56323fe","1242","","f","","","","","","","","./tasks/HMM-beads/Images/NewTrialWC.png","practice","0","32","1","1","1","0","false","",""
"image-keyboard-response","110","203177","0.0-3.0-4.0-1.0-1.32","612bbb31165932bda554443a","6662009ae78f21dd82fcd179","6662180a890b0cd3c56323fe","null","","null","","","","","","","","./tasks/HMM-beads/Images/BlackBeadChoice.png","","","","","","","","","",""
"image-keyboard-response","111","203684","0.0-3.0-4.0-1.0-2.32","612bbb31165932bda554443a","6662009ae78f21dd82fcd179","6662180a890b0cd3c56323fe","null","","null","","","","","","","","./tasks/HMM-beads/Images/BlackBeadChoiceWrong.png","","","","","","","","","",""
"image-keyboard-response","112","204869","0.0-3.0-4.0-1.0-0.33","612bbb31165932bda554443a","6662009ae78f21dd82fcd179","6662180a890b0cd3c56323fe","1184","","f","","","","","","","","./tasks/HMM-beads/Images/NewTrialWC.png","practice","0","33","1","1","1","0","false","",""
"image-keyboard-response","113","205176","0.0-3.0-4.0-1.0-1.33","612bbb31165932bda554443a","6662009ae78f21dd82fcd179","6662180a890b0cd3c56323fe","null","","null","","","","","","","","./tasks/HMM-beads/Images/BlackBeadChoice.png","","","","","","","","","",""
"image-keyboard-response","114","205690","0.0-3.0-4.0-1.0-2.33","612bbb31165932bda554443a","6662009ae78f21dd82fcd179","6662180a890b0cd3c56323fe","null","","null","","","","","","","","./tasks/HMM-beads/Images/BlackBeadChoiceWrong.png","","","","","","","","","",""
"image-keyboard-response","115","206178","0.0-3.0-4.0-1.0-0.34","612bbb31165932bda554443a","6662009ae78f21dd82fcd179","6662180a890b0cd3c56323fe","486","","j","","","","","","","","./tasks/HMM-beads/Images/NewTrialWC.png","practice","0","34","1","1","1","1","true","",""
"image-keyboard-response","116","206485","0.0-3.0-4.0-1.0-1.34","612bbb31165932bda554443a","6662009ae78f21dd82fcd179","6662180a890b0cd3c56323fe","null","","null","","","","","","","","./tasks/HMM-beads/Images/WhiteBeadChoice.png","","","","","","","","","",""
"image-keyboard-response","117","206989","0.0-3.0-4.0-1.0-2.34","612bbb31165932bda554443a","6662009ae78f21dd82fcd179","6662180a890b0cd3c56323fe","null","","null","","","","","","","","./tasks/HMM-beads/Images/WhiteBeadChoiceCorrect.png","","","","","","","","","",""
"image-keyboard-response","118","208036","0.0-3.0-4.0-1.0-0.35","612bbb31165932bda554443a","6662009ae78f21dd82fcd179","6662180a890b0cd3c56323fe","1046","","j","","","","","","","","./tasks/HMM-beads/Images/NewTrialWC.png","practice","0","35","1","1","1","1","true","",""
"image-keyboard-response","119","208343","0.0-3.0-4.0-1.0-1.35","612bbb31165932bda554443a","6662009ae78f21dd82fcd179","6662180a890b0cd3c56323fe","null","","null","","","","","","","","./tasks/HMM-beads/Images/WhiteBeadChoice.png","","","","","","","","","",""
"image-keyboard-response","120","208849","0.0-3.0-4.0-1.0-2.35","612bbb31165932bda554443a","6662009ae78f21dd82fcd179","6662180a890b0cd3c56323fe","null","","null","","","","","","","","./tasks/HMM-beads/Images/WhiteBeadChoiceCorrect.png","","","","","","","","","",""
"image-keyboard-response","121","209811","0.0-3.0-4.0-1.0-0.36","612bbb31165932bda554443a","6662009ae78f21dd82fcd179","6662180a890b0cd3c56323fe","959","","j","","","","","","","","./tasks/HMM-beads/Images/NewTrialWC.png","practice","0","36","1","0","1","1","false","",""
"image-keyboard-response","122","210119","0.0-3.0-4.0-1.0-1.36","612bbb31165932bda554443a","6662009ae78f21dd82fcd179","6662180a890b0cd3c56323fe","null","","null","","","","","","","","./tasks/HMM-beads/Images/WhiteBeadChoice.png","","","","","","","","","",""
"image-keyboard-response","123","210624","0.0-3.0-4.0-1.0-2.36","612bbb31165932bda554443a","6662009ae78f21dd82fcd179","6662180a890b0cd3c56323fe","null","","null","","","","","","","","./tasks/HMM-beads/Images/WhiteBeadChoiceWrong.png","","","","","","","","","",""
"image-keyboard-response","124","211926","0.0-3.0-4.0-1.0-0.37","612bbb31165932bda554443a","6662009ae78f21dd82fcd179","6662180a890b0cd3c56323fe","1300","","j","","","","","","","","./tasks/HMM-beads/Images/NewTrialBC.png","practice","0","37","1","1","0","1","true","",""
"image-keyboard-response","125","212236","0.0-3.0-4.0-1.0-1.37","612bbb31165932bda554443a","6662009ae78f21dd82fcd179","6662180a890b0cd3c56323fe","null","","null","","","","","","","","./tasks/HMM-beads/Images/WhiteBeadChoice.png","","","","","","","","","",""
"image-keyboard-response","126","212738","0.0-3.0-4.0-1.0-2.37","612bbb31165932bda554443a","6662009ae78f21dd82fcd179","6662180a890b0cd3c56323fe","null","","null","","","","","","","","./tasks/HMM-beads/Images/WhiteBeadChoiceCorrect.png","","","","","","","","","",""
"image-keyboard-response","127","213466","0.0-3.0-4.0-1.0-0.38","612bbb31165932bda554443a","6662009ae78f21dd82fcd179","6662180a890b0cd3c56323fe","727","","j","","","","","","","","./tasks/HMM-beads/Images/NewTrialWC.png","practice","0","38","1","1","1","1","true","",""
"image-keyboard-response","128","213783","0.0-3.0-4.0-1.0-1.38","612bbb31165932bda554443a","6662009ae78f21dd82fcd179","6662180a890b0cd3c56323fe","null","","null","","","","","","","","./tasks/HMM-beads/Images/WhiteBeadChoice.png","","","","","","","","","",""
"image-keyboard-response","129","214287","0.0-3.0-4.0-1.0-2.38","612bbb31165932bda554443a","6662009ae78f21dd82fcd179","6662180a890b0cd3c56323fe","null","","null","","","","","","","","./tasks/HMM-beads/Images/WhiteBeadChoiceCorrect.png","","","","","","","","","",""
"image-keyboard-response","130","216052","0.0-3.0-4.0-1.0-0.39","612bbb31165932bda554443a","6662009ae78f21dd82fcd179","6662180a890b0cd3c56323fe","1763","","j","","","","","","","","./tasks/HMM-beads/Images/NewTrialWC.png","practice","0","39","1","1","1","1","true","",""
"image-keyboard-response","131","216359","0.0-3.0-4.0-1.0-1.39","612bbb31165932bda554443a","6662009ae78f21dd82fcd179","6662180a890b0cd3c56323fe","null","","null","","","","","","","","./tasks/HMM-beads/Images/WhiteBeadChoice.png","","","","","","","","","",""
"image-keyboard-response","132","216865","0.0-3.0-4.0-1.0-2.39","612bbb31165932bda554443a","6662009ae78f21dd82fcd179","6662180a890b0cd3c56323fe","null","","null","","","","","","","","./tasks/HMM-beads/Images/WhiteBeadChoiceCorrect.png","","","","","","","","","",""
"html-keyboard-response","133","219250","0.0-3.0-4.0-2.0","612bbb31165932bda554443a","6662009ae78f21dd82fcd179","6662180a890b0cd3c56323fe","2383",""," ","","","","","","","","","","","","","","","","","",""
"instructions","134","237075","0.0-3.0-5.0","612bbb31165932bda554443a","6662009ae78f21dd82fcd179","6662180a890b0cd3c56323fe","17824","","","","[{""page_index"":0,""viewing_time"":13867},{""page_index"":1,""viewing_time"":3956}]","","","","","","","","","","","","","","","",""
"html-keyboard-response","135","240374","0.0-3.0-6.0-0.0","612bbb31165932bda554443a","6662009ae78f21dd82fcd179","6662180a890b0cd3c56323fe","3299",""," ","","","","","","","","<div align=center>In this block, there will be a <b>1% chance</b> that the jar on the next trial will be different from the jar on the current trial.<br><br></div>","","","","","","","","","",""
"image-keyboard-response","136","242738","0.0-3.0-6.0-1.0-0.0","612bbb31165932bda554443a","6662009ae78f21dd82fcd179","6662180a890b0cd3c56323fe","2362","","f","","","","","","","","./tasks/HMM-beads/Images/NoChoice.png","lowH","1","0","1","0","9","0","true","",""
"image-keyboard-response","137","243057","0.0-3.0-6.0-1.0-1.0","612bbb31165932bda554443a","6662009ae78f21dd82fcd179","6662180a890b0cd3c56323fe","null","","null","","","","","","","","./tasks/HMM-beads/Images/BlackBeadChoice.png","","","","","","","","","",""
"image-keyboard-response","138","243571","0.0-3.0-6.0-1.0-2.0","612bbb31165932bda554443a","6662009ae78f21dd82fcd179","6662180a890b0cd3c56323fe","null","","null","","","","","","","","./tasks/HMM-beads/Images/BlackBeadChoiceCorrect.png","","","","","","","","","",""
"image-keyboard-response","139","244552","0.0-3.0-6.0-1.0-0.1","612bbb31165932bda554443a","6662009ae78f21dd82fcd179","6662180a890b0cd3c56323fe","978","","f","","","","","","","","./tasks/HMM-beads/Images/NewTrialBC.png","lowH","1","1","1","1","0","0","false","",""
"image-keyboard-response","140","244857","0.0-3.0-6.0-1.0-1.1","612bbb31165932bda554443a","6662009ae78f21dd82fcd179","6662180a890b0cd3c56323fe","null","","null","","","","","","","","./tasks/HMM-beads/Images/BlackBeadChoice.png","","","","","","","","","",""
"image-keyboard-response","141","245369","0.0-3.0-6.0-1.0-2.1","612bbb31165932bda554443a","6662009ae78f21dd82fcd179","6662180a890b0cd3c56323fe","null","","null","","","","","","","","./tasks/HMM-beads/Images/BlackBeadChoiceWrong.png","","","","","","","","","",""
"image-keyboard-response","142","246289","0.0-3.0-6.0-1.0-0.2","612bbb31165932bda554443a","6662009ae78f21dd82fcd179","6662180a890b0cd3c56323fe","919","","f","","","","","","","","./tasks/HMM-beads/Images/NewTrialWC.png","lowH","1","2","1","1","1","0","false","",""
"image-keyboard-response","143","246600","0.0-3.0-6.0-1.0-1.2","612bbb31165932bda554443a","6662009ae78f21dd82fcd179","6662180a890b0cd3c56323fe","null","","null","","","","","","","","./tasks/HMM-beads/Images/BlackBeadChoice.png","","","","","","","","","",""
"image-keyboard-response","144","247103","0.0-3.0-6.0-1.0-2.2","612bbb31165932bda554443a","6662009ae78f21dd82fcd179","6662180a890b0cd3c56323fe","null","","null","","","","","","","","./tasks/HMM-beads/Images/BlackBeadChoiceWrong.png","","","","","","","","","",""
"image-keyboard-response","145","247666","0.0-3.0-6.0-1.0-0.3","612bbb31165932bda554443a","6662009ae78f21dd82fcd179","6662180a890b0cd3c56323fe","561","","j","","","","","","","","./tasks/HMM-beads/Images/NewTrialWC.png","lowH","1","3","1","1","1","1","true","",""
"image-keyboard-response","146","247981","0.0-3.0-6.0-1.0-1.3","612bbb31165932bda554443a","6662009ae78f21dd82fcd179","6662180a890b0cd3c56323fe","null","","null","","","","","","","","./tasks/HMM-beads/Images/WhiteBeadChoice.png","","","","","","","","","",""
"image-keyboard-response","147","248486","0.0-3.0-6.0-1.0-2.3","612bbb31165932bda554443a","6662009ae78f21dd82fcd179","6662180a890b0cd3c56323fe","null","","null","","","","","","","","./tasks/HMM-beads/Images/WhiteBeadChoiceCorrect.png","","","","","","","","","",""
"image-keyboard-response","148","249187","0.0-3.0-6.0-1.0-0.4","612bbb31165932bda554443a","6662009ae78f21dd82fcd179","6662180a890b0cd3c56323fe","699","","j","","","","","","","","./tasks/HMM-beads/Images/NewTrialWC.png","lowH","1","4","1","1","1","1","true","",""
"image-keyboard-response","149","249499","0.0-3.0-6.0-1.0-1.4","612bbb31165932bda554443a","6662009ae78f21dd82fcd179","6662180a890b0cd3c56323fe","null","","null","","","","","","","","./tasks/HMM-beads/Images/WhiteBeadChoice.png","","","","","","","","","",""
"image-keyboard-response","150","250020","0.0-3.0-6.0-1.0-2.4","612bbb31165932bda554443a","6662009ae78f21dd82fcd179","6662180a890b0cd3c56323fe","null","","null","","","","","","","","./tasks/HMM-beads/Images/WhiteBeadChoiceCorrect.png","","","","","","","","","",""
"image-keyboard-response","151","250999","0.0-3.0-6.0-1.0-0.5","612bbb31165932bda554443a","6662009ae78f21dd82fcd179","6662180a890b0cd3c56323fe","977","","j","","","","","","","","./tasks/HMM-beads/Images/NewTrialWC.png","lowH","1","5","1","1","1","1","true","",""
"image-keyboard-response","152","251314","0.0-3.0-6.0-1.0-1.5","612bbb31165932bda554443a","6662009ae78f21dd82fcd179","6662180a890b0cd3c56323fe","null","","null","","","","","","","","./tasks/HMM-beads/Images/WhiteBeadChoice.png","","","","","","","","","",""
"image-keyboard-response","153","251819","0.0-3.0-6.0-1.0-2.5","612bbb31165932bda554443a","6662009ae78f21dd82fcd179","6662180a890b0cd3c56323fe","null","","null","","","","","","","","./tasks/HMM-beads/Images/WhiteBeadChoiceCorrect.png","","","","","","","","","",""
"image-keyboard-response","154","252404","0.0-3.0-6.0-1.0-0.6","612bbb31165932bda554443a","6662009ae78f21dd82fcd179","6662180a890b0cd3c56323fe","583","","f","","","","","","","","./tasks/HMM-beads/Images/NewTrialWC.png","lowH","1","6","1","0","1","0","true","",""
"image-keyboard-response","155","252708","0.0-3.0-6.0-1.0-1.6","612bbb31165932bda554443a","6662009ae78f21dd82fcd179","6662180a890b0cd3c56323fe","null","","null","","","","","","","","./tasks/HMM-beads/Images/BlackBeadChoice.png","","","","","","","","","",""
"image-keyboard-response","156","253219","0.0-3.0-6.0-1.0-2.6","612bbb31165932bda554443a","6662009ae78f21dd82fcd179","6662180a890b0cd3c56323fe","null","","null","","","","","","","","./tasks/HMM-beads/Images/BlackBeadChoiceCorrect.png","","","","","","","","","",""
"image-keyboard-response","157","254087","0.0-3.0-6.0-1.0-0.7","612bbb31165932bda554443a","6662009ae78f21dd82fcd179","6662180a890b0cd3c56323fe","866","","j","","","","","","","","./tasks/HMM-beads/Images/NewTrialBC.png","lowH","1","7","1","1","0","1","true","",""
"image-keyboard-response","158","254399","0.0-3.0-6.0-1.0-1.7","612bbb31165932bda554443a","6662009ae78f21dd82fcd179","6662180a890b0cd3c56323fe","null","","null","","","","","","","","./tasks/HMM-beads/Images/WhiteBeadChoice.png","","","","","","","","","",""
"image-keyboard-response","159","254903","0.0-3.0-6.0-1.0-2.7","612bbb31165932bda554443a","6662009ae78f21dd82fcd179","6662180a890b0cd3c56323fe","null","","null","","","","","","","","./tasks/HMM-beads/Images/WhiteBeadChoiceCorrect.png","","","","","","","","","",""
"image-keyboard-response","160","255554","0.0-3.0-6.0-1.0-0.8","612bbb31165932bda554443a","6662009ae78f21dd82fcd179","6662180a890b0cd3c56323fe","650","","j","","","","","","","","./tasks/HMM-beads/Images/NewTrialWC.png","lowH","1","8","1","1","1","1","true","",""
"image-keyboard-response","161","255865","0.0-3.0-6.0-1.0-1.8","612bbb31165932bda554443a","6662009ae78f21dd82fcd179","6662180a890b0cd3c56323fe","null","","null","","","","","","","","./tasks/HMM-beads/Images/WhiteBeadChoice.png","","","","","","","","","",""
"image-keyboard-response","162","256368","0.0-3.0-6.0-1.0-2.8","612bbb31165932bda554443a","6662009ae78f21dd82fcd179","6662180a890b0cd3c56323fe","null","","null","","","","","","","","./tasks/HMM-beads/Images/WhiteBeadChoiceCorrect.png","","","","","","","","","",""
"image-keyboard-response","163","256932","0.0-3.0-6.0-1.0-0.9","612bbb31165932bda554443a","6662009ae78f21dd82fcd179","6662180a890b0cd3c56323fe","563","","j","","","","","","","","./tasks/HMM-beads/Images/NewTrialWC.png","lowH","1","9","1","1","1","1","true","",""
"image-keyboard-response","164","257242","0.0-3.0-6.0-1.0-1.9","612bbb31165932bda554443a","6662009ae78f21dd82fcd179","6662180a890b0cd3c56323fe","null","","null","","","","","","","","./tasks/HMM-beads/Images/WhiteBeadChoice.png","","","","","","","","","",""
"image-keyboard-response","165","257752","0.0-3.0-6.0-1.0-2.9","612bbb31165932bda554443a","6662009ae78f21dd82fcd179","6662180a890b0cd3c56323fe","null","","null","","","","","","","","./tasks/HMM-beads/Images/WhiteBeadChoiceCorrect.png","","","","","","","","","",""
"image-keyboard-response","166","259028","0.0-3.0-6.0-1.0-0.10","612bbb31165932bda554443a","6662009ae78f21dd82fcd179","6662180a890b0cd3c56323fe","1274","","j","","","","","","","","./tasks/HMM-beads/Images/NewTrialWC.png","lowH","1","10","1","1","1","1","true","",""
"image-keyboard-response","167","259342","0.0-3.0-6.0-1.0-1.10","612bbb31165932bda554443a","6662009ae78f21dd82fcd179","6662180a890b0cd3c56323fe","null","","null","","","","","","","","./tasks/HMM-beads/Images/WhiteBeadChoice.png","","","","","","","","","",""
"image-keyboard-response","168","259859","0.0-3.0-6.0-1.0-2.10","612bbb31165932bda554443a","6662009ae78f21dd82fcd179","6662180a890b0cd3c56323fe","null","","null","","","","","","","","./tasks/HMM-beads/Images/WhiteBeadChoiceCorrect.png","","","","","","","","","",""
"image-keyboard-response","169","260303","0.0-3.0-6.0-1.0-0.11","612bbb31165932bda554443a","6662009ae78f21dd82fcd179","6662180a890b0cd3c56323fe","442","","f","","","","","","","","./tasks/HMM-beads/Images/NewTrialWC.png","lowH","1","11","1","1","1","0","false","",""
"image-keyboard-response","170","260617","0.0-3.0-6.0-1.0-1.11","612bbb31165932bda554443a","6662009ae78f21dd82fcd179","6662180a890b0cd3c56323fe","null","","null","","","","","","","","./tasks/HMM-beads/Images/BlackBeadChoice.png","","","","","","","","","",""
"image-keyboard-response","171","261119","0.0-3.0-6.0-1.0-2.11","612bbb31165932bda554443a","6662009ae78f21dd82fcd179","6662180a890b0cd3c56323fe","null","","null","","","","","","","","./tasks/HMM-beads/Images/BlackBeadChoiceWrong.png","","","","","","","","","",""
"image-keyboard-response","172","261596","0.0-3.0-6.0-1.0-0.12","612bbb31165932bda554443a","6662009ae78f21dd82fcd179","6662180a890b0cd3c56323fe","476","","j","","","","","","","","./tasks/HMM-beads/Images/NewTrialWC.png","lowH","1","12","1","1","1","1","true","",""
"image-keyboard-response","173","261900","0.0-3.0-6.0-1.0-1.12","612bbb31165932bda554443a","6662009ae78f21dd82fcd179","6662180a890b0cd3c56323fe","null","","null","","","","","","","","./tasks/HMM-beads/Images/WhiteBeadChoice.png","","","","","","","","","",""
"image-keyboard-response","174","262402","0.0-3.0-6.0-1.0-2.12","612bbb31165932bda554443a","6662009ae78f21dd82fcd179","6662180a890b0cd3c56323fe","null","","null","","","","","","","","./tasks/HMM-beads/Images/WhiteBeadChoiceCorrect.png","","","","","","","","","",""
"image-keyboard-response","175","263178","0.0-3.0-6.0-1.0-0.13","612bbb31165932bda554443a","6662009ae78f21dd82fcd179","6662180a890b0cd3c56323fe","773","","j","","","","","","","","./tasks/HMM-beads/Images/NewTrialWC.png","lowH","1","13","1","0","1","1","false","",""
"image-keyboard-response","176","263499","0.0-3.0-6.0-1.0-1.13","612bbb31165932bda554443a","6662009ae78f21dd82fcd179","6662180a890b0cd3c56323fe","null","","null","","","","","","","","./tasks/HMM-beads/Images/WhiteBeadChoice.png","","","","","","","","","",""
"image-keyboard-response","177","264002","0.0-3.0-6.0-1.0-2.13","612bbb31165932bda554443a","6662009ae78f21dd82fcd179","6662180a890b0cd3c56323fe","null","","null","","","","","","","","./tasks/HMM-beads/Images/WhiteBeadChoiceWrong.png","","","","","","","","","",""
"image-keyboard-response","178","264437","0.0-3.0-6.0-1.0-0.14","612bbb31165932bda554443a","6662009ae78f21dd82fcd179","6662180a890b0cd3c56323fe","434","","j","","","","","","","","./tasks/HMM-beads/Images/NewTrialBC.png","lowH","1","14","1","0","0","1","false","",""
"image-keyboard-response","179","264748","0.0-3.0-6.0-1.0-1.14","612bbb31165932bda554443a","6662009ae78f21dd82fcd179","6662180a890b0cd3c56323fe","null","","null","","","","","","","","./tasks/HMM-beads/Images/WhiteBeadChoice.png","","","","","","","","","",""
"image-keyboard-response","180","265258","0.0-3.0-6.0-1.0-2.14","612bbb31165932bda554443a","6662009ae78f21dd82fcd179","6662180a890b0cd3c56323fe","null","","null","","","","","","","","./tasks/HMM-beads/Images/WhiteBeadChoiceWrong.png","","","","","","","","","",""
"image-keyboard-response","181","265687","0.0-3.0-6.0-1.0-0.15","612bbb31165932bda554443a","6662009ae78f21dd82fcd179","6662180a890b0cd3c56323fe","427","","f","","","","","","","","./tasks/HMM-beads/Images/NewTrialBC.png","lowH","1","15","1","1","0","0","false","",""
"image-keyboard-response","182","265998","0.0-3.0-6.0-1.0-1.15","612bbb31165932bda554443a","6662009ae78f21dd82fcd179","6662180a890b0cd3c56323fe","null","","null","","","","","","","","./tasks/HMM-beads/Images/BlackBeadChoice.png","","","","","","","","","",""
"image-keyboard-response","183","266509","0.0-3.0-6.0-1.0-2.15","612bbb31165932bda554443a","6662009ae78f21dd82fcd179","6662180a890b0cd3c56323fe","null","","null","","","","","","","","./tasks/HMM-beads/Images/BlackBeadChoiceWrong.png","","","","","","","","","",""
"image-keyboard-response","184","267159","0.0-3.0-6.0-1.0-0.16","612bbb31165932bda554443a","6662009ae78f21dd82fcd179","6662180a890b0cd3c56323fe","649","","j","","","","","","","","./tasks/HMM-beads/Images/NewTrialWC.png","lowH","1","16","1","1","1","1","true","",""
"image-keyboard-response","185","267468","0.0-3.0-6.0-1.0-1.16","612bbb31165932bda554443a","6662009ae78f21dd82fcd179","6662180a890b0cd3c56323fe","null","","null","","","","","","","","./tasks/HMM-beads/Images/WhiteBeadChoice.png","","","","","","","","","",""
"image-keyboard-response","186","267975","0.0-3.0-6.0-1.0-2.16","612bbb31165932bda554443a","6662009ae78f21dd82fcd179","6662180a890b0cd3c56323fe","null","","null","","","","","","","","./tasks/HMM-beads/Images/WhiteBeadChoiceCorrect.png","","","","","","","","","",""
"image-keyboard-response","187","268392","0.0-3.0-6.0-1.0-0.17","612bbb31165932bda554443a","6662009ae78f21dd82fcd179","6662180a890b0cd3c56323fe","415","","j","","","","","","","","./tasks/HMM-beads/Images/NewTrialWC.png","lowH","1","17","1","1","1","1","true","",""
"image-keyboard-response","188","268706","0.0-3.0-6.0-1.0-1.17","612bbb31165932bda554443a","6662009ae78f21dd82fcd179","6662180a890b0cd3c56323fe","null","","null","","","","","","","","./tasks/HMM-beads/Images/WhiteBeadChoice.png","","","","","","","","","",""
"image-keyboard-response","189","269234","0.0-3.0-6.0-1.0-2.17","612bbb31165932bda554443a","6662009ae78f21dd82fcd179","6662180a890b0cd3c56323fe","null","","null","","","","","","","","./tasks/HMM-beads/Images/WhiteBeadChoiceCorrect.png","","","","","","","","","",""
"image-keyboard-response","190","269758","0.0-3.0-6.0-1.0-0.18","612bbb31165932bda554443a","6662009ae78f21dd82fcd179","6662180a890b0cd3c56323fe","522","","j","","","","","","","","./tasks/HMM-beads/Images/NewTrialWC.png","lowH","1","18","1","1","1","1","true","",""
"image-keyboard-response","191","270065","0.0-3.0-6.0-1.0-1.18","612bbb31165932bda554443a","6662009ae78f21dd82fcd179","6662180a890b0cd3c56323fe","null","","null","","","","","","","","./tasks/HMM-beads/Images/WhiteBeadChoice.png","","","","","","","","","",""
"image-keyboard-response","192","270576","0.0-3.0-6.0-1.0-2.18","612bbb31165932bda554443a","6662009ae78f21dd82fcd179","6662180a890b0cd3c56323fe","null","","null","","","","","","","","./tasks/HMM-beads/Images/WhiteBeadChoiceCorrect.png","","","","","","","","","",""
"image-keyboard-response","193","271238","0.0-3.0-6.0-1.0-0.19","612bbb31165932bda554443a","6662009ae78f21dd82fcd179","6662180a890b0cd3c56323fe","660","","f","","","","","","","","./tasks/HMM-beads/Images/NewTrialWC.png","lowH","1","19","1","1","1","0","false","",""
"image-keyboard-response","194","271541","0.0-3.0-6.0-1.0-1.19","612bbb31165932bda554443a","6662009ae78f21dd82fcd179","6662180a890b0cd3c56323fe","null","","null","","","","","","","","./tasks/HMM-beads/Images/BlackBeadChoice.png","","","","","","","","","",""
"image-keyboard-response","195","272051","0.0-3.0-6.0-1.0-2.19","612bbb31165932bda554443a","6662009ae78f21dd82fcd179","6662180a890b0cd3c56323fe","null","","null","","","","","","","","./tasks/HMM-beads/Images/BlackBeadChoiceWrong.png","","","","","","","","","",""
"image-keyboard-response","196","272521","0.0-3.0-6.0-1.0-0.20","612bbb31165932bda554443a","6662009ae78f21dd82fcd179","6662180a890b0cd3c56323fe","469","","j","","","","","","","","./tasks/HMM-beads/Images/NewTrialWC.png","lowH","1","20","1","1","1","1","true","",""
"image-keyboard-response","197","272832","0.0-3.0-6.0-1.0-1.20","612bbb31165932bda554443a","6662009ae78f21dd82fcd179","6662180a890b0cd3c56323fe","null","","null","","","","","","","","./tasks/HMM-beads/Images/WhiteBeadChoice.png","","","","","","","","","",""
"image-keyboard-response","198","273342","0.0-3.0-6.0-1.0-2.20","612bbb31165932bda554443a","6662009ae78f21dd82fcd179","6662180a890b0cd3c56323fe","null","","null","","","","","","","","./tasks/HMM-beads/Images/WhiteBeadChoiceCorrect.png","","","","","","","","","",""
"image-keyboard-response","199","274069","0.0-3.0-6.0-1.0-0.21","612bbb31165932bda554443a","6662009ae78f21dd82fcd179","6662180a890b0cd3c56323fe","725","","j","","","","","","","","./tasks/HMM-beads/Images/NewTrialWC.png","lowH","1","21","1","1","1","1","true","",""
"image-keyboard-response","200","274381","0.0-3.0-6.0-1.0-1.21","612bbb31165932bda554443a","6662009ae78f21dd82fcd179","6662180a890b0cd3c56323fe","null","","null","","","","","","","","./tasks/HMM-beads/Images/WhiteBeadChoice.png","","","","","","","","","",""
"image-keyboard-response","201","274892","0.0-3.0-6.0-1.0-2.21","612bbb31165932bda554443a","6662009ae78f21dd82fcd179","6662180a890b0cd3c56323fe","null","","null","","","","","","","","./tasks/HMM-beads/Images/WhiteBeadChoiceCorrect.png","","","","","","","","","",""
"image-keyboard-response","202","275474","0.0-3.0-6.0-1.0-0.22","612bbb31165932bda554443a","6662009ae78f21dd82fcd179","6662180a890b0cd3c56323fe","580","","f","","","","","","","","./tasks/HMM-beads/Images/NewTrialWC.png","lowH","1","22","1","1","1","0","false","",""
"image-keyboard-response","203","275781","0.0-3.0-6.0-1.0-1.22","612bbb31165932bda554443a","6662009ae78f21dd82fcd179","6662180a890b0cd3c56323fe","null","","null","","","","","","","","./tasks/HMM-beads/Images/BlackBeadChoice.png","","","","","","","","","",""
"image-keyboard-response","204","276284","0.0-3.0-6.0-1.0-2.22","612bbb31165932bda554443a","6662009ae78f21dd82fcd179","6662180a890b0cd3c56323fe","null","","null","","","","","","","","./tasks/HMM-beads/Images/BlackBeadChoiceWrong.png","","","","","","","","","",""
"image-keyboard-response","205","276683","0.0-3.0-6.0-1.0-0.23","612bbb31165932bda554443a","6662009ae78f21dd82fcd179","6662180a890b0cd3c56323fe","397","","j","","","","","","","","./tasks/HMM-beads/Images/NewTrialWC.png","lowH","1","23","1","1","1","1","true","",""
"image-keyboard-response","206","276988","0.0-3.0-6.0-1.0-1.23","612bbb31165932bda554443a","6662009ae78f21dd82fcd179","6662180a890b0cd3c56323fe","null","","null","","","","","","","","./tasks/HMM-beads/Images/WhiteBeadChoice.png","","","","","","","","","",""
"image-keyboard-response","207","277504","0.0-3.0-6.0-1.0-2.23","612bbb31165932bda554443a","6662009ae78f21dd82fcd179","6662180a890b0cd3c56323fe","null","","null","","","","","","","","./tasks/HMM-beads/Images/WhiteBeadChoiceCorrect.png","","","","","","","","","",""
"image-keyboard-response","208","277891","0.0-3.0-6.0-1.0-0.24","612bbb31165932bda554443a","6662009ae78f21dd82fcd179","6662180a890b0cd3c56323fe","385","","j","","","","","","","","./tasks/HMM-beads/Images/NewTrialWC.png","lowH","1","24","1","0","1","1","false","",""
"image-keyboard-response","209","278198","0.0-3.0-6.0-1.0-1.24","612bbb31165932bda554443a","6662009ae78f21dd82fcd179","6662180a890b0cd3c56323fe","null","","null","","","","","","","","./tasks/HMM-beads/Images/WhiteBeadChoice.png","","","","","","","","","",""
"image-keyboard-response","210","278701","0.0-3.0-6.0-1.0-2.24","612bbb31165932bda554443a","6662009ae78f21dd82fcd179","6662180a890b0cd3c56323fe","null","","null","","","","","","","","./tasks/HMM-beads/Images/WhiteBeadChoiceWrong.png","","","","","","","","","",""
"image-keyboard-response","211","279576","0.0-3.0-6.0-1.0-0.25","612bbb31165932bda554443a","6662009ae78f21dd82fcd179","6662180a890b0cd3c56323fe","873","","j","","","","","","","","./tasks/HMM-beads/Images/NewTrialBC.png","lowH","1","25","1","1","0","1","true","",""
"image-keyboard-response","212","279880","0.0-3.0-6.0-1.0-1.25","612bbb31165932bda554443a","6662009ae78f21dd82fcd179","6662180a890b0cd3c56323fe","null","","null","","","","","","","","./tasks/HMM-beads/Images/WhiteBeadChoice.png","","","","","","","","","",""
"image-keyboard-response","213","280383","0.0-3.0-6.0-1.0-2.25","612bbb31165932bda554443a","6662009ae78f21dd82fcd179","6662180a890b0cd3c56323fe","null","","null","","","","","","","","./tasks/HMM-beads/Images/WhiteBeadChoiceCorrect.png","","","","","","","","","",""
"image-keyboard-response","214","280864","0.0-3.0-6.0-1.0-0.26","612bbb31165932bda554443a","6662009ae78f21dd82fcd179","6662180a890b0cd3c56323fe","480","","j","","","","","","","","./tasks/HMM-beads/Images/NewTrialWC.png","lowH","1","26","1","0","1","1","false","",""
"image-keyboard-response","215","281188","0.0-3.0-6.0-1.0-1.26","612bbb31165932bda554443a","6662009ae78f21dd82fcd179","6662180a890b0cd3c56323fe","null","","null","","","","","","","","./tasks/HMM-beads/Images/WhiteBeadChoice.png","","","","","","","","","",""
"image-keyboard-response","216","281701","0.0-3.0-6.0-1.0-2.26","612bbb31165932bda554443a","6662009ae78f21dd82fcd179","6662180a890b0cd3c56323fe","null","","null","","","","","","","","./tasks/HMM-beads/Images/WhiteBeadChoiceWrong.png","","","","","","","","","",""
"image-keyboard-response","217","282141","0.0-3.0-6.0-1.0-0.27","612bbb31165932bda554443a","6662009ae78f21dd82fcd179","6662180a890b0cd3c56323fe","438","","j","","","","","","","","./tasks/HMM-beads/Images/NewTrialBC.png","lowH","1","27","1","1","0","1","true","",""
"image-keyboard-response","218","282446","0.0-3.0-6.0-1.0-1.27","612bbb31165932bda554443a","6662009ae78f21dd82fcd179","6662180a890b0cd3c56323fe","null","","null","","","","","","","","./tasks/HMM-beads/Images/WhiteBeadChoice.png","","","","","","","","","",""
"image-keyboard-response","219","282950","0.0-3.0-6.0-1.0-2.27","612bbb31165932bda554443a","6662009ae78f21dd82fcd179","6662180a890b0cd3c56323fe","null","","null","","","","","","","","./tasks/HMM-beads/Images/WhiteBeadChoiceCorrect.png","","","","","","","","","",""
"image-keyboard-response","220","283560","0.0-3.0-6.0-1.0-0.28","612bbb31165932bda554443a","6662009ae78f21dd82fcd179","6662180a890b0cd3c56323fe","608","","j","","","","","","","","./tasks/HMM-beads/Images/NewTrialWC.png","lowH","1","28","1","1","1","1","true","",""
"image-keyboard-response","221","283864","0.0-3.0-6.0-1.0-1.28","612bbb31165932bda554443a","6662009ae78f21dd82fcd179","6662180a890b0cd3c56323fe","null","","null","","","","","","","","./tasks/HMM-beads/Images/WhiteBeadChoice.png","","","","","","","","","",""
"image-keyboard-response","222","284367","0.0-3.0-6.0-1.0-2.28","612bbb31165932bda554443a","6662009ae78f21dd82fcd179","6662180a890b0cd3c56323fe","null","","null","","","","","","","","./tasks/HMM-beads/Images/WhiteBeadChoiceCorrect.png","","","","","","","","","",""
"image-keyboard-response","223","284840","0.0-3.0-6.0-1.0-0.29","612bbb31165932bda554443a","6662009ae78f21dd82fcd179","6662180a890b0cd3c56323fe","471","","j","","","","","","","","./tasks/HMM-beads/Images/NewTrialWC.png","lowH","1","29","1","1","1","1","true","",""
"image-keyboard-response","224","285155","0.0-3.0-6.0-1.0-1.29","612bbb31165932bda554443a","6662009ae78f21dd82fcd179","6662180a890b0cd3c56323fe","null","","null","","","","","","","","./tasks/HMM-beads/Images/WhiteBeadChoice.png","","","","","","","","","",""
"image-keyboard-response","225","285659","0.0-3.0-6.0-1.0-2.29","612bbb31165932bda554443a","6662009ae78f21dd82fcd179","6662180a890b0cd3c56323fe","null","","null","","","","","","","","./tasks/HMM-beads/Images/WhiteBeadChoiceCorrect.png","","","","","","","","","",""
"image-keyboard-response","226","286102","0.0-3.0-6.0-1.0-0.30","612bbb31165932bda554443a","6662009ae78f21dd82fcd179","6662180a890b0cd3c56323fe","441","","j","","","","","","","","./tasks/HMM-beads/Images/NewTrialWC.png","lowH","1","30","1","1","1","1","true","",""
"image-keyboard-response","227","286404","0.0-3.0-6.0-1.0-1.30","612bbb31165932bda554443a","6662009ae78f21dd82fcd179","6662180a890b0cd3c56323fe","null","","null","","","","","","","","./tasks/HMM-beads/Images/WhiteBeadChoice.png","","","","","","","","","",""
"image-keyboard-response","228","286926","0.0-3.0-6.0-1.0-2.30","612bbb31165932bda554443a","6662009ae78f21dd82fcd179","6662180a890b0cd3c56323fe","null","","null","","","","","","","","./tasks/HMM-beads/Images/WhiteBeadChoiceCorrect.png","","","","","","","","","",""
"image-keyboard-response","229","287347","0.0-3.0-6.0-1.0-0.31","612bbb31165932bda554443a","6662009ae78f21dd82fcd179","6662180a890b0cd3c56323fe","419","","f","","","","","","","","./tasks/HMM-beads/Images/NewTrialWC.png","lowH","1","31","1","1","1","0","false","",""
"image-keyboard-response","230","287654","0.0-3.0-6.0-1.0-1.31","612bbb31165932bda554443a","6662009ae78f21dd82fcd179","6662180a890b0cd3c56323fe","null","","null","","","","","","","","./tasks/HMM-beads/Images/BlackBeadChoice.png","","","","","","","","","",""
"image-keyboard-response","231","288166","0.0-3.0-6.0-1.0-2.31","612bbb31165932bda554443a","6662009ae78f21dd82fcd179","6662180a890b0cd3c56323fe","null","","null","","","","","","","","./tasks/HMM-beads/Images/BlackBeadChoiceWrong.png","","","","","","","","","",""
"image-keyboard-response","232","288663","0.0-3.0-6.0-1.0-0.32","612bbb31165932bda554443a","6662009ae78f21dd82fcd179","6662180a890b0cd3c56323fe","495","","j","","","","","","","","./tasks/HMM-beads/Images/NewTrialWC.png","lowH","1","32","1","1","1","1","true","",""
"image-keyboard-response","233","288971","0.0-3.0-6.0-1.0-1.32","612bbb31165932bda554443a","6662009ae78f21dd82fcd179","6662180a890b0cd3c56323fe","null","","null","","","","","","","","./tasks/HMM-beads/Images/WhiteBeadChoice.png","","","","","","","","","",""
"image-keyboard-response","234","289482","0.0-3.0-6.0-1.0-2.32","612bbb31165932bda554443a","6662009ae78f21dd82fcd179","6662180a890b0cd3c56323fe","null","","null","","","","","","","","./tasks/HMM-beads/Images/WhiteBeadChoiceCorrect.png","","","","","","","","","",""
"image-keyboard-response","235","290074","0.0-3.0-6.0-1.0-0.33","612bbb31165932bda554443a","6662009ae78f21dd82fcd179","6662180a890b0cd3c56323fe","589","","j","","","","","","","","./tasks/HMM-beads/Images/NewTrialWC.png","lowH","1","33","1","1","1","1","true","",""
"image-keyboard-response","236","290379","0.0-3.0-6.0-1.0-1.33","612bbb31165932bda554443a","6662009ae78f21dd82fcd179","6662180a890b0cd3c56323fe","null","","null","","","","","","","","./tasks/HMM-beads/Images/WhiteBeadChoice.png","","","","","","","","","",""
"image-keyboard-response","237","290884","0.0-3.0-6.0-1.0-2.33","612bbb31165932bda554443a","6662009ae78f21dd82fcd179","6662180a890b0cd3c56323fe","null","","null","","","","","","","","./tasks/HMM-beads/Images/WhiteBeadChoiceCorrect.png","","","","","","","","","",""
"image-keyboard-response","238","291333","0.0-3.0-6.0-1.0-0.34","612bbb31165932bda554443a","6662009ae78f21dd82fcd179","6662180a890b0cd3c56323fe","447","","f","","","","","","","","./tasks/HMM-beads/Images/NewTrialWC.png","lowH","1","34","1","1","1","0","false","",""
"image-keyboard-response","239","291637","0.0-3.0-6.0-1.0-1.34","612bbb31165932bda554443a","6662009ae78f21dd82fcd179","6662180a890b0cd3c56323fe","null","","null","","","","","","","","./tasks/HMM-beads/Images/BlackBeadChoice.png","","","","","","","","","",""
"image-keyboard-response","240","292151","0.0-3.0-6.0-1.0-2.34","612bbb31165932bda554443a","6662009ae78f21dd82fcd179","6662180a890b0cd3c56323fe","null","","null","","","","","","","","./tasks/HMM-beads/Images/BlackBeadChoiceWrong.png","","","","","","","","","",""
"image-keyboard-response","241","292583","0.0-3.0-6.0-1.0-0.35","612bbb31165932bda554443a","6662009ae78f21dd82fcd179","6662180a890b0cd3c56323fe","430","","j","","","","","","","","./tasks/HMM-beads/Images/NewTrialWC.png","lowH","1","35","1","1","1","1","true","",""
"image-keyboard-response","242","292896","0.0-3.0-6.0-1.0-1.35","612bbb31165932bda554443a","6662009ae78f21dd82fcd179","6662180a890b0cd3c56323fe","null","","null","","","","","","","","./tasks/HMM-beads/Images/WhiteBeadChoice.png","","","","","","","","","",""
"image-keyboard-response","243","293399","0.0-3.0-6.0-1.0-2.35","612bbb31165932bda554443a","6662009ae78f21dd82fcd179","6662180a890b0cd3c56323fe","null","","null","","","","","","","","./tasks/HMM-beads/Images/WhiteBeadChoiceCorrect.png","","","","","","","","","",""
"image-keyboard-response","244","293844","0.0-3.0-6.0-1.0-0.36","612bbb31165932bda554443a","6662009ae78f21dd82fcd179","6662180a890b0cd3c56323fe","443","","j","","","","","","","","./tasks/HMM-beads/Images/NewTrialWC.png","lowH","1","36","1","1","1","1","true","",""
"image-keyboard-response","245","294147","0.0-3.0-6.0-1.0-1.36","612bbb31165932bda554443a","6662009ae78f21dd82fcd179","6662180a890b0cd3c56323fe","null","","null","","","","","","","","./tasks/HMM-beads/Images/WhiteBeadChoice.png","","","","","","","","","",""
"image-keyboard-response","246","294651","0.0-3.0-6.0-1.0-2.36","612bbb31165932bda554443a","6662009ae78f21dd82fcd179","6662180a890b0cd3c56323fe","null","","null","","","","","","","","./tasks/HMM-beads/Images/WhiteBeadChoiceCorrect.png","","","","","","","","","",""
"image-keyboard-response","247","295033","0.0-3.0-6.0-1.0-0.37","612bbb31165932bda554443a","6662009ae78f21dd82fcd179","6662180a890b0cd3c56323fe","381","","f","","","","","","","","./tasks/HMM-beads/Images/NewTrialWC.png","lowH","1","37","1","1","1","0","false","",""
"image-keyboard-response","248","295346","0.0-3.0-6.0-1.0-1.37","612bbb31165932bda554443a","6662009ae78f21dd82fcd179","6662180a890b0cd3c56323fe","null","","null","","","","","","","","./tasks/HMM-beads/Images/BlackBeadChoice.png","","","","","","","","","",""
"image-keyboard-response","249","295850","0.0-3.0-6.0-1.0-2.37","612bbb31165932bda554443a","6662009ae78f21dd82fcd179","6662180a890b0cd3c56323fe","null","","null","","","","","","","","./tasks/HMM-beads/Images/BlackBeadChoiceWrong.png","","","","","","","","","",""
"image-keyboard-response","250","296263","0.0-3.0-6.0-1.0-0.38","612bbb31165932bda554443a","6662009ae78f21dd82fcd179","6662180a890b0cd3c56323fe","412","","j","","","","","","","","./tasks/HMM-beads/Images/NewTrialWC.png","lowH","1","38","1","1","1","1","true","",""
"image-keyboard-response","251","296578","0.0-3.0-6.0-1.0-1.38","612bbb31165932bda554443a","6662009ae78f21dd82fcd179","6662180a890b0cd3c56323fe","null","","null","","","","","","","","./tasks/HMM-beads/Images/WhiteBeadChoice.png","","","","","","","","","",""
"image-keyboard-response","252","297083","0.0-3.0-6.0-1.0-2.38","612bbb31165932bda554443a","6662009ae78f21dd82fcd179","6662180a890b0cd3c56323fe","null","","null","","","","","","","","./tasks/HMM-beads/Images/WhiteBeadChoiceCorrect.png","","","","","","","","","",""
"image-keyboard-response","253","297538","0.0-3.0-6.0-1.0-0.39","612bbb31165932bda554443a","6662009ae78f21dd82fcd179","6662180a890b0cd3c56323fe","454","","j","","","","","","","","./tasks/HMM-beads/Images/NewTrialWC.png","lowH","1","39","1","1","1","1","true","",""
"image-keyboard-response","254","297852","0.0-3.0-6.0-1.0-1.39","612bbb31165932bda554443a","6662009ae78f21dd82fcd179","6662180a890b0cd3c56323fe","null","","null","","","","","","","","./tasks/HMM-beads/Images/WhiteBeadChoice.png","","","","","","","","","",""
"image-keyboard-response","255","298366","0.0-3.0-6.0-1.0-2.39","612bbb31165932bda554443a","6662009ae78f21dd82fcd179","6662180a890b0cd3c56323fe","null","","null","","","","","","","","./tasks/HMM-beads/Images/WhiteBeadChoiceCorrect.png","","","","","","","","","",""
"image-keyboard-response","256","298914","0.0-3.0-6.0-1.0-0.40","612bbb31165932bda554443a","6662009ae78f21dd82fcd179","6662180a890b0cd3c56323fe","546","","j","","","","","","","","./tasks/HMM-beads/Images/NewTrialWC.png","lowH","1","40","1","1","1","1","true","",""
"image-keyboard-response","257","299221","0.0-3.0-6.0-1.0-1.40","612bbb31165932bda554443a","6662009ae78f21dd82fcd179","6662180a890b0cd3c56323fe","null","","null","","","","","","","","./tasks/HMM-beads/Images/WhiteBeadChoice.png","","","","","","","","","",""
"image-keyboard-response","258","299735","0.0-3.0-6.0-1.0-2.40","612bbb31165932bda554443a","6662009ae78f21dd82fcd179","6662180a890b0cd3c56323fe","null","","null","","","","","","","","./tasks/HMM-beads/Images/WhiteBeadChoiceCorrect.png","","","","","","","","","",""
"image-keyboard-response","259","300296","0.0-3.0-6.0-1.0-0.41","612bbb31165932bda554443a","6662009ae78f21dd82fcd179","6662180a890b0cd3c56323fe","559","","j","","","","","","","","./tasks/HMM-beads/Images/NewTrialWC.png","lowH","1","41","1","1","1","1","true","",""
"image-keyboard-response","260","300612","0.0-3.0-6.0-1.0-1.41","612bbb31165932bda554443a","6662009ae78f21dd82fcd179","6662180a890b0cd3c56323fe","null","","null","","","","","","","","./tasks/HMM-beads/Images/WhiteBeadChoice.png","","","","","","","","","",""
"image-keyboard-response","261","301116","0.0-3.0-6.0-1.0-2.41","612bbb31165932bda554443a","6662009ae78f21dd82fcd179","6662180a890b0cd3c56323fe","null","","null","","","","","","","","./tasks/HMM-beads/Images/WhiteBeadChoiceCorrect.png","","","","","","","","","",""
"image-keyboard-response","262","301589","0.0-3.0-6.0-1.0-0.42","612bbb31165932bda554443a","6662009ae78f21dd82fcd179","6662180a890b0cd3c56323fe","472","","j","","","","","","","","./tasks/HMM-beads/Images/NewTrialWC.png","lowH","1","42","1","1","1","1","true","",""
"image-keyboard-response","263","301903","0.0-3.0-6.0-1.0-1.42","612bbb31165932bda554443a","6662009ae78f21dd82fcd179","6662180a890b0cd3c56323fe","null","","null","","","","","","","","./tasks/HMM-beads/Images/WhiteBeadChoice.png","","","","","","","","","",""
"image-keyboard-response","264","302407","0.0-3.0-6.0-1.0-2.42","612bbb31165932bda554443a","6662009ae78f21dd82fcd179","6662180a890b0cd3c56323fe","null","","null","","","","","","","","./tasks/HMM-beads/Images/WhiteBeadChoiceCorrect.png","","","","","","","","","",""
"image-keyboard-response","265","302905","0.0-3.0-6.0-1.0-0.43","612bbb31165932bda554443a","6662009ae78f21dd82fcd179","6662180a890b0cd3c56323fe","496","","j","","","","","","","","./tasks/HMM-beads/Images/NewTrialWC.png","lowH","1","43","1","1","1","1","true","",""
"image-keyboard-response","266","303219","0.0-3.0-6.0-1.0-1.43","612bbb31165932bda554443a","6662009ae78f21dd82fcd179","6662180a890b0cd3c56323fe","null","","null","","","","","","","","./tasks/HMM-beads/Images/WhiteBeadChoice.png","","","","","","","","","",""
"image-keyboard-response","267","303749","0.0-3.0-6.0-1.0-2.43","612bbb31165932bda554443a","6662009ae78f21dd82fcd179","6662180a890b0cd3c56323fe","null","","null","","","","","","","","./tasks/HMM-beads/Images/WhiteBeadChoiceCorrect.png","","","","","","","","","",""
"image-keyboard-response","268","304171","0.0-3.0-6.0-1.0-0.44","612bbb31165932bda554443a","6662009ae78f21dd82fcd179","6662180a890b0cd3c56323fe","420","","j","","","","","","","","./tasks/HMM-beads/Images/NewTrialWC.png","lowH","1","44","1","1","1","1","true","",""
"image-keyboard-response","269","304477","0.0-3.0-6.0-1.0-1.44","612bbb31165932bda554443a","6662009ae78f21dd82fcd179","6662180a890b0cd3c56323fe","null","","null","","","","","","","","./tasks/HMM-beads/Images/WhiteBeadChoice.png","","","","","","","","","",""
"image-keyboard-response","270","304979","0.0-3.0-6.0-1.0-2.44","612bbb31165932bda554443a","6662009ae78f21dd82fcd179","6662180a890b0cd3c56323fe","null","","null","","","","","","","","./tasks/HMM-beads/Images/WhiteBeadChoiceCorrect.png","","","","","","","","","",""
"image-keyboard-response","271","305521","0.0-3.0-6.0-1.0-0.45","612bbb31165932bda554443a","6662009ae78f21dd82fcd179","6662180a890b0cd3c56323fe","540","","j","","","","","","","","./tasks/HMM-beads/Images/NewTrialWC.png","lowH","1","45","1","1","1","1","true","",""
"image-keyboard-response","272","305824","0.0-3.0-6.0-1.0-1.45","612bbb31165932bda554443a","6662009ae78f21dd82fcd179","6662180a890b0cd3c56323fe","null","","null","","","","","","","","./tasks/HMM-beads/Images/WhiteBeadChoice.png","","","","","","","","","",""
"image-keyboard-response","273","306333","0.0-3.0-6.0-1.0-2.45","612bbb31165932bda554443a","6662009ae78f21dd82fcd179","6662180a890b0cd3c56323fe","null","","null","","","","","","","","./tasks/HMM-beads/Images/WhiteBeadChoiceCorrect.png","","","","","","","","","",""
"image-keyboard-response","274","306825","0.0-3.0-6.0-1.0-0.46","612bbb31165932bda554443a","6662009ae78f21dd82fcd179","6662180a890b0cd3c56323fe","490","","j","","","","","","","","./tasks/HMM-beads/Images/NewTrialWC.png","lowH","1","46","1","1","1","1","true","",""
"image-keyboard-response","275","307136","0.0-3.0-6.0-1.0-1.46","612bbb31165932bda554443a","6662009ae78f21dd82fcd179","6662180a890b0cd3c56323fe","null","","null","","","","","","","","./tasks/HMM-beads/Images/WhiteBeadChoice.png","","","","","","","","","",""
"image-keyboard-response","276","307649","0.0-3.0-6.0-1.0-2.46","612bbb31165932bda554443a","6662009ae78f21dd82fcd179","6662180a890b0cd3c56323fe","null","","null","","","","","","","","./tasks/HMM-beads/Images/WhiteBeadChoiceCorrect.png","","","","","","","","","",""
"image-keyboard-response","277","308134","0.0-3.0-6.0-1.0-0.47","612bbb31165932bda554443a","6662009ae78f21dd82fcd179","6662180a890b0cd3c56323fe","483","","j","","","","","","","","./tasks/HMM-beads/Images/NewTrialWC.png","lowH","1","47","1","0","1","1","false","",""
"image-keyboard-response","278","308444","0.0-3.0-6.0-1.0-1.47","612bbb31165932bda554443a","6662009ae78f21dd82fcd179","6662180a890b0cd3c56323fe","null","","null","","","","","","","","./tasks/HMM-beads/Images/WhiteBeadChoice.png","","","","","","","","","",""
"image-keyboard-response","279","308949","0.0-3.0-6.0-1.0-2.47","612bbb31165932bda554443a","6662009ae78f21dd82fcd179","6662180a890b0cd3c56323fe","null","","null","","","","","","","","./tasks/HMM-beads/Images/WhiteBeadChoiceWrong.png","","","","","","","","","",""
"image-keyboard-response","280","309809","0.0-3.0-6.0-1.0-0.48","612bbb31165932bda554443a","6662009ae78f21dd82fcd179","6662180a890b0cd3c56323fe","858","","j","","","","","","","","./tasks/HMM-beads/Images/NewTrialBC.png","lowH","1","48","1","0","0","1","false","",""
"image-keyboard-response","281","310112","0.0-3.0-6.0-1.0-1.48","612bbb31165932bda554443a","6662009ae78f21dd82fcd179","6662180a890b0cd3c56323fe","null","","null","","","","","","","","./tasks/HMM-beads/Images/WhiteBeadChoice.png","","","","","","","","","",""
"image-keyboard-response","282","310623","0.0-3.0-6.0-1.0-2.48","612bbb31165932bda554443a","6662009ae78f21dd82fcd179","6662180a890b0cd3c56323fe","null","","null","","","","","","","","./tasks/HMM-beads/Images/WhiteBeadChoiceWrong.png","","","","","","","","","",""
"image-keyboard-response","283","311254","0.0-3.0-6.0-1.0-0.49","612bbb31165932bda554443a","6662009ae78f21dd82fcd179","6662180a890b0cd3c56323fe","629","","f","","","","","","","","./tasks/HMM-beads/Images/NewTrialBC.png","lowH","1","49","1","0","0","0","true","",""
"image-keyboard-response","284","311561","0.0-3.0-6.0-1.0-1.49","612bbb31165932bda554443a","6662009ae78f21dd82fcd179","6662180a890b0cd3c56323fe","null","","null","","","","","","","","./tasks/HMM-beads/Images/BlackBeadChoice.png","","","","","","","","","",""
"image-keyboard-response","285","312065","0.0-3.0-6.0-1.0-2.49","612bbb31165932bda554443a","6662009ae78f21dd82fcd179","6662180a890b0cd3c56323fe","null","","null","","","","","","","","./tasks/HMM-beads/Images/BlackBeadChoiceCorrect.png","","","","","","","","","",""
"image-keyboard-response","286","312763","0.0-3.0-6.0-1.0-0.50","612bbb31165932bda554443a","6662009ae78f21dd82fcd179","6662180a890b0cd3c56323fe","696","","f","","","","","","","","./tasks/HMM-beads/Images/NewTrialBC.png","lowH","1","50","1","1","0","0","false","",""
"image-keyboard-response","287","313070","0.0-3.0-6.0-1.0-1.50","612bbb31165932bda554443a","6662009ae78f21dd82fcd179","6662180a890b0cd3c56323fe","null","","null","","","","","","","","./tasks/HMM-beads/Images/BlackBeadChoice.png","","","","","","","","","",""
"image-keyboard-response","288","313582","0.0-3.0-6.0-1.0-2.50","612bbb31165932bda554443a","6662009ae78f21dd82fcd179","6662180a890b0cd3c56323fe","null","","null","","","","","","","","./tasks/HMM-beads/Images/BlackBeadChoiceWrong.png","","","","","","","","","",""
"image-keyboard-response","289","313857","0.0-3.0-6.0-1.0-0.51","612bbb31165932bda554443a","6662009ae78f21dd82fcd179","6662180a890b0cd3c56323fe","273","","j","","","","","","","","./tasks/HMM-beads/Images/NewTrialWC.png","lowH","1","51","1","1","1","1","true","",""
"image-keyboard-response","290","314161","0.0-3.0-6.0-1.0-1.51","612bbb31165932bda554443a","6662009ae78f21dd82fcd179","6662180a890b0cd3c56323fe","null","","null","","","","","","","","./tasks/HMM-beads/Images/WhiteBeadChoice.png","","","","","","","","","",""
"image-keyboard-response","291","314666","0.0-3.0-6.0-1.0-2.51","612bbb31165932bda554443a","6662009ae78f21dd82fcd179","6662180a890b0cd3c56323fe","null","","null","","","","","","","","./tasks/HMM-beads/Images/WhiteBeadChoiceCorrect.png","","","","","","","","","",""
"image-keyboard-response","292","315126","0.0-3.0-6.0-1.0-0.52","612bbb31165932bda554443a","6662009ae78f21dd82fcd179","6662180a890b0cd3c56323fe","458","","j","","","","","","","","./tasks/HMM-beads/Images/NewTrialWC.png","lowH","1","52","1","1","1","1","true","",""
"image-keyboard-response","293","315445","0.0-3.0-6.0-1.0-1.52","612bbb31165932bda554443a","6662009ae78f21dd82fcd179","6662180a890b0cd3c56323fe","null","","null","","","","","","","","./tasks/HMM-beads/Images/WhiteBeadChoice.png","","","","","","","","","",""
"image-keyboard-response","294","315949","0.0-3.0-6.0-1.0-2.52","612bbb31165932bda554443a","6662009ae78f21dd82fcd179","6662180a890b0cd3c56323fe","null","","null","","","","","","","","./tasks/HMM-beads/Images/WhiteBeadChoiceCorrect.png","","","","","","","","","",""
"image-keyboard-response","295","316357","0.0-3.0-6.0-1.0-0.53","612bbb31165932bda554443a","6662009ae78f21dd82fcd179","6662180a890b0cd3c56323fe","407","","j","","","","","","","","./tasks/HMM-beads/Images/NewTrialWC.png","lowH","1","53","1","1","1","1","true","",""
"image-keyboard-response","296","316662","0.0-3.0-6.0-1.0-1.53","612bbb31165932bda554443a","6662009ae78f21dd82fcd179","6662180a890b0cd3c56323fe","null","","null","","","","","","","","./tasks/HMM-beads/Images/WhiteBeadChoice.png","","","","","","","","","",""
"image-keyboard-response","297","317165","0.0-3.0-6.0-1.0-2.53","612bbb31165932bda554443a","6662009ae78f21dd82fcd179","6662180a890b0cd3c56323fe","null","","null","","","","","","","","./tasks/HMM-beads/Images/WhiteBeadChoiceCorrect.png","","","","","","","","","",""
"image-keyboard-response","298","317543","0.0-3.0-6.0-1.0-0.54","612bbb31165932bda554443a","6662009ae78f21dd82fcd179","6662180a890b0cd3c56323fe","377","","j","","","","","","","","./tasks/HMM-beads/Images/NewTrialWC.png","lowH","1","54","1","1","1","1","true","",""
"image-keyboard-response","299","317859","0.0-3.0-6.0-1.0-1.54","612bbb31165932bda554443a","6662009ae78f21dd82fcd179","6662180a890b0cd3c56323fe","null","","null","","","","","","","","./tasks/HMM-beads/Images/WhiteBeadChoice.png","","","","","","","","","",""
"image-keyboard-response","300","318371","0.0-3.0-6.0-1.0-2.54","612bbb31165932bda554443a","6662009ae78f21dd82fcd179","6662180a890b0cd3c56323fe","null","","null","","","","","","","","./tasks/HMM-beads/Images/WhiteBeadChoiceCorrect.png","","","","","","","","","",""
"image-keyboard-response","301","318774","0.0-3.0-6.0-1.0-0.55","612bbb31165932bda554443a","6662009ae78f21dd82fcd179","6662180a890b0cd3c56323fe","401","","j","","","","","","","","./tasks/HMM-beads/Images/NewTrialWC.png","lowH","1","55","1","1","1","1","true","",""
"image-keyboard-response","302","319078","0.0-3.0-6.0-1.0-1.55","612bbb31165932bda554443a","6662009ae78f21dd82fcd179","6662180a890b0cd3c56323fe","null","","null","","","","","","","","./tasks/HMM-beads/Images/WhiteBeadChoice.png","","","","","","","","","",""
"image-keyboard-response","303","319589","0.0-3.0-6.0-1.0-2.55","612bbb31165932bda554443a","6662009ae78f21dd82fcd179","6662180a890b0cd3c56323fe","null","","null","","","","","","","","./tasks/HMM-beads/Images/WhiteBeadChoiceCorrect.png","","","","","","","","","",""
"image-keyboard-response","304","319984","0.0-3.0-6.0-1.0-0.56","612bbb31165932bda554443a","6662009ae78f21dd82fcd179","6662180a890b0cd3c56323fe","393","","j","","","","","","","","./tasks/HMM-beads/Images/NewTrialWC.png","lowH","1","56","1","1","1","1","true","",""
"image-keyboard-response","305","320294","0.0-3.0-6.0-1.0-1.56","612bbb31165932bda554443a","6662009ae78f21dd82fcd179","6662180a890b0cd3c56323fe","null","","null","","","","","","","","./tasks/HMM-beads/Images/WhiteBeadChoice.png","","","","","","","","","",""
"image-keyboard-response","306","320815","0.0-3.0-6.0-1.0-2.56","612bbb31165932bda554443a","6662009ae78f21dd82fcd179","6662180a890b0cd3c56323fe","null","","null","","","","","","","","./tasks/HMM-beads/Images/WhiteBeadChoiceCorrect.png","","","","","","","","","",""
"image-keyboard-response","307","321114","0.0-3.0-6.0-1.0-0.57","612bbb31165932bda554443a","6662009ae78f21dd82fcd179","6662180a890b0cd3c56323fe","299","","j","","","","","","","","./tasks/HMM-beads/Images/NewTrialWC.png","lowH","1","57","1","1","1","1","true","",""
"image-keyboard-response","308","321427","0.0-3.0-6.0-1.0-1.57","612bbb31165932bda554443a","6662009ae78f21dd82fcd179","6662180a890b0cd3c56323fe","null","","null","","","","","","","","./tasks/HMM-beads/Images/WhiteBeadChoice.png","","","","","","","","","",""
"image-keyboard-response","309","321938","0.0-3.0-6.0-1.0-2.57","612bbb31165932bda554443a","6662009ae78f21dd82fcd179","6662180a890b0cd3c56323fe","null","","null","","","","","","","","./tasks/HMM-beads/Images/WhiteBeadChoiceCorrect.png","","","","","","","","","",""
"image-keyboard-response","310","322336","0.0-3.0-6.0-1.0-0.58","612bbb31165932bda554443a","6662009ae78f21dd82fcd179","6662180a890b0cd3c56323fe","397","","j","","","","","","","","./tasks/HMM-beads/Images/NewTrialWC.png","lowH","1","58","1","1","1","1","true","",""
"image-keyboard-response","311","322644","0.0-3.0-6.0-1.0-1.58","612bbb31165932bda554443a","6662009ae78f21dd82fcd179","6662180a890b0cd3c56323fe","null","","null","","","","","","","","./tasks/HMM-beads/Images/WhiteBeadChoice.png","","","","","","","","","",""
"image-keyboard-response","312","323148","0.0-3.0-6.0-1.0-2.58","612bbb31165932bda554443a","6662009ae78f21dd82fcd179","6662180a890b0cd3c56323fe","null","","null","","","","","","","","./tasks/HMM-beads/Images/WhiteBeadChoiceCorrect.png","","","","","","","","","",""
"image-keyboard-response","313","323495","0.0-3.0-6.0-1.0-0.59","612bbb31165932bda554443a","6662009ae78f21dd82fcd179","6662180a890b0cd3c56323fe","345","","j","","","","","","","","./tasks/HMM-beads/Images/NewTrialWC.png","lowH","1","59","1","0","1","1","false","",""
"image-keyboard-response","314","323809","0.0-3.0-6.0-1.0-1.59","612bbb31165932bda554443a","6662009ae78f21dd82fcd179","6662180a890b0cd3c56323fe","null","","null","","","","","","","","./tasks/HMM-beads/Images/WhiteBeadChoice.png","","","","","","","","","",""
"image-keyboard-response","315","324315","0.0-3.0-6.0-1.0-2.59","612bbb31165932bda554443a","6662009ae78f21dd82fcd179","6662180a890b0cd3c56323fe","null","","null","","","","","","","","./tasks/HMM-beads/Images/WhiteBeadChoiceWrong.png","","","","","","","","","",""
"image-keyboard-response","316","325203","0.0-3.0-6.0-1.0-0.60","612bbb31165932bda554443a","6662009ae78f21dd82fcd179","6662180a890b0cd3c56323fe","886","","j","","","","","","","","./tasks/HMM-beads/Images/NewTrialBC.png","lowH","1","60","1","1","0","1","true","",""
"image-keyboard-response","317","325520","0.0-3.0-6.0-1.0-1.60","612bbb31165932bda554443a","6662009ae78f21dd82fcd179","6662180a890b0cd3c56323fe","null","","null","","","","","","","","./tasks/HMM-beads/Images/WhiteBeadChoice.png","","","","","","","","","",""
"image-keyboard-response","318","326031","0.0-3.0-6.0-1.0-2.60","612bbb31165932bda554443a","6662009ae78f21dd82fcd179","6662180a890b0cd3c56323fe","null","","null","","","","","","","","./tasks/HMM-beads/Images/WhiteBeadChoiceCorrect.png","","","","","","","","","",""
"image-keyboard-response","319","326425","0.0-3.0-6.0-1.0-0.61","612bbb31165932bda554443a","6662009ae78f21dd82fcd179","6662180a890b0cd3c56323fe","393","","j","","","","","","","","./tasks/HMM-beads/Images/NewTrialWC.png","lowH","1","61","1","1","1","1","true","",""
"image-keyboard-response","320","326742","0.0-3.0-6.0-1.0-1.61","612bbb31165932bda554443a","6662009ae78f21dd82fcd179","6662180a890b0cd3c56323fe","null","","null","","","","","","","","./tasks/HMM-beads/Images/WhiteBeadChoice.png","","","","","","","","","",""
"image-keyboard-response","321","327247","0.0-3.0-6.0-1.0-2.61","612bbb31165932bda554443a","6662009ae78f21dd82fcd179","6662180a890b0cd3c56323fe","null","","null","","","","","","","","./tasks/HMM-beads/Images/WhiteBeadChoiceCorrect.png","","","","","","","","","",""
"image-keyboard-response","322","327627","0.0-3.0-6.0-1.0-0.62","612bbb31165932bda554443a","6662009ae78f21dd82fcd179","6662180a890b0cd3c56323fe","378","","j","","","","","","","","./tasks/HMM-beads/Images/NewTrialWC.png","lowH","1","62","1","0","1","1","false","",""
"image-keyboard-response","323","327935","0.0-3.0-6.0-1.0-1.62","612bbb31165932bda554443a","6662009ae78f21dd82fcd179","6662180a890b0cd3c56323fe","null","","null","","","","","","","","./tasks/HMM-beads/Images/WhiteBeadChoice.png","","","","","","","","","",""
"image-keyboard-response","324","328447","0.0-3.0-6.0-1.0-2.62","612bbb31165932bda554443a","6662009ae78f21dd82fcd179","6662180a890b0cd3c56323fe","null","","null","","","","","","","","./tasks/HMM-beads/Images/WhiteBeadChoiceWrong.png","","","","","","","","","",""
"image-keyboard-response","325","329758","0.0-3.0-6.0-1.0-0.63","612bbb31165932bda554443a","6662009ae78f21dd82fcd179","6662180a890b0cd3c56323fe","1310","","j","","","","","","","","./tasks/HMM-beads/Images/NewTrialBC.png","lowH","1","63","1","1","0","1","true","",""
"image-keyboard-response","326","330061","0.0-3.0-6.0-1.0-1.63","612bbb31165932bda554443a","6662009ae78f21dd82fcd179","6662180a890b0cd3c56323fe","null","","null","","","","","","","","./tasks/HMM-beads/Images/WhiteBeadChoice.png","","","","","","","","","",""
"image-keyboard-response","327","330564","0.0-3.0-6.0-1.0-2.63","612bbb31165932bda554443a","6662009ae78f21dd82fcd179","6662180a890b0cd3c56323fe","null","","null","","","","","","","","./tasks/HMM-beads/Images/WhiteBeadChoiceCorrect.png","","","","","","","","","",""
"image-keyboard-response","328","330758","0.0-3.0-6.0-1.0-0.64","612bbb31165932bda554443a","6662009ae78f21dd82fcd179","6662180a890b0cd3c56323fe","193","","j","","","","","","","","./tasks/HMM-beads/Images/NewTrialWC.png","lowH","1","64","1","1","1","1","true","",""
"image-keyboard-response","329","331068","0.0-3.0-6.0-1.0-1.64","612bbb31165932bda554443a","6662009ae78f21dd82fcd179","6662180a890b0cd3c56323fe","null","","null","","","","","","","","./tasks/HMM-beads/Images/WhiteBeadChoice.png","","","","","","","","","",""
"image-keyboard-response","330","331580","0.0-3.0-6.0-1.0-2.64","612bbb31165932bda554443a","6662009ae78f21dd82fcd179","6662180a890b0cd3c56323fe","null","","null","","","","","","","","./tasks/HMM-beads/Images/WhiteBeadChoiceCorrect.png","","","","","","","","","",""
"image-keyboard-response","331","332006","0.0-3.0-6.0-1.0-0.65","612bbb31165932bda554443a","6662009ae78f21dd82fcd179","6662180a890b0cd3c56323fe","425","","j","","","","","","","","./tasks/HMM-beads/Images/NewTrialWC.png","lowH","1","65","1","1","1","1","true","",""
"image-keyboard-response","332","332318","0.0-3.0-6.0-1.0-1.65","612bbb31165932bda554443a","6662009ae78f21dd82fcd179","6662180a890b0cd3c56323fe","null","","null","","","","","","","","./tasks/HMM-beads/Images/WhiteBeadChoice.png","","","","","","","","","",""
"image-keyboard-response","333","332831","0.0-3.0-6.0-1.0-2.65","612bbb31165932bda554443a","6662009ae78f21dd82fcd179","6662180a890b0cd3c56323fe","null","","null","","","","","","","","./tasks/HMM-beads/Images/WhiteBeadChoiceCorrect.png","","","","","","","","","",""
"image-keyboard-response","334","333193","0.0-3.0-6.0-1.0-0.66","612bbb31165932bda554443a","6662009ae78f21dd82fcd179","6662180a890b0cd3c56323fe","359","","j","","","","","","","","./tasks/HMM-beads/Images/NewTrialWC.png","lowH","1","66","1","1","1","1","true","",""
"image-keyboard-response","335","333509","0.0-3.0-6.0-1.0-1.66","612bbb31165932bda554443a","6662009ae78f21dd82fcd179","6662180a890b0cd3c56323fe","null","","null","","","","","","","","./tasks/HMM-beads/Images/WhiteBeadChoice.png","","","","","","","","","",""
"image-keyboard-response","336","334015","0.0-3.0-6.0-1.0-2.66","612bbb31165932bda554443a","6662009ae78f21dd82fcd179","6662180a890b0cd3c56323fe","null","","null","","","","","","","","./tasks/HMM-beads/Images/WhiteBeadChoiceCorrect.png","","","","","","","","","",""
"image-keyboard-response","337","334435","0.0-3.0-6.0-1.0-0.67","612bbb31165932bda554443a","6662009ae78f21dd82fcd179","6662180a890b0cd3c56323fe","419","","j","","","","","","","","./tasks/HMM-beads/Images/NewTrialWC.png","lowH","1","67","1","0","1","1","false","",""
"image-keyboard-response","338","334744","0.0-3.0-6.0-1.0-1.67","612bbb31165932bda554443a","6662009ae78f21dd82fcd179","6662180a890b0cd3c56323fe","null","","null","","","","","","","","./tasks/HMM-beads/Images/WhiteBeadChoice.png","","","","","","","","","",""
"image-keyboard-response","339","335247","0.0-3.0-6.0-1.0-2.67","612bbb31165932bda554443a","6662009ae78f21dd82fcd179","6662180a890b0cd3c56323fe","null","","null","","","","","","","","./tasks/HMM-beads/Images/WhiteBeadChoiceWrong.png","","","","","","","","","",""
"image-keyboard-response","340","336092","0.0-3.0-6.0-1.0-0.68","612bbb31165932bda554443a","6662009ae78f21dd82fcd179","6662180a890b0cd3c56323fe","843","","j","","","","","","","","./tasks/HMM-beads/Images/NewTrialBC.png","lowH","1","68","1","1","0","1","true","",""
"image-keyboard-response","341","336408","0.0-3.0-6.0-1.0-1.68","612bbb31165932bda554443a","6662009ae78f21dd82fcd179","6662180a890b0cd3c56323fe","null","","null","","","","","","","","./tasks/HMM-beads/Images/WhiteBeadChoice.png","","","","","","","","","",""
"image-keyboard-response","342","336922","0.0-3.0-6.0-1.0-2.68","612bbb31165932bda554443a","6662009ae78f21dd82fcd179","6662180a890b0cd3c56323fe","null","","null","","","","","","","","./tasks/HMM-beads/Images/WhiteBeadChoiceCorrect.png","","","","","","","","","",""
"image-keyboard-response","343","337189","0.0-3.0-6.0-1.0-0.69","612bbb31165932bda554443a","6662009ae78f21dd82fcd179","6662180a890b0cd3c56323fe","265","","j","","","","","","","","./tasks/HMM-beads/Images/NewTrialWC.png","lowH","1","69","0","1","1","1","true","",""
"image-keyboard-response","344","337493","0.0-3.0-6.0-1.0-1.69","612bbb31165932bda554443a","6662009ae78f21dd82fcd179","6662180a890b0cd3c56323fe","null","","null","","","","","","","","./tasks/HMM-beads/Images/WhiteBeadChoice.png","","","","","","","","","",""
"image-keyboard-response","345","338007","0.0-3.0-6.0-1.0-2.69","612bbb31165932bda554443a","6662009ae78f21dd82fcd179","6662180a890b0cd3c56323fe","null","","null","","","","","","","","./tasks/HMM-beads/Images/WhiteBeadChoiceCorrect.png","","","","","","","","","",""
"image-keyboard-response","346","338316","0.0-3.0-6.0-1.0-0.70","612bbb31165932bda554443a","6662009ae78f21dd82fcd179","6662180a890b0cd3c56323fe","307","","j","","","","","","","","./tasks/HMM-beads/Images/NewTrialWC.png","lowH","1","70","0","1","1","1","true","",""
"image-keyboard-response","347","338627","0.0-3.0-6.0-1.0-1.70","612bbb31165932bda554443a","6662009ae78f21dd82fcd179","6662180a890b0cd3c56323fe","null","","null","","","","","","","","./tasks/HMM-beads/Images/WhiteBeadChoice.png","","","","","","","","","",""
"image-keyboard-response","348","339129","0.0-3.0-6.0-1.0-2.70","612bbb31165932bda554443a","6662009ae78f21dd82fcd179","6662180a890b0cd3c56323fe","null","","null","","","","","","","","./tasks/HMM-beads/Images/WhiteBeadChoiceCorrect.png","","","","","","","","","",""
"image-keyboard-response","349","339500","0.0-3.0-6.0-1.0-0.71","612bbb31165932bda554443a","6662009ae78f21dd82fcd179","6662180a890b0cd3c56323fe","369","","j","","","","","","","","./tasks/HMM-beads/Images/NewTrialWC.png","lowH","1","71","0","0","1","1","false","",""
"image-keyboard-response","350","339803","0.0-3.0-6.0-1.0-1.71","612bbb31165932bda554443a","6662009ae78f21dd82fcd179","6662180a890b0cd3c56323fe","null","","null","","","","","","","","./tasks/HMM-beads/Images/WhiteBeadChoice.png","","","","","","","","","",""
"image-keyboard-response","351","340313","0.0-3.0-6.0-1.0-2.71","612bbb31165932bda554443a","6662009ae78f21dd82fcd179","6662180a890b0cd3c56323fe","null","","null","","","","","","","","./tasks/HMM-beads/Images/WhiteBeadChoiceWrong.png","","","","","","","","","",""
"image-keyboard-response","352","340788","0.0-3.0-6.0-1.0-0.72","612bbb31165932bda554443a","6662009ae78f21dd82fcd179","6662180a890b0cd3c56323fe","473","","j","","","","","","","","./tasks/HMM-beads/Images/NewTrialBC.png","lowH","1","72","0","0","0","1","false","",""
"image-keyboard-response","353","341094","0.0-3.0-6.0-1.0-1.72","612bbb31165932bda554443a","6662009ae78f21dd82fcd179","6662180a890b0cd3c56323fe","null","","null","","","","","","","","./tasks/HMM-beads/Images/WhiteBeadChoice.png","","","","","","","","","",""
"image-keyboard-response","354","341597","0.0-3.0-6.0-1.0-2.72","612bbb31165932bda554443a","6662009ae78f21dd82fcd179","6662180a890b0cd3c56323fe","null","","null","","","","","","","","./tasks/HMM-beads/Images/WhiteBeadChoiceWrong.png","","","","","","","","","",""
"image-keyboard-response","355","342271","0.0-3.0-6.0-1.0-0.73","612bbb31165932bda554443a","6662009ae78f21dd82fcd179","6662180a890b0cd3c56323fe","672","","f","","","","","","","","./tasks/HMM-beads/Images/NewTrialBC.png","lowH","1","73","0","1","0","0","false","",""
"image-keyboard-response","356","342578","0.0-3.0-6.0-1.0-1.73","612bbb31165932bda554443a","6662009ae78f21dd82fcd179","6662180a890b0cd3c56323fe","null","","null","","","","","","","","./tasks/HMM-beads/Images/BlackBeadChoice.png","","","","","","","","","",""
"image-keyboard-response","357","343087","0.0-3.0-6.0-1.0-2.73","612bbb31165932bda554443a","6662009ae78f21dd82fcd179","6662180a890b0cd3c56323fe","null","","null","","","","","","","","./tasks/HMM-beads/Images/BlackBeadChoiceWrong.png","","","","","","","","","",""
"image-keyboard-response","358","343110","0.0-3.0-6.0-1.0-0.74","612bbb31165932bda554443a","6662009ae78f21dd82fcd179","6662180a890b0cd3c56323fe","20","","j","","","","","","","","./tasks/HMM-beads/Images/NewTrialWC.png","lowH","1","74","0","0","1","1","false","",""
"image-keyboard-response","359","343412","0.0-3.0-6.0-1.0-1.74","612bbb31165932bda554443a","6662009ae78f21dd82fcd179","6662180a890b0cd3c56323fe","null","","null","","","","","","","","./tasks/HMM-beads/Images/WhiteBeadChoice.png","","","","","","","","","",""
"image-keyboard-response","360","343914","0.0-3.0-6.0-1.0-2.74","612bbb31165932bda554443a","6662009ae78f21dd82fcd179","6662180a890b0cd3c56323fe","null","","null","","","","","","","","./tasks/HMM-beads/Images/WhiteBeadChoiceWrong.png","","","","","","","","","",""
"image-keyboard-response","361","344673","0.0-3.0-6.0-1.0-0.75","612bbb31165932bda554443a","6662009ae78f21dd82fcd179","6662180a890b0cd3c56323fe","757","","j","","","","","","","","./tasks/HMM-beads/Images/NewTrialBC.png","lowH","1","75","0","1","0","1","true","",""
"image-keyboard-response","362","344977","0.0-3.0-6.0-1.0-1.75","612bbb31165932bda554443a","6662009ae78f21dd82fcd179","6662180a890b0cd3c56323fe","null","","null","","","","","","","","./tasks/HMM-beads/Images/WhiteBeadChoice.png","","","","","","","","","",""
"image-keyboard-response","363","345480","0.0-3.0-6.0-1.0-2.75","612bbb31165932bda554443a","6662009ae78f21dd82fcd179","6662180a890b0cd3c56323fe","null","","null","","","","","","","","./tasks/HMM-beads/Images/WhiteBeadChoiceCorrect.png","","","","","","","","","",""
"image-keyboard-response","364","346028","0.0-3.0-6.0-1.0-0.76","612bbb31165932bda554443a","6662009ae78f21dd82fcd179","6662180a890b0cd3c56323fe","546","","j","","","","","","","","./tasks/HMM-beads/Images/NewTrialWC.png","lowH","1","76","0","1","1","1","true","",""
"image-keyboard-response","365","346335","0.0-3.0-6.0-1.0-1.76","612bbb31165932bda554443a","6662009ae78f21dd82fcd179","6662180a890b0cd3c56323fe","null","","null","","","","","","","","./tasks/HMM-beads/Images/WhiteBeadChoice.png","","","","","","","","","",""
"image-keyboard-response","366","346846","0.0-3.0-6.0-1.0-2.76","612bbb31165932bda554443a","6662009ae78f21dd82fcd179","6662180a890b0cd3c56323fe","null","","null","","","","","","","","./tasks/HMM-beads/Images/WhiteBeadChoiceCorrect.png","","","","","","","","","",""
"image-keyboard-response","367","347213","0.0-3.0-6.0-1.0-0.77","612bbb31165932bda554443a","6662009ae78f21dd82fcd179","6662180a890b0cd3c56323fe","366","","j","","","","","","","","./tasks/HMM-beads/Images/NewTrialWC.png","lowH","1","77","0","0","1","1","false","",""
"image-keyboard-response","368","347518","0.0-3.0-6.0-1.0-1.77","612bbb31165932bda554443a","6662009ae78f21dd82fcd179","6662180a890b0cd3c56323fe","null","","null","","","","","","","","./tasks/HMM-beads/Images/WhiteBeadChoice.png","","","","","","","","","",""
"image-keyboard-response","369","348021","0.0-3.0-6.0-1.0-2.77","612bbb31165932bda554443a","6662009ae78f21dd82fcd179","6662180a890b0cd3c56323fe","null","","null","","","","","","","","./tasks/HMM-beads/Images/WhiteBeadChoiceWrong.png","","","","","","","","","",""
"image-keyboard-response","370","348495","0.0-3.0-6.0-1.0-0.78","612bbb31165932bda554443a","6662009ae78f21dd82fcd179","6662180a890b0cd3c56323fe","472","","j","","","","","","","","./tasks/HMM-beads/Images/NewTrialBC.png","lowH","1","78","0","0","0","1","false","",""
"image-keyboard-response","371","348817","0.0-3.0-6.0-1.0-1.78","612bbb31165932bda554443a","6662009ae78f21dd82fcd179","6662180a890b0cd3c56323fe","null","","null","","","","","","","","./tasks/HMM-beads/Images/WhiteBeadChoice.png","","","","","","","","","",""
"image-keyboard-response","372","349329","0.0-3.0-6.0-1.0-2.78","612bbb31165932bda554443a","6662009ae78f21dd82fcd179","6662180a890b0cd3c56323fe","null","","null","","","","","","","","./tasks/HMM-beads/Images/WhiteBeadChoiceWrong.png","","","","","","","","","",""
"image-keyboard-response","373","349463","0.0-3.0-6.0-1.0-0.79","612bbb31165932bda554443a","6662009ae78f21dd82fcd179","6662180a890b0cd3c56323fe","132","","f","","","","","","","","./tasks/HMM-beads/Images/NewTrialBC.png","lowH","1","79","0","0","0","0","true","",""
"image-keyboard-response","374","349776","0.0-3.0-6.0-1.0-1.79","612bbb31165932bda554443a","6662009ae78f21dd82fcd179","6662180a890b0cd3c56323fe","null","","null","","","","","","","","./tasks/HMM-beads/Images/BlackBeadChoice.png","","","","","","","","","",""
