"trial_type","trial_index","time_elapsed","internal_node_id","subject_id","study_id","session_id","rt","url","response","question_order","view_history","success","timeout","failed_images","failed_audio","failed_video","stimulus","block","block_rep","trial_number","jar","bead","previous_bead","choice","correct","lowH_score","total_bonus"
"pavlovia","0","3517","0.0-0.0","5f4d296913fe2f98d46f520c","6662009ae78f21dd82fcd179","66620beb92eef015f140ae65","","","","","","","","","","","","","","","","","","","","",""
"external-html","1","54127","0.0-1.0-0.0","5f4d296913fe2f98d46f520c","6662009ae78f21dd82fcd179","66620beb92eef015f140ae65","49782","new_consent.html","","","","","","","","","","","","","","","","","","",""
"survey-multi-choice","2","145253","0.0-1.0-1.0","5f4d296913fe2f98d46f520c","6662009ae78f21dd82fcd179","66620beb92eef015f140ae65","91124","","{""Q0"":""Female"",""Q1"":""Black or African American""}","[0,1]","","","","","","","","","","","","","","","","",""
"survey-text","3","148135","0.0-1.0-2.0","5f4d296913fe2f98d46f520c","6662009ae78f21dd82fcd179","66620beb92eef015f140ae65","2878","","{""Q0"":""23""}","","","","","","","","","","","","","","","","","",""
"instructions","4","149862","0.0-2.0","5f4d296913fe2f98d46f520c","6662009ae78f21dd82fcd179","66620beb92eef015f140ae65","1621","","","","[{""page_index"":0,""viewing_time"":1621}]","","","","","","","","","","","","","","","",""
"preload","5","155519","0.0-3.0-0.0","5f4d296913fe2f98d46f520c","6662009ae78f21dd82fcd179","66620beb92eef015f140ae65","","","","","","true","false","[]","[]","[]","","","","","","","","","","",""
"instructions","6","538987","0.0-3.0-1.0","5f4d296913fe2f98d46f520c","6662009ae78f21dd82fcd179","66620beb92eef015f140ae65","383469","","","","[{""page_index"":0,""viewing_time"":282923},{""page_index"":1,""viewing_time"":71385},{""page_index"":2,""viewing_time"":3250},{""page_index"":3,""viewing_time"":1643},{""page_index"":4,""viewing_time"":8219},{""page_index"":5,""viewing_time"":4045},{""page_index"":6,""viewing_time"":1403},{""page_index"":7,""viewing_time"":4606},{""page_index"":8,""viewing_time"":1752},{""page_index"":9,""viewing_time"":766},{""page_index"":10,""viewing_time"":1322},{""page_index"":11,""viewing_time"":2156}]","","","","","","","","","","","","","","","",""
"html-button-response","7","542365","0.0-3.0-2.0-0.0-0.0","5f4d296913fe2f98d46f520c","6662009ae78f21dd82fcd179","66620beb92eef015f140ae65","3376","","1","","","","","","","","<div align=center>Your goal is to predict…?<br><br></div>","","","","","","","","","",""
"html-button-response","8","546699","0.0-3.0-2.0-1.0-0.0","5f4d296913fe2f98d46f520c","6662009ae78f21dd82fcd179","66620beb92eef015f140ae65","2692","","2","","","","","","","","<div align=center>In the jar with mostly white beads, there are ___% white beads and ___% black beads?<br><br></div>","","","","","","","","","",""
"html-button-response","9","551219","0.0-3.0-2.0-2.0-0.0","5f4d296913fe2f98d46f520c","6662009ae78f21dd82fcd179","66620beb92eef015f140ae65","3017","","1","","","","","","","","<div align=center>When there is a 1% probability that the jars will switch, the next bead will most likely be drawn from the…<br><br></div>","","","","","","","","","",""
"html-button-response","10","553738","0.0-3.0-2.0-2.1-0.1","5f4d296913fe2f98d46f520c","6662009ae78f21dd82fcd179","66620beb92eef015f140ae65","907","","0","","","","","","","","<div align=center>When there is a 1% probability that the jars will switch, the next bead will most likely be drawn from the…<br><br></div>","","","","","","","","","",""
"html-button-response","11","557509","0.0-3.0-2.0-3.0-0.0","5f4d296913fe2f98d46f520c","6662009ae78f21dd82fcd179","66620beb92eef015f140ae65","2026","","1","","","","","","","","<div align=center>When there is a 99% probability that the jars will switch, the next bead will most likely be drawn from the…<br><br></div>","","","","","","","","","",""
"instructions","12","561531","0.0-3.0-3.0","5f4d296913fe2f98d46f520c","6662009ae78f21dd82fcd179","66620beb92eef015f140ae65","2851","","","","[{""page_index"":0,""viewing_time"":2851}]","","","","","","","","","","","","","","","",""
"html-keyboard-response","13","563782","0.0-3.0-4.0-0.0","5f4d296913fe2f98d46f520c","6662009ae78f21dd82fcd179","66620beb92eef015f140ae65","2250",""," ","","","","","","","","<div align=center>In this practice block, there will be a <b>1% chance</b> that the jar on the next trial will be different from the jar on the current trial.<br><br></div>","","","","","","","","","",""
"image-keyboard-response","14","569090","0.0-3.0-4.0-1.0-0.0","5f4d296913fe2f98d46f520c","6662009ae78f21dd82fcd179","66620beb92eef015f140ae65","5306","","f","","","","","","","","./tasks/HMM-beads/Images/NoChoice.png","practice","0","0","0","0","9","0","true","",""
"image-keyboard-response","15","569403","0.0-3.0-4.0-1.0-1.0","5f4d296913fe2f98d46f520c","6662009ae78f21dd82fcd179","66620beb92eef015f140ae65","null","","null","","","","","","","","./tasks/HMM-beads/Images/BlackBeadChoice.png","","","","","","","","","",""
"image-keyboard-response","16","569919","0.0-3.0-4.0-1.0-2.0","5f4d296913fe2f98d46f520c","6662009ae78f21dd82fcd179","66620beb92eef015f140ae65","null","","null","","","","","","","","./tasks/HMM-beads/Images/BlackBeadChoiceCorrect.png","","","","","","","","","",""
"image-keyboard-response","17","573341","0.0-3.0-4.0-1.0-0.1","5f4d296913fe2f98d46f520c","6662009ae78f21dd82fcd179","66620beb92eef015f140ae65","3421","","j","","","","","","","","./tasks/HMM-beads/Images/NewTrialBC.png","practice","0","1","0","0","0","1","false","",""
"image-keyboard-response","18","573648","0.0-3.0-4.0-1.0-1.1","5f4d296913fe2f98d46f520c","6662009ae78f21dd82fcd179","66620beb92eef015f140ae65","null","","null","","","","","","","","./tasks/HMM-beads/Images/WhiteBeadChoice.png","","","","","","","","","",""
"image-keyboard-response","19","574151","0.0-3.0-4.0-1.0-2.1","5f4d296913fe2f98d46f520c","6662009ae78f21dd82fcd179","66620beb92eef015f140ae65","null","","null","","","","","","","","./tasks/HMM-beads/Images/WhiteBeadChoiceWrong.png","","","","","","","","","",""
"image-keyboard-response","20","574867","0.0-3.0-4.0-1.0-0.2","5f4d296913fe2f98d46f520c","6662009ae78f21dd82fcd179","66620beb92eef015f140ae65","715","","f","","","","","","","","./tasks/HMM-beads/Images/NewTrialBC.png","practice","0","2","0","1","0","0","false","",""
"image-keyboard-response","21","575180","0.0-3.0-4.0-1.0-1.2","5f4d296913fe2f98d46f520c","6662009ae78f21dd82fcd179","66620beb92eef015f140ae65","null","","null","","","","","","","","./tasks/HMM-beads/Images/BlackBeadChoice.png","","","","","","","","","",""
"image-keyboard-response","22","575696","0.0-3.0-4.0-1.0-2.2","5f4d296913fe2f98d46f520c","6662009ae78f21dd82fcd179","66620beb92eef015f140ae65","null","","null","","","","","","","","./tasks/HMM-beads/Images/BlackBeadChoiceWrong.png","","","","","","","","","",""
"image-keyboard-response","23","576459","0.0-3.0-4.0-1.0-0.3","5f4d296913fe2f98d46f520c","6662009ae78f21dd82fcd179","66620beb92eef015f140ae65","763","","f","","","","","","","","./tasks/HMM-beads/Images/NewTrialWC.png","practice","0","3","0","0","1","0","true","",""
"image-keyboard-response","24","576772","0.0-3.0-4.0-1.0-1.3","5f4d296913fe2f98d46f520c","6662009ae78f21dd82fcd179","66620beb92eef015f140ae65","null","","null","","","","","","","","./tasks/HMM-beads/Images/BlackBeadChoice.png","","","","","","","","","",""
"image-keyboard-response","25","577288","0.0-3.0-4.0-1.0-2.3","5f4d296913fe2f98d46f520c","6662009ae78f21dd82fcd179","66620beb92eef015f140ae65","null","","null","","","","","","","","./tasks/HMM-beads/Images/BlackBeadChoiceCorrect.png","","","","","","","","","",""
"image-keyboard-response","26","577917","0.0-3.0-4.0-1.0-0.4","5f4d296913fe2f98d46f520c","6662009ae78f21dd82fcd179","66620beb92eef015f140ae65","628","","f","","","","","","","","./tasks/HMM-beads/Images/NewTrialBC.png","practice","0","4","0","0","0","0","true","",""
"image-keyboard-response","27","578224","0.0-3.0-4.0-1.0-1.4","5f4d296913fe2f98d46f520c","6662009ae78f21dd82fcd179","66620beb92eef015f140ae65","null","","null","","","","","","","","./tasks/HMM-beads/Images/BlackBeadChoice.png","","","","","","","","","",""
"image-keyboard-response","28","578739","0.0-3.0-4.0-1.0-2.4","5f4d296913fe2f98d46f520c","6662009ae78f21dd82fcd179","66620beb92eef015f140ae65","null","","null","","","","","","","","./tasks/HMM-beads/Images/BlackBeadChoiceCorrect.png","","","","","","","","","",""
"image-keyboard-response","29","579288","0.0-3.0-4.0-1.0-0.5","5f4d296913fe2f98d46f520c","6662009ae78f21dd82fcd179","66620beb92eef015f140ae65","548","","j","","","","","","","","./tasks/HMM-beads/Images/NewTrialBC.png","practice","0","5","0","1","0","1","true","",""
"image-keyboard-response","30","579598","0.0-3.0-4.0-1.0-1.5","5f4d296913fe2f98d46f520c","6662009ae78f21dd82fcd179","66620beb92eef015f140ae65","null","","null","","","","","","","","./tasks/HMM-beads/Images/WhiteBeadChoice.png","","","","","","","","","",""
"image-keyboard-response","31","580113","0.0-3.0-4.0-1.0-2.5","5f4d296913fe2f98d46f520c","6662009ae78f21dd82fcd179","66620beb92eef015f140ae65","null","","null","","","","","","","","./tasks/HMM-beads/Images/WhiteBeadChoiceCorrect.png","","","","","","","","","",""
"image-keyboard-response","32","580654","0.0-3.0-4.0-1.0-0.6","5f4d296913fe2f98d46f520c","6662009ae78f21dd82fcd179","66620beb92eef015f140ae65","540","","f","","","","","","","","./tasks/HMM-beads/Images/NewTrialWC.png","practice","0","6","0","0","1","0","true","",""
"image-keyboard-response","33","580969","0.0-3.0-4.0-1.0-1.6","5f4d296913fe2f98d46f520c","6662009ae78f21dd82fcd179","66620beb92eef015f140ae65","null","","null","","","","","","","","./tasks/HMM-beads/Images/BlackBeadChoice.png","","","","","","","","","",""
"image-keyboard-response","34","581484","0.0-3.0-4.0-1.0-2.6","5f4d296913fe2f98d46f520c","6662009ae78f21dd82fcd179","66620beb92eef015f140ae65","null","","null","","","","","","","","./tasks/HMM-beads/Images/BlackBeadChoiceCorrect.png","","","","","","","","","",""
"image-keyboard-response","35","581970","0.0-3.0-4.0-1.0-0.7","5f4d296913fe2f98d46f520c","6662009ae78f21dd82fcd179","66620beb92eef015f140ae65","485","","j","","","","","","","","./tasks/HMM-beads/Images/NewTrialBC.png","practice","0","7","0","0","0","1","false","",""
"image-keyboard-response","36","582279","0.0-3.0-4.0-1.0-1.7","5f4d296913fe2f98d46f520c","6662009ae78f21dd82fcd179","66620beb92eef015f140ae65","null","","null","","","","","","","","./tasks/HMM-beads/Images/WhiteBeadChoice.png","","","","","","","","","",""
"image-keyboard-response","37","582793","0.0-3.0-4.0-1.0-2.7","5f4d296913fe2f98d46f520c","6662009ae78f21dd82fcd179","66620beb92eef015f140ae65","null","","null","","","","","","","","./tasks/HMM-beads/Images/WhiteBeadChoiceWrong.png","","","","","","","","","",""
"image-keyboard-response","38","583138","0.0-3.0-4.0-1.0-0.8","5f4d296913fe2f98d46f520c","6662009ae78f21dd82fcd179","66620beb92eef015f140ae65","344","","f","","","","","","","","./tasks/HMM-beads/Images/NewTrialBC.png","practice","0","8","0","0","0","0","true","",""
"image-keyboard-response","39","583448","0.0-3.0-4.0-1.0-1.8","5f4d296913fe2f98d46f520c","6662009ae78f21dd82fcd179","66620beb92eef015f140ae65","null","","null","","","","","","","","./tasks/HMM-beads/Images/BlackBeadChoice.png","","","","","","","","","",""
"image-keyboard-response","40","583964","0.0-3.0-4.0-1.0-2.8","5f4d296913fe2f98d46f520c","6662009ae78f21dd82fcd179","66620beb92eef015f140ae65","null","","null","","","","","","","","./tasks/HMM-beads/Images/BlackBeadChoiceCorrect.png","","","","","","","","","",""
"image-keyboard-response","41","584341","0.0-3.0-4.0-1.0-0.9","5f4d296913fe2f98d46f520c","6662009ae78f21dd82fcd179","66620beb92eef015f140ae65","376","","j","","","","","","","","./tasks/HMM-beads/Images/NewTrialBC.png","practice","0","9","0","1","0","1","true","",""
"image-keyboard-response","42","584649","0.0-3.0-4.0-1.0-1.9","5f4d296913fe2f98d46f520c","6662009ae78f21dd82fcd179","66620beb92eef015f140ae65","null","","null","","","","","","","","./tasks/HMM-beads/Images/WhiteBeadChoice.png","","","","","","","","","",""
"image-keyboard-response","43","585165","0.0-3.0-4.0-1.0-2.9","5f4d296913fe2f98d46f520c","6662009ae78f21dd82fcd179","66620beb92eef015f140ae65","null","","null","","","","","","","","./tasks/HMM-beads/Images/WhiteBeadChoiceCorrect.png","","","","","","","","","",""
"image-keyboard-response","44","585688","0.0-3.0-4.0-1.0-0.10","5f4d296913fe2f98d46f520c","6662009ae78f21dd82fcd179","66620beb92eef015f140ae65","523","","f","","","","","","","","./tasks/HMM-beads/Images/NewTrialWC.png","practice","0","10","0","0","1","0","true","",""
"image-keyboard-response","45","585994","0.0-3.0-4.0-1.0-1.10","5f4d296913fe2f98d46f520c","6662009ae78f21dd82fcd179","66620beb92eef015f140ae65","null","","null","","","","","","","","./tasks/HMM-beads/Images/BlackBeadChoice.png","","","","","","","","","",""
"image-keyboard-response","46","586508","0.0-3.0-4.0-1.0-2.10","5f4d296913fe2f98d46f520c","6662009ae78f21dd82fcd179","66620beb92eef015f140ae65","null","","null","","","","","","","","./tasks/HMM-beads/Images/BlackBeadChoiceCorrect.png","","","","","","","","","",""
"image-keyboard-response","47","586813","0.0-3.0-4.0-1.0-0.11","5f4d296913fe2f98d46f520c","6662009ae78f21dd82fcd179","66620beb92eef015f140ae65","305","","j","","","","","","","","./tasks/HMM-beads/Images/NewTrialBC.png","practice","0","11","0","1","0","1","true","",""
"image-keyboard-response","48","587118","0.0-3.0-4.0-1.0-1.11","5f4d296913fe2f98d46f520c","6662009ae78f21dd82fcd179","66620beb92eef015f140ae65","null","","null","","","","","","","","./tasks/HMM-beads/Images/WhiteBeadChoice.png","","","","","","","","","",""
"image-keyboard-response","49","587632","0.0-3.0-4.0-1.0-2.11","5f4d296913fe2f98d46f520c","6662009ae78f21dd82fcd179","66620beb92eef015f140ae65","null","","null","","","","","","","","./tasks/HMM-beads/Images/WhiteBeadChoiceCorrect.png","","","","","","","","","",""
"image-keyboard-response","50","588002","0.0-3.0-4.0-1.0-0.12","5f4d296913fe2f98d46f520c","6662009ae78f21dd82fcd179","66620beb92eef015f140ae65","368","","f","","","","","","","","./tasks/HMM-beads/Images/NewTrialWC.png","practice","0","12","0","0","1","0","true","",""
"image-keyboard-response","51","588305","0.0-3.0-4.0-1.0-1.12","5f4d296913fe2f98d46f520c","6662009ae78f21dd82fcd179","66620beb92eef015f140ae65","null","","null","","","","","","","","./tasks/HMM-beads/Images/BlackBeadChoice.png","","","","","","","","","",""
"image-keyboard-response","52","588819","0.0-3.0-4.0-1.0-2.12","5f4d296913fe2f98d46f520c","6662009ae78f21dd82fcd179","66620beb92eef015f140ae65","null","","null","","","","","","","","./tasks/HMM-beads/Images/BlackBeadChoiceCorrect.png","","","","","","","","","",""
"image-keyboard-response","53","589236","0.0-3.0-4.0-1.0-0.13","5f4d296913fe2f98d46f520c","6662009ae78f21dd82fcd179","66620beb92eef015f140ae65","416","","f","","","","","","","","./tasks/HMM-beads/Images/NewTrialBC.png","practice","0","13","0","0","0","0","true","",""
"image-keyboard-response","54","589540","0.0-3.0-4.0-1.0-1.13","5f4d296913fe2f98d46f520c","6662009ae78f21dd82fcd179","66620beb92eef015f140ae65","null","","null","","","","","","","","./tasks/HMM-beads/Images/BlackBeadChoice.png","","","","","","","","","",""
"image-keyboard-response","55","590056","0.0-3.0-4.0-1.0-2.13","5f4d296913fe2f98d46f520c","6662009ae78f21dd82fcd179","66620beb92eef015f140ae65","null","","null","","","","","","","","./tasks/HMM-beads/Images/BlackBeadChoiceCorrect.png","","","","","","","","","",""
"image-keyboard-response","56","590455","0.0-3.0-4.0-1.0-0.14","5f4d296913fe2f98d46f520c","6662009ae78f21dd82fcd179","66620beb92eef015f140ae65","398","","f","","","","","","","","./tasks/HMM-beads/Images/NewTrialBC.png","practice","0","14","0","0","0","0","true","",""
"image-keyboard-response","57","590760","0.0-3.0-4.0-1.0-1.14","5f4d296913fe2f98d46f520c","6662009ae78f21dd82fcd179","66620beb92eef015f140ae65","null","","null","","","","","","","","./tasks/HMM-beads/Images/BlackBeadChoice.png","","","","","","","","","",""
"image-keyboard-response","58","591269","0.0-3.0-4.0-1.0-2.14","5f4d296913fe2f98d46f520c","6662009ae78f21dd82fcd179","66620beb92eef015f140ae65","null","","null","","","","","","","","./tasks/HMM-beads/Images/BlackBeadChoiceCorrect.png","","","","","","","","","",""
"image-keyboard-response","59","591818","0.0-3.0-4.0-1.0-0.15","5f4d296913fe2f98d46f520c","6662009ae78f21dd82fcd179","66620beb92eef015f140ae65","547","","j","","","","","","","","./tasks/HMM-beads/Images/NewTrialBC.png","practice","0","15","0","0","0","1","false","",""
"image-keyboard-response","60","592131","0.0-3.0-4.0-1.0-1.15","5f4d296913fe2f98d46f520c","6662009ae78f21dd82fcd179","66620beb92eef015f140ae65","null","","null","","","","","","","","./tasks/HMM-beads/Images/WhiteBeadChoice.png","","","","","","","","","",""
"image-keyboard-response","61","592643","0.0-3.0-4.0-1.0-2.15","5f4d296913fe2f98d46f520c","6662009ae78f21dd82fcd179","66620beb92eef015f140ae65","null","","null","","","","","","","","./tasks/HMM-beads/Images/WhiteBeadChoiceWrong.png","","","","","","","","","",""
"image-keyboard-response","62","593124","0.0-3.0-4.0-1.0-0.16","5f4d296913fe2f98d46f520c","6662009ae78f21dd82fcd179","66620beb92eef015f140ae65","479","","f","","","","","","","","./tasks/HMM-beads/Images/NewTrialBC.png","practice","0","16","0","0","0","0","true","",""
"image-keyboard-response","63","593428","0.0-3.0-4.0-1.0-1.16","5f4d296913fe2f98d46f520c","6662009ae78f21dd82fcd179","66620beb92eef015f140ae65","null","","null","","","","","","","","./tasks/HMM-beads/Images/BlackBeadChoice.png","","","","","","","","","",""
"image-keyboard-response","64","593943","0.0-3.0-4.0-1.0-2.16","5f4d296913fe2f98d46f520c","6662009ae78f21dd82fcd179","66620beb92eef015f140ae65","null","","null","","","","","","","","./tasks/HMM-beads/Images/BlackBeadChoiceCorrect.png","","","","","","","","","",""
"image-keyboard-response","65","594383","0.0-3.0-4.0-1.0-0.17","5f4d296913fe2f98d46f520c","6662009ae78f21dd82fcd179","66620beb92eef015f140ae65","438","","f","","","","","","","","./tasks/HMM-beads/Images/NewTrialBC.png","practice","0","17","0","0","0","0","true","",""
"image-keyboard-response","66","594692","0.0-3.0-4.0-1.0-1.17","5f4d296913fe2f98d46f520c","6662009ae78f21dd82fcd179","66620beb92eef015f140ae65","null","","null","","","","","","","","./tasks/HMM-beads/Images/BlackBeadChoice.png","","","","","","","","","",""
"image-keyboard-response","67","595208","0.0-3.0-4.0-1.0-2.17","5f4d296913fe2f98d46f520c","6662009ae78f21dd82fcd179","66620beb92eef015f140ae65","null","","null","","","","","","","","./tasks/HMM-beads/Images/BlackBeadChoiceCorrect.png","","","","","","","","","",""
"image-keyboard-response","68","595582","0.0-3.0-4.0-1.0-0.18","5f4d296913fe2f98d46f520c","6662009ae78f21dd82fcd179","66620beb92eef015f140ae65","373","","f","","","","","","","","./tasks/HMM-beads/Images/NewTrialBC.png","practice","0","18","0","1","0","0","false","",""
"image-keyboard-response","69","595893","0.0-3.0-4.0-1.0-1.18","5f4d296913fe2f98d46f520c","6662009ae78f21dd82fcd179","66620beb92eef015f140ae65","null","","null","","","","","","","","./tasks/HMM-beads/Images/BlackBeadChoice.png","","","","","","","","","",""
"image-keyboard-response","70","596399","0.0-3.0-4.0-1.0-2.18","5f4d296913fe2f98d46f520c","6662009ae78f21dd82fcd179","66620beb92eef015f140ae65","null","","null","","","","","","","","./tasks/HMM-beads/Images/BlackBeadChoiceWrong.png","","","","","","","","","",""
"image-keyboard-response","71","596750","0.0-3.0-4.0-1.0-0.19","5f4d296913fe2f98d46f520c","6662009ae78f21dd82fcd179","66620beb92eef015f140ae65","350","","j","","","","","","","","./tasks/HMM-beads/Images/NewTrialWC.png","practice","0","19","0","0","1","1","false","",""
"image-keyboard-response","72","597066","0.0-3.0-4.0-1.0-1.19","5f4d296913fe2f98d46f520c","6662009ae78f21dd82fcd179","66620beb92eef015f140ae65","null","","null","","","","","","","","./tasks/HMM-beads/Images/WhiteBeadChoice.png","","","","","","","","","",""
"image-keyboard-response","73","597580","0.0-3.0-4.0-1.0-2.19","5f4d296913fe2f98d46f520c","6662009ae78f21dd82fcd179","66620beb92eef015f140ae65","null","","null","","","","","","","","./tasks/HMM-beads/Images/WhiteBeadChoiceWrong.png","","","","","","","","","",""
"image-keyboard-response","74","598024","0.0-3.0-4.0-1.0-0.20","5f4d296913fe2f98d46f520c","6662009ae78f21dd82fcd179","66620beb92eef015f140ae65","443","","f","","","","","","","","./tasks/HMM-beads/Images/NewTrialBC.png","practice","0","20","0","0","0","0","true","",""
"image-keyboard-response","75","598332","0.0-3.0-4.0-1.0-1.20","5f4d296913fe2f98d46f520c","6662009ae78f21dd82fcd179","66620beb92eef015f140ae65","null","","null","","","","","","","","./tasks/HMM-beads/Images/BlackBeadChoice.png","","","","","","","","","",""
"image-keyboard-response","76","598848","0.0-3.0-4.0-1.0-2.20","5f4d296913fe2f98d46f520c","6662009ae78f21dd82fcd179","66620beb92eef015f140ae65","null","","null","","","","","","","","./tasks/HMM-beads/Images/BlackBeadChoiceCorrect.png","","","","","","","","","",""
"image-keyboard-response","77","599147","0.0-3.0-4.0-1.0-0.21","5f4d296913fe2f98d46f520c","6662009ae78f21dd82fcd179","66620beb92eef015f140ae65","299","","f","","","","","","","","./tasks/HMM-beads/Images/NewTrialBC.png","practice","0","21","0","1","0","0","false","",""
"image-keyboard-response","78","599458","0.0-3.0-4.0-1.0-1.21","5f4d296913fe2f98d46f520c","6662009ae78f21dd82fcd179","66620beb92eef015f140ae65","null","","null","","","","","","","","./tasks/HMM-beads/Images/BlackBeadChoice.png","","","","","","","","","",""
"image-keyboard-response","79","599971","0.0-3.0-4.0-1.0-2.21","5f4d296913fe2f98d46f520c","6662009ae78f21dd82fcd179","66620beb92eef015f140ae65","null","","null","","","","","","","","./tasks/HMM-beads/Images/BlackBeadChoiceWrong.png","","","","","","","","","",""
"image-keyboard-response","80","600484","0.0-3.0-4.0-1.0-0.22","5f4d296913fe2f98d46f520c","6662009ae78f21dd82fcd179","66620beb92eef015f140ae65","512","","f","","","","","","","","./tasks/HMM-beads/Images/NewTrialWC.png","practice","0","22","1","1","1","0","false","",""
"image-keyboard-response","81","600799","0.0-3.0-4.0-1.0-1.22","5f4d296913fe2f98d46f520c","6662009ae78f21dd82fcd179","66620beb92eef015f140ae65","null","","null","","","","","","","","./tasks/HMM-beads/Images/BlackBeadChoice.png","","","","","","","","","",""
"image-keyboard-response","82","601315","0.0-3.0-4.0-1.0-2.22","5f4d296913fe2f98d46f520c","6662009ae78f21dd82fcd179","66620beb92eef015f140ae65","null","","null","","","","","","","","./tasks/HMM-beads/Images/BlackBeadChoiceWrong.png","","","","","","","","","",""
"image-keyboard-response","83","601615","0.0-3.0-4.0-1.0-0.23","5f4d296913fe2f98d46f520c","6662009ae78f21dd82fcd179","66620beb92eef015f140ae65","299","","f","","","","","","","","./tasks/HMM-beads/Images/NewTrialWC.png","practice","0","23","1","0","1","0","true","",""
"image-keyboard-response","84","601924","0.0-3.0-4.0-1.0-1.23","5f4d296913fe2f98d46f520c","6662009ae78f21dd82fcd179","66620beb92eef015f140ae65","null","","null","","","","","","","","./tasks/HMM-beads/Images/BlackBeadChoice.png","","","","","","","","","",""
"image-keyboard-response","85","602427","0.0-3.0-4.0-1.0-2.23","5f4d296913fe2f98d46f520c","6662009ae78f21dd82fcd179","66620beb92eef015f140ae65","null","","null","","","","","","","","./tasks/HMM-beads/Images/BlackBeadChoiceCorrect.png","","","","","","","","","",""
"image-keyboard-response","86","602820","0.0-3.0-4.0-1.0-0.24","5f4d296913fe2f98d46f520c","6662009ae78f21dd82fcd179","66620beb92eef015f140ae65","392","","f","","","","","","","","./tasks/HMM-beads/Images/NewTrialBC.png","practice","0","24","1","1","0","0","false","",""
"image-keyboard-response","87","603131","0.0-3.0-4.0-1.0-1.24","5f4d296913fe2f98d46f520c","6662009ae78f21dd82fcd179","66620beb92eef015f140ae65","null","","null","","","","","","","","./tasks/HMM-beads/Images/BlackBeadChoice.png","","","","","","","","","",""
"image-keyboard-response","88","603633","0.0-3.0-4.0-1.0-2.24","5f4d296913fe2f98d46f520c","6662009ae78f21dd82fcd179","66620beb92eef015f140ae65","null","","null","","","","","","","","./tasks/HMM-beads/Images/BlackBeadChoiceWrong.png","","","","","","","","","",""
"image-keyboard-response","89","603910","0.0-3.0-4.0-1.0-0.25","5f4d296913fe2f98d46f520c","6662009ae78f21dd82fcd179","66620beb92eef015f140ae65","276","","j","","","","","","","","./tasks/HMM-beads/Images/NewTrialWC.png","practice","0","25","1","1","1","1","true","",""
"image-keyboard-response","90","604222","0.0-3.0-4.0-1.0-1.25","5f4d296913fe2f98d46f520c","6662009ae78f21dd82fcd179","66620beb92eef015f140ae65","null","","null","","","","","","","","./tasks/HMM-beads/Images/WhiteBeadChoice.png","","","","","","","","","",""
"image-keyboard-response","91","604736","0.0-3.0-4.0-1.0-2.25","5f4d296913fe2f98d46f520c","6662009ae78f21dd82fcd179","66620beb92eef015f140ae65","null","","null","","","","","","","","./tasks/HMM-beads/Images/WhiteBeadChoiceCorrect.png","","","","","","","","","",""
"image-keyboard-response","92","605100","0.0-3.0-4.0-1.0-0.26","5f4d296913fe2f98d46f520c","6662009ae78f21dd82fcd179","66620beb92eef015f140ae65","362","","j","","","","","","","","./tasks/HMM-beads/Images/NewTrialWC.png","practice","0","26","1","1","1","1","true","",""
"image-keyboard-response","93","605410","0.0-3.0-4.0-1.0-1.26","5f4d296913fe2f98d46f520c","6662009ae78f21dd82fcd179","66620beb92eef015f140ae65","null","","null","","","","","","","","./tasks/HMM-beads/Images/WhiteBeadChoice.png","","","","","","","","","",""
"image-keyboard-response","94","605926","0.0-3.0-4.0-1.0-2.26","5f4d296913fe2f98d46f520c","6662009ae78f21dd82fcd179","66620beb92eef015f140ae65","null","","null","","","","","","","","./tasks/HMM-beads/Images/WhiteBeadChoiceCorrect.png","","","","","","","","","",""
"image-keyboard-response","95","606310","0.0-3.0-4.0-1.0-0.27","5f4d296913fe2f98d46f520c","6662009ae78f21dd82fcd179","66620beb92eef015f140ae65","383","","j","","","","","","","","./tasks/HMM-beads/Images/NewTrialWC.png","practice","0","27","1","1","1","1","true","",""
"image-keyboard-response","96","606624","0.0-3.0-4.0-1.0-1.27","5f4d296913fe2f98d46f520c","6662009ae78f21dd82fcd179","66620beb92eef015f140ae65","null","","null","","","","","","","","./tasks/HMM-beads/Images/WhiteBeadChoice.png","","","","","","","","","",""
"image-keyboard-response","97","607136","0.0-3.0-4.0-1.0-2.27","5f4d296913fe2f98d46f520c","6662009ae78f21dd82fcd179","66620beb92eef015f140ae65","null","","null","","","","","","","","./tasks/HMM-beads/Images/WhiteBeadChoiceCorrect.png","","","","","","","","","",""
"image-keyboard-response","98","608858","0.0-3.0-4.0-1.0-0.28","5f4d296913fe2f98d46f520c","6662009ae78f21dd82fcd179","66620beb92eef015f140ae65","1721","","f","","","","","","","","./tasks/HMM-beads/Images/NewTrialWC.png","practice","0","28","1","0","1","0","true","",""
"image-keyboard-response","99","609162","0.0-3.0-4.0-1.0-1.28","5f4d296913fe2f98d46f520c","6662009ae78f21dd82fcd179","66620beb92eef015f140ae65","null","","null","","","","","","","","./tasks/HMM-beads/Images/BlackBeadChoice.png","","","","","","","","","",""
"image-keyboard-response","100","609675","0.0-3.0-4.0-1.0-2.28","5f4d296913fe2f98d46f520c","6662009ae78f21dd82fcd179","66620beb92eef015f140ae65","null","","null","","","","","","","","./tasks/HMM-beads/Images/BlackBeadChoiceCorrect.png","","","","","","","","","",""
"image-keyboard-response","101","610027","0.0-3.0-4.0-1.0-0.29","5f4d296913fe2f98d46f520c","6662009ae78f21dd82fcd179","66620beb92eef015f140ae65","350","","j","","","","","","","","./tasks/HMM-beads/Images/NewTrialBC.png","practice","0","29","1","1","0","1","true","",""
"image-keyboard-response","102","610330","0.0-3.0-4.0-1.0-1.29","5f4d296913fe2f98d46f520c","6662009ae78f21dd82fcd179","66620beb92eef015f140ae65","null","","null","","","","","","","","./tasks/HMM-beads/Images/WhiteBeadChoice.png","","","","","","","","","",""
"image-keyboard-response","103","610846","0.0-3.0-4.0-1.0-2.29","5f4d296913fe2f98d46f520c","6662009ae78f21dd82fcd179","66620beb92eef015f140ae65","null","","null","","","","","","","","./tasks/HMM-beads/Images/WhiteBeadChoiceCorrect.png","","","","","","","","","",""
"image-keyboard-response","104","611267","0.0-3.0-4.0-1.0-0.30","5f4d296913fe2f98d46f520c","6662009ae78f21dd82fcd179","66620beb92eef015f140ae65","420","","j","","","","","","","","./tasks/HMM-beads/Images/NewTrialWC.png","practice","0","30","1","0","1","1","false","",""
"image-keyboard-response","105","611578","0.0-3.0-4.0-1.0-1.30","5f4d296913fe2f98d46f520c","6662009ae78f21dd82fcd179","66620beb92eef015f140ae65","null","","null","","","","","","","","./tasks/HMM-beads/Images/WhiteBeadChoice.png","","","","","","","","","",""
"image-keyboard-response","106","612093","0.0-3.0-4.0-1.0-2.30","5f4d296913fe2f98d46f520c","6662009ae78f21dd82fcd179","66620beb92eef015f140ae65","null","","null","","","","","","","","./tasks/HMM-beads/Images/WhiteBeadChoiceWrong.png","","","","","","","","","",""
"image-keyboard-response","107","612451","0.0-3.0-4.0-1.0-0.31","5f4d296913fe2f98d46f520c","6662009ae78f21dd82fcd179","66620beb92eef015f140ae65","357","","f","","","","","","","","./tasks/HMM-beads/Images/NewTrialBC.png","practice","0","31","1","1","0","0","false","",""
"image-keyboard-response","108","612767","0.0-3.0-4.0-1.0-1.31","5f4d296913fe2f98d46f520c","6662009ae78f21dd82fcd179","66620beb92eef015f140ae65","null","","null","","","","","","","","./tasks/HMM-beads/Images/BlackBeadChoice.png","","","","","","","","","",""
"image-keyboard-response","109","613282","0.0-3.0-4.0-1.0-2.31","5f4d296913fe2f98d46f520c","6662009ae78f21dd82fcd179","66620beb92eef015f140ae65","null","","null","","","","","","","","./tasks/HMM-beads/Images/BlackBeadChoiceWrong.png","","","","","","","","","",""
"image-keyboard-response","110","613664","0.0-3.0-4.0-1.0-0.32","5f4d296913fe2f98d46f520c","6662009ae78f21dd82fcd179","66620beb92eef015f140ae65","381","","j","","","","","","","","./tasks/HMM-beads/Images/NewTrialWC.png","practice","0","32","1","1","1","1","true","",""
"image-keyboard-response","111","613967","0.0-3.0-4.0-1.0-1.32","5f4d296913fe2f98d46f520c","6662009ae78f21dd82fcd179","66620beb92eef015f140ae65","null","","null","","","","","","","","./tasks/HMM-beads/Images/WhiteBeadChoice.png","","","","","","","","","",""
"image-keyboard-response","112","614481","0.0-3.0-4.0-1.0-2.32","5f4d296913fe2f98d46f520c","6662009ae78f21dd82fcd179","66620beb92eef015f140ae65","null","","null","","","","","","","","./tasks/HMM-beads/Images/WhiteBeadChoiceCorrect.png","","","","","","","","","",""
"image-keyboard-response","113","614901","0.0-3.0-4.0-1.0-0.33","5f4d296913fe2f98d46f520c","6662009ae78f21dd82fcd179","66620beb92eef015f140ae65","418","","j","","","","","","","","./tasks/HMM-beads/Images/NewTrialWC.png","practice","0","33","1","1","1","1","true","",""
"image-keyboard-response","114","615213","0.0-3.0-4.0-1.0-1.33","5f4d296913fe2f98d46f520c","6662009ae78f21dd82fcd179","66620beb92eef015f140ae65","null","","null","","","","","","","","./tasks/HMM-beads/Images/WhiteBeadChoice.png","","","","","","","","","",""
"image-keyboard-response","115","615730","0.0-3.0-4.0-1.0-2.33","5f4d296913fe2f98d46f520c","6662009ae78f21dd82fcd179","66620beb92eef015f140ae65","null","","null","","","","","","","","./tasks/HMM-beads/Images/WhiteBeadChoiceCorrect.png","","","","","","","","","",""
"image-keyboard-response","116","616010","0.0-3.0-4.0-1.0-0.34","5f4d296913fe2f98d46f520c","6662009ae78f21dd82fcd179","66620beb92eef015f140ae65","280","","j","","","","","","","","./tasks/HMM-beads/Images/NewTrialWC.png","practice","0","34","1","1","1","1","true","",""
"image-keyboard-response","117","616322","0.0-3.0-4.0-1.0-1.34","5f4d296913fe2f98d46f520c","6662009ae78f21dd82fcd179","66620beb92eef015f140ae65","null","","null","","","","","","","","./tasks/HMM-beads/Images/WhiteBeadChoice.png","","","","","","","","","",""
"image-keyboard-response","118","616838","0.0-3.0-4.0-1.0-2.34","5f4d296913fe2f98d46f520c","6662009ae78f21dd82fcd179","66620beb92eef015f140ae65","null","","null","","","","","","","","./tasks/HMM-beads/Images/WhiteBeadChoiceCorrect.png","","","","","","","","","",""
"image-keyboard-response","119","617300","0.0-3.0-4.0-1.0-0.35","5f4d296913fe2f98d46f520c","6662009ae78f21dd82fcd179","66620beb92eef015f140ae65","460","","j","","","","","","","","./tasks/HMM-beads/Images/NewTrialWC.png","practice","0","35","1","1","1","1","true","",""
"image-keyboard-response","120","617609","0.0-3.0-4.0-1.0-1.35","5f4d296913fe2f98d46f520c","6662009ae78f21dd82fcd179","66620beb92eef015f140ae65","null","","null","","","","","","","","./tasks/HMM-beads/Images/WhiteBeadChoice.png","","","","","","","","","",""
"image-keyboard-response","121","618124","0.0-3.0-4.0-1.0-2.35","5f4d296913fe2f98d46f520c","6662009ae78f21dd82fcd179","66620beb92eef015f140ae65","null","","null","","","","","","","","./tasks/HMM-beads/Images/WhiteBeadChoiceCorrect.png","","","","","","","","","",""
"image-keyboard-response","122","618349","0.0-3.0-4.0-1.0-0.36","5f4d296913fe2f98d46f520c","6662009ae78f21dd82fcd179","66620beb92eef015f140ae65","225","","j","","","","","","","","./tasks/HMM-beads/Images/NewTrialWC.png","practice","0","36","1","0","1","1","false","",""
"image-keyboard-response","123","618667","0.0-3.0-4.0-1.0-1.36","5f4d296913fe2f98d46f520c","6662009ae78f21dd82fcd179","66620beb92eef015f140ae65","null","","null","","","","","","","","./tasks/HMM-beads/Images/WhiteBeadChoice.png","","","","","","","","","",""
"image-keyboard-response","124","619181","0.0-3.0-4.0-1.0-2.36","5f4d296913fe2f98d46f520c","6662009ae78f21dd82fcd179","66620beb92eef015f140ae65","null","","null","","","","","","","","./tasks/HMM-beads/Images/WhiteBeadChoiceWrong.png","","","","","","","","","",""
"image-keyboard-response","125","619491","0.0-3.0-4.0-1.0-0.37","5f4d296913fe2f98d46f520c","6662009ae78f21dd82fcd179","66620beb92eef015f140ae65","309","","f","","","","","","","","./tasks/HMM-beads/Images/NewTrialBC.png","practice","0","37","1","1","0","0","false","",""
"image-keyboard-response","126","619804","0.0-3.0-4.0-1.0-1.37","5f4d296913fe2f98d46f520c","6662009ae78f21dd82fcd179","66620beb92eef015f140ae65","null","","null","","","","","","","","./tasks/HMM-beads/Images/BlackBeadChoice.png","","","","","","","","","",""
"image-keyboard-response","127","620314","0.0-3.0-4.0-1.0-2.37","5f4d296913fe2f98d46f520c","6662009ae78f21dd82fcd179","66620beb92eef015f140ae65","null","","null","","","","","","","","./tasks/HMM-beads/Images/BlackBeadChoiceWrong.png","","","","","","","","","",""
"image-keyboard-response","128","620618","0.0-3.0-4.0-1.0-0.38","5f4d296913fe2f98d46f520c","6662009ae78f21dd82fcd179","66620beb92eef015f140ae65","303","","j","","","","","","","","./tasks/HMM-beads/Images/NewTrialWC.png","practice","0","38","1","1","1","1","true","",""
"image-keyboard-response","129","620925","0.0-3.0-4.0-1.0-1.38","5f4d296913fe2f98d46f520c","6662009ae78f21dd82fcd179","66620beb92eef015f140ae65","null","","null","","","","","","","","./tasks/HMM-beads/Images/WhiteBeadChoice.png","","","","","","","","","",""
"image-keyboard-response","130","621439","0.0-3.0-4.0-1.0-2.38","5f4d296913fe2f98d46f520c","6662009ae78f21dd82fcd179","66620beb92eef015f140ae65","null","","null","","","","","","","","./tasks/HMM-beads/Images/WhiteBeadChoiceCorrect.png","","","","","","","","","",""
"image-keyboard-response","131","621683","0.0-3.0-4.0-1.0-0.39","5f4d296913fe2f98d46f520c","6662009ae78f21dd82fcd179","66620beb92eef015f140ae65","243","","j","","","","","","","","./tasks/HMM-beads/Images/NewTrialWC.png","practice","0","39","1","1","1","1","true","",""
"image-keyboard-response","132","622001","0.0-3.0-4.0-1.0-1.39","5f4d296913fe2f98d46f520c","6662009ae78f21dd82fcd179","66620beb92eef015f140ae65","null","","null","","","","","","","","./tasks/HMM-beads/Images/WhiteBeadChoice.png","","","","","","","","","",""
"image-keyboard-response","133","622515","0.0-3.0-4.0-1.0-2.39","5f4d296913fe2f98d46f520c","6662009ae78f21dd82fcd179","66620beb92eef015f140ae65","null","","null","","","","","","","","./tasks/HMM-beads/Images/WhiteBeadChoiceCorrect.png","","","","","","","","","",""
"html-keyboard-response","134","624655","0.0-3.0-4.0-2.0","5f4d296913fe2f98d46f520c","6662009ae78f21dd82fcd179","66620beb92eef015f140ae65","2140",""," ","","","","","","","","","","","","","","","","","",""
"instructions","135","635277","0.0-3.0-5.0","5f4d296913fe2f98d46f520c","6662009ae78f21dd82fcd179","66620beb92eef015f140ae65","10622","","","","[{""page_index"":0,""viewing_time"":8044},{""page_index"":1,""viewing_time"":2578}]","","","","","","","","","","","","","","","",""
"html-keyboard-response","136","636830","0.0-3.0-6.0-0.0","5f4d296913fe2f98d46f520c","6662009ae78f21dd82fcd179","66620beb92eef015f140ae65","1552",""," ","","","","","","","","<div align=center>In this block, there will be a <b>1% chance</b> that the jar on the next trial will be different from the jar on the current trial.<br><br></div>","","","","","","","","","",""
"image-keyboard-response","137","637904","0.0-3.0-6.0-1.0-0.0","5f4d296913fe2f98d46f520c","6662009ae78f21dd82fcd179","66620beb92eef015f140ae65","1073","","f","","","","","","","","./tasks/HMM-beads/Images/NoChoice.png","lowH","1","0","1","0","9","0","true","",""
"image-keyboard-response","138","638219","0.0-3.0-6.0-1.0-1.0","5f4d296913fe2f98d46f520c","6662009ae78f21dd82fcd179","66620beb92eef015f140ae65","null","","null","","","","","","","","./tasks/HMM-beads/Images/BlackBeadChoice.png","","","","","","","","","",""
"image-keyboard-response","139","638734","0.0-3.0-6.0-1.0-2.0","5f4d296913fe2f98d46f520c","6662009ae78f21dd82fcd179","66620beb92eef015f140ae65","null","","null","","","","","","","","./tasks/HMM-beads/Images/BlackBeadChoiceCorrect.png","","","","","","","","","",""
"image-keyboard-response","140","639013","0.0-3.0-6.0-1.0-0.1","5f4d296913fe2f98d46f520c","6662009ae78f21dd82fcd179","66620beb92eef015f140ae65","278","","f","","","","","","","","./tasks/HMM-beads/Images/NewTrialBC.png","lowH","1","1","1","1","0","0","false","",""
"image-keyboard-response","141","639329","0.0-3.0-6.0-1.0-1.1","5f4d296913fe2f98d46f520c","6662009ae78f21dd82fcd179","66620beb92eef015f140ae65","null","","null","","","","","","","","./tasks/HMM-beads/Images/BlackBeadChoice.png","","","","","","","","","",""
"image-keyboard-response","142","639838","0.0-3.0-6.0-1.0-2.1","5f4d296913fe2f98d46f520c","6662009ae78f21dd82fcd179","66620beb92eef015f140ae65","null","","null","","","","","","","","./tasks/HMM-beads/Images/BlackBeadChoiceWrong.png","","","","","","","","","",""
"image-keyboard-response","143","640185","0.0-3.0-6.0-1.0-0.2","5f4d296913fe2f98d46f520c","6662009ae78f21dd82fcd179","66620beb92eef015f140ae65","345","","j","","","","","","","","./tasks/HMM-beads/Images/NewTrialWC.png","lowH","1","2","1","1","1","1","true","",""
"image-keyboard-response","144","640497","0.0-3.0-6.0-1.0-1.2","5f4d296913fe2f98d46f520c","6662009ae78f21dd82fcd179","66620beb92eef015f140ae65","null","","null","","","","","","","","./tasks/HMM-beads/Images/WhiteBeadChoice.png","","","","","","","","","",""
"image-keyboard-response","145","641011","0.0-3.0-6.0-1.0-2.2","5f4d296913fe2f98d46f520c","6662009ae78f21dd82fcd179","66620beb92eef015f140ae65","null","","null","","","","","","","","./tasks/HMM-beads/Images/WhiteBeadChoiceCorrect.png","","","","","","","","","",""
"image-keyboard-response","146","641526","0.0-3.0-6.0-1.0-0.3","5f4d296913fe2f98d46f520c","6662009ae78f21dd82fcd179","66620beb92eef015f140ae65","511","","j","","","","","","","","./tasks/HMM-beads/Images/NewTrialWC.png","lowH","1","3","1","1","1","1","true","",""
"image-keyboard-response","147","641839","0.0-3.0-6.0-1.0-1.3","5f4d296913fe2f98d46f520c","6662009ae78f21dd82fcd179","66620beb92eef015f140ae65","null","","null","","","","","","","","./tasks/HMM-beads/Images/WhiteBeadChoice.png","","","","","","","","","",""
"image-keyboard-response","148","642346","0.0-3.0-6.0-1.0-2.3","5f4d296913fe2f98d46f520c","6662009ae78f21dd82fcd179","66620beb92eef015f140ae65","null","","null","","","","","","","","./tasks/HMM-beads/Images/WhiteBeadChoiceCorrect.png","","","","","","","","","",""
"image-keyboard-response","149","642674","0.0-3.0-6.0-1.0-0.4","5f4d296913fe2f98d46f520c","6662009ae78f21dd82fcd179","66620beb92eef015f140ae65","327","","j","","","","","","","","./tasks/HMM-beads/Images/NewTrialWC.png","lowH","1","4","1","1","1","1","true","",""
"image-keyboard-response","150","642987","0.0-3.0-6.0-1.0-1.4","5f4d296913fe2f98d46f520c","6662009ae78f21dd82fcd179","66620beb92eef015f140ae65","null","","null","","","","","","","","./tasks/HMM-beads/Images/WhiteBeadChoice.png","","","","","","","","","",""
"image-keyboard-response","151","643503","0.0-3.0-6.0-1.0-2.4","5f4d296913fe2f98d46f520c","6662009ae78f21dd82fcd179","66620beb92eef015f140ae65","null","","null","","","","","","","","./tasks/HMM-beads/Images/WhiteBeadChoiceCorrect.png","","","","","","","","","",""
"image-keyboard-response","152","643993","0.0-3.0-6.0-1.0-0.5","5f4d296913fe2f98d46f520c","6662009ae78f21dd82fcd179","66620beb92eef015f140ae65","489","","f","","","","","","","","./tasks/HMM-beads/Images/NewTrialWC.png","lowH","1","5","1","1","1","0","false","",""
"image-keyboard-response","153","644303","0.0-3.0-6.0-1.0-1.5","5f4d296913fe2f98d46f520c","6662009ae78f21dd82fcd179","66620beb92eef015f140ae65","null","","null","","","","","","","","./tasks/HMM-beads/Images/BlackBeadChoice.png","","","","","","","","","",""
"image-keyboard-response","154","644818","0.0-3.0-6.0-1.0-2.5","5f4d296913fe2f98d46f520c","6662009ae78f21dd82fcd179","66620beb92eef015f140ae65","null","","null","","","","","","","","./tasks/HMM-beads/Images/BlackBeadChoiceWrong.png","","","","","","","","","",""
"image-keyboard-response","155","645047","0.0-3.0-6.0-1.0-0.6","5f4d296913fe2f98d46f520c","6662009ae78f21dd82fcd179","66620beb92eef015f140ae65","227","","j","","","","","","","","./tasks/HMM-beads/Images/NewTrialWC.png","lowH","1","6","1","0","1","1","false","",""
"image-keyboard-response","156","645350","0.0-3.0-6.0-1.0-1.6","5f4d296913fe2f98d46f520c","6662009ae78f21dd82fcd179","66620beb92eef015f140ae65","null","","null","","","","","","","","./tasks/HMM-beads/Images/WhiteBeadChoice.png","","","","","","","","","",""
"image-keyboard-response","157","645864","0.0-3.0-6.0-1.0-2.6","5f4d296913fe2f98d46f520c","6662009ae78f21dd82fcd179","66620beb92eef015f140ae65","null","","null","","","","","","","","./tasks/HMM-beads/Images/WhiteBeadChoiceWrong.png","","","","","","","","","",""
"image-keyboard-response","158","646234","0.0-3.0-6.0-1.0-0.7","5f4d296913fe2f98d46f520c","6662009ae78f21dd82fcd179","66620beb92eef015f140ae65","368","","f","","","","","","","","./tasks/HMM-beads/Images/NewTrialBC.png","lowH","1","7","1","1","0","0","false","",""
"image-keyboard-response","159","646551","0.0-3.0-6.0-1.0-1.7","5f4d296913fe2f98d46f520c","6662009ae78f21dd82fcd179","66620beb92eef015f140ae65","null","","null","","","","","","","","./tasks/HMM-beads/Images/BlackBeadChoice.png","","","","","","","","","",""
"image-keyboard-response","160","647058","0.0-3.0-6.0-1.0-2.7","5f4d296913fe2f98d46f520c","6662009ae78f21dd82fcd179","66620beb92eef015f140ae65","null","","null","","","","","","","","./tasks/HMM-beads/Images/BlackBeadChoiceWrong.png","","","","","","","","","",""
"image-keyboard-response","161","647625","0.0-3.0-6.0-1.0-0.8","5f4d296913fe2f98d46f520c","6662009ae78f21dd82fcd179","66620beb92eef015f140ae65","566","","j","","","","","","","","./tasks/HMM-beads/Images/NewTrialWC.png","lowH","1","8","1","1","1","1","true","",""
"image-keyboard-response","162","647938","0.0-3.0-6.0-1.0-1.8","5f4d296913fe2f98d46f520c","6662009ae78f21dd82fcd179","66620beb92eef015f140ae65","null","","null","","","","","","","","./tasks/HMM-beads/Images/WhiteBeadChoice.png","","","","","","","","","",""
"image-keyboard-response","163","648450","0.0-3.0-6.0-1.0-2.8","5f4d296913fe2f98d46f520c","6662009ae78f21dd82fcd179","66620beb92eef015f140ae65","null","","null","","","","","","","","./tasks/HMM-beads/Images/WhiteBeadChoiceCorrect.png","","","","","","","","","",""
"image-keyboard-response","164","648696","0.0-3.0-6.0-1.0-0.9","5f4d296913fe2f98d46f520c","6662009ae78f21dd82fcd179","66620beb92eef015f140ae65","245","","j","","","","","","","","./tasks/HMM-beads/Images/NewTrialWC.png","lowH","1","9","1","1","1","1","true","",""
"image-keyboard-response","165","649014","0.0-3.0-6.0-1.0-1.9","5f4d296913fe2f98d46f520c","6662009ae78f21dd82fcd179","66620beb92eef015f140ae65","null","","null","","","","","","","","./tasks/HMM-beads/Images/WhiteBeadChoice.png","","","","","","","","","",""
"image-keyboard-response","166","649527","0.0-3.0-6.0-1.0-2.9","5f4d296913fe2f98d46f520c","6662009ae78f21dd82fcd179","66620beb92eef015f140ae65","null","","null","","","","","","","","./tasks/HMM-beads/Images/WhiteBeadChoiceCorrect.png","","","","","","","","","",""
"image-keyboard-response","167","650118","0.0-3.0-6.0-1.0-0.10","5f4d296913fe2f98d46f520c","6662009ae78f21dd82fcd179","66620beb92eef015f140ae65","590","","j","","","","","","","","./tasks/HMM-beads/Images/NewTrialWC.png","lowH","1","10","1","1","1","1","true","",""
"image-keyboard-response","168","650430","0.0-3.0-6.0-1.0-1.10","5f4d296913fe2f98d46f520c","6662009ae78f21dd82fcd179","66620beb92eef015f140ae65","null","","null","","","","","","","","./tasks/HMM-beads/Images/WhiteBeadChoice.png","","","","","","","","","",""
"image-keyboard-response","169","650933","0.0-3.0-6.0-1.0-2.10","5f4d296913fe2f98d46f520c","6662009ae78f21dd82fcd179","66620beb92eef015f140ae65","null","","null","","","","","","","","./tasks/HMM-beads/Images/WhiteBeadChoiceCorrect.png","","","","","","","","","",""
"image-keyboard-response","170","651318","0.0-3.0-6.0-1.0-0.11","5f4d296913fe2f98d46f520c","6662009ae78f21dd82fcd179","66620beb92eef015f140ae65","385","","f","","","","","","","","./tasks/HMM-beads/Images/NewTrialWC.png","lowH","1","11","1","1","1","0","false","",""
"image-keyboard-response","171","651620","0.0-3.0-6.0-1.0-1.11","5f4d296913fe2f98d46f520c","6662009ae78f21dd82fcd179","66620beb92eef015f140ae65","null","","null","","","","","","","","./tasks/HMM-beads/Images/BlackBeadChoice.png","","","","","","","","","",""
"image-keyboard-response","172","652134","0.0-3.0-6.0-1.0-2.11","5f4d296913fe2f98d46f520c","6662009ae78f21dd82fcd179","66620beb92eef015f140ae65","null","","null","","","","","","","","./tasks/HMM-beads/Images/BlackBeadChoiceWrong.png","","","","","","","","","",""
"image-keyboard-response","173","652417","0.0-3.0-6.0-1.0-0.12","5f4d296913fe2f98d46f520c","6662009ae78f21dd82fcd179","66620beb92eef015f140ae65","281","","j","","","","","","","","./tasks/HMM-beads/Images/NewTrialWC.png","lowH","1","12","1","1","1","1","true","",""
"image-keyboard-response","174","652731","0.0-3.0-6.0-1.0-1.12","5f4d296913fe2f98d46f520c","6662009ae78f21dd82fcd179","66620beb92eef015f140ae65","null","","null","","","","","","","","./tasks/HMM-beads/Images/WhiteBeadChoice.png","","","","","","","","","",""
"image-keyboard-response","175","653245","0.0-3.0-6.0-1.0-2.12","5f4d296913fe2f98d46f520c","6662009ae78f21dd82fcd179","66620beb92eef015f140ae65","null","","null","","","","","","","","./tasks/HMM-beads/Images/WhiteBeadChoiceCorrect.png","","","","","","","","","",""
"image-keyboard-response","176","653607","0.0-3.0-6.0-1.0-0.13","5f4d296913fe2f98d46f520c","6662009ae78f21dd82fcd179","66620beb92eef015f140ae65","361","","j","","","","","","","","./tasks/HMM-beads/Images/NewTrialWC.png","lowH","1","13","1","0","1","1","false","",""
"image-keyboard-response","177","653918","0.0-3.0-6.0-1.0-1.13","5f4d296913fe2f98d46f520c","6662009ae78f21dd82fcd179","66620beb92eef015f140ae65","null","","null","","","","","","","","./tasks/HMM-beads/Images/WhiteBeadChoice.png","","","","","","","","","",""
"image-keyboard-response","178","654432","0.0-3.0-6.0-1.0-2.13","5f4d296913fe2f98d46f520c","6662009ae78f21dd82fcd179","66620beb92eef015f140ae65","null","","null","","","","","","","","./tasks/HMM-beads/Images/WhiteBeadChoiceWrong.png","","","","","","","","","",""
"image-keyboard-response","179","654760","0.0-3.0-6.0-1.0-0.14","5f4d296913fe2f98d46f520c","6662009ae78f21dd82fcd179","66620beb92eef015f140ae65","328","","f","","","","","","","","./tasks/HMM-beads/Images/NewTrialBC.png","lowH","1","14","1","0","0","0","true","",""
"image-keyboard-response","180","655074","0.0-3.0-6.0-1.0-1.14","5f4d296913fe2f98d46f520c","6662009ae78f21dd82fcd179","66620beb92eef015f140ae65","null","","null","","","","","","","","./tasks/HMM-beads/Images/BlackBeadChoice.png","","","","","","","","","",""
"image-keyboard-response","181","655577","0.0-3.0-6.0-1.0-2.14","5f4d296913fe2f98d46f520c","6662009ae78f21dd82fcd179","66620beb92eef015f140ae65","null","","null","","","","","","","","./tasks/HMM-beads/Images/BlackBeadChoiceCorrect.png","","","","","","","","","",""
"image-keyboard-response","182","655808","0.0-3.0-6.0-1.0-0.15","5f4d296913fe2f98d46f520c","6662009ae78f21dd82fcd179","66620beb92eef015f140ae65","230","","f","","","","","","","","./tasks/HMM-beads/Images/NewTrialBC.png","lowH","1","15","1","1","0","0","false","",""
"image-keyboard-response","183","656122","0.0-3.0-6.0-1.0-1.15","5f4d296913fe2f98d46f520c","6662009ae78f21dd82fcd179","66620beb92eef015f140ae65","null","","null","","","","","","","","./tasks/HMM-beads/Images/BlackBeadChoice.png","","","","","","","","","",""
"image-keyboard-response","184","656636","0.0-3.0-6.0-1.0-2.15","5f4d296913fe2f98d46f520c","6662009ae78f21dd82fcd179","66620beb92eef015f140ae65","null","","null","","","","","","","","./tasks/HMM-beads/Images/BlackBeadChoiceWrong.png","","","","","","","","","",""
"image-keyboard-response","185","656857","0.0-3.0-6.0-1.0-0.16","5f4d296913fe2f98d46f520c","6662009ae78f21dd82fcd179","66620beb92eef015f140ae65","221","","j","","","","","","","","./tasks/HMM-beads/Images/NewTrialWC.png","lowH","1","16","1","1","1","1","true","",""
"image-keyboard-response","186","657166","0.0-3.0-6.0-1.0-1.16","5f4d296913fe2f98d46f520c","6662009ae78f21dd82fcd179","66620beb92eef015f140ae65","null","","null","","","","","","","","./tasks/HMM-beads/Images/WhiteBeadChoice.png","","","","","","","","","",""
"image-keyboard-response","187","657683","0.0-3.0-6.0-1.0-2.16","5f4d296913fe2f98d46f520c","6662009ae78f21dd82fcd179","66620beb92eef015f140ae65","null","","null","","","","","","","","./tasks/HMM-beads/Images/WhiteBeadChoiceCorrect.png","","","","","","","","","",""
"image-keyboard-response","188","657830","0.0-3.0-6.0-1.0-0.17","5f4d296913fe2f98d46f520c","6662009ae78f21dd82fcd179","66620beb92eef015f140ae65","146","","j","","","","","","","","./tasks/HMM-beads/Images/NewTrialWC.png","lowH","1","17","1","1","1","1","true","",""
"image-keyboard-response","189","658146","0.0-3.0-6.0-1.0-1.17","5f4d296913fe2f98d46f520c","6662009ae78f21dd82fcd179","66620beb92eef015f140ae65","null","","null","","","","","","","","./tasks/HMM-beads/Images/WhiteBeadChoice.png","","","","","","","","","",""
"image-keyboard-response","190","658653","0.0-3.0-6.0-1.0-2.17","5f4d296913fe2f98d46f520c","6662009ae78f21dd82fcd179","66620beb92eef015f140ae65","null","","null","","","","","","","","./tasks/HMM-beads/Images/WhiteBeadChoiceCorrect.png","","","","","","","","","",""
"image-keyboard-response","191","658820","0.0-3.0-6.0-1.0-0.18","5f4d296913fe2f98d46f520c","6662009ae78f21dd82fcd179","66620beb92eef015f140ae65","166","","j","","","","","","","","./tasks/HMM-beads/Images/NewTrialWC.png","lowH","1","18","1","1","1","1","true","",""
"image-keyboard-response","192","659136","0.0-3.0-6.0-1.0-1.18","5f4d296913fe2f98d46f520c","6662009ae78f21dd82fcd179","66620beb92eef015f140ae65","null","","null","","","","","","","","./tasks/HMM-beads/Images/WhiteBeadChoice.png","","","","","","","","","",""
"image-keyboard-response","193","659650","0.0-3.0-6.0-1.0-2.18","5f4d296913fe2f98d46f520c","6662009ae78f21dd82fcd179","66620beb92eef015f140ae65","null","","null","","","","","","","","./tasks/HMM-beads/Images/WhiteBeadChoiceCorrect.png","","","","","","","","","",""
"image-keyboard-response","194","659804","0.0-3.0-6.0-1.0-0.19","5f4d296913fe2f98d46f520c","6662009ae78f21dd82fcd179","66620beb92eef015f140ae65","153","","j","","","","","","","","./tasks/HMM-beads/Images/NewTrialWC.png","lowH","1","19","1","1","1","1","true","",""
"image-keyboard-response","195","660116","0.0-3.0-6.0-1.0-1.19","5f4d296913fe2f98d46f520c","6662009ae78f21dd82fcd179","66620beb92eef015f140ae65","null","","null","","","","","","","","./tasks/HMM-beads/Images/WhiteBeadChoice.png","","","","","","","","","",""
"image-keyboard-response","196","660632","0.0-3.0-6.0-1.0-2.19","5f4d296913fe2f98d46f520c","6662009ae78f21dd82fcd179","66620beb92eef015f140ae65","null","","null","","","","","","","","./tasks/HMM-beads/Images/WhiteBeadChoiceCorrect.png","","","","","","","","","",""
"image-keyboard-response","197","661196","0.0-3.0-6.0-1.0-0.20","5f4d296913fe2f98d46f520c","6662009ae78f21dd82fcd179","66620beb92eef015f140ae65","562","","j","","","","","","","","./tasks/HMM-beads/Images/NewTrialWC.png","lowH","1","20","1","1","1","1","true","",""
"image-keyboard-response","198","661507","0.0-3.0-6.0-1.0-1.20","5f4d296913fe2f98d46f520c","6662009ae78f21dd82fcd179","66620beb92eef015f140ae65","null","","null","","","","","","","","./tasks/HMM-beads/Images/WhiteBeadChoice.png","","","","","","","","","",""
"image-keyboard-response","199","662024","0.0-3.0-6.0-1.0-2.20","5f4d296913fe2f98d46f520c","6662009ae78f21dd82fcd179","66620beb92eef015f140ae65","null","","null","","","","","","","","./tasks/HMM-beads/Images/WhiteBeadChoiceCorrect.png","","","","","","","","","",""
"image-keyboard-response","200","662156","0.0-3.0-6.0-1.0-0.21","5f4d296913fe2f98d46f520c","6662009ae78f21dd82fcd179","66620beb92eef015f140ae65","131","","j","","","","","","","","./tasks/HMM-beads/Images/NewTrialWC.png","lowH","1","21","1","1","1","1","true","",""
"image-keyboard-response","201","662461","0.0-3.0-6.0-1.0-1.21","5f4d296913fe2f98d46f520c","6662009ae78f21dd82fcd179","66620beb92eef015f140ae65","null","","null","","","","","","","","./tasks/HMM-beads/Images/WhiteBeadChoice.png","","","","","","","","","",""
"image-keyboard-response","202","662977","0.0-3.0-6.0-1.0-2.21","5f4d296913fe2f98d46f520c","6662009ae78f21dd82fcd179","66620beb92eef015f140ae65","null","","null","","","","","","","","./tasks/HMM-beads/Images/WhiteBeadChoiceCorrect.png","","","","","","","","","",""
"image-keyboard-response","203","663184","0.0-3.0-6.0-1.0-0.22","5f4d296913fe2f98d46f520c","6662009ae78f21dd82fcd179","66620beb92eef015f140ae65","206","","j","","","","","","","","./tasks/HMM-beads/Images/NewTrialWC.png","lowH","1","22","1","1","1","1","true","",""
"image-keyboard-response","204","663493","0.0-3.0-6.0-1.0-1.22","5f4d296913fe2f98d46f520c","6662009ae78f21dd82fcd179","66620beb92eef015f140ae65","null","","null","","","","","","","","./tasks/HMM-beads/Images/WhiteBeadChoice.png","","","","","","","","","",""
"image-keyboard-response","205","664007","0.0-3.0-6.0-1.0-2.22","5f4d296913fe2f98d46f520c","6662009ae78f21dd82fcd179","66620beb92eef015f140ae65","null","","null","","","","","","","","./tasks/HMM-beads/Images/WhiteBeadChoiceCorrect.png","","","","","","","","","",""
"image-keyboard-response","206","664228","0.0-3.0-6.0-1.0-0.23","5f4d296913fe2f98d46f520c","6662009ae78f21dd82fcd179","66620beb92eef015f140ae65","219","","j","","","","","","","","./tasks/HMM-beads/Images/NewTrialWC.png","lowH","1","23","1","1","1","1","true","",""
"image-keyboard-response","207","664537","0.0-3.0-6.0-1.0-1.23","5f4d296913fe2f98d46f520c","6662009ae78f21dd82fcd179","66620beb92eef015f140ae65","null","","null","","","","","","","","./tasks/HMM-beads/Images/WhiteBeadChoice.png","","","","","","","","","",""
"image-keyboard-response","208","665050","0.0-3.0-6.0-1.0-2.23","5f4d296913fe2f98d46f520c","6662009ae78f21dd82fcd179","66620beb92eef015f140ae65","null","","null","","","","","","","","./tasks/HMM-beads/Images/WhiteBeadChoiceCorrect.png","","","","","","","","","",""
"image-keyboard-response","209","665339","0.0-3.0-6.0-1.0-0.24","5f4d296913fe2f98d46f520c","6662009ae78f21dd82fcd179","66620beb92eef015f140ae65","288","","j","","","","","","","","./tasks/HMM-beads/Images/NewTrialWC.png","lowH","1","24","1","0","1","1","false","",""
"image-keyboard-response","210","665645","0.0-3.0-6.0-1.0-1.24","5f4d296913fe2f98d46f520c","6662009ae78f21dd82fcd179","66620beb92eef015f140ae65","null","","null","","","","","","","","./tasks/HMM-beads/Images/WhiteBeadChoice.png","","","","","","","","","",""
"image-keyboard-response","211","666157","0.0-3.0-6.0-1.0-2.24","5f4d296913fe2f98d46f520c","6662009ae78f21dd82fcd179","66620beb92eef015f140ae65","null","","null","","","","","","","","./tasks/HMM-beads/Images/WhiteBeadChoiceWrong.png","","","","","","","","","",""
"image-keyboard-response","212","666476","0.0-3.0-6.0-1.0-0.25","5f4d296913fe2f98d46f520c","6662009ae78f21dd82fcd179","66620beb92eef015f140ae65","317","","f","","","","","","","","./tasks/HMM-beads/Images/NewTrialBC.png","lowH","1","25","1","1","0","0","false","",""
"image-keyboard-response","213","666786","0.0-3.0-6.0-1.0-1.25","5f4d296913fe2f98d46f520c","6662009ae78f21dd82fcd179","66620beb92eef015f140ae65","null","","null","","","","","","","","./tasks/HMM-beads/Images/BlackBeadChoice.png","","","","","","","","","",""
"image-keyboard-response","214","667299","0.0-3.0-6.0-1.0-2.25","5f4d296913fe2f98d46f520c","6662009ae78f21dd82fcd179","66620beb92eef015f140ae65","null","","null","","","","","","","","./tasks/HMM-beads/Images/BlackBeadChoiceWrong.png","","","","","","","","","",""
"image-keyboard-response","215","667490","0.0-3.0-6.0-1.0-0.26","5f4d296913fe2f98d46f520c","6662009ae78f21dd82fcd179","66620beb92eef015f140ae65","191","","j","","","","","","","","./tasks/HMM-beads/Images/NewTrialWC.png","lowH","1","26","1","0","1","1","false","",""
"image-keyboard-response","216","667797","0.0-3.0-6.0-1.0-1.26","5f4d296913fe2f98d46f520c","6662009ae78f21dd82fcd179","66620beb92eef015f140ae65","null","","null","","","","","","","","./tasks/HMM-beads/Images/WhiteBeadChoice.png","","","","","","","","","",""
"image-keyboard-response","217","668310","0.0-3.0-6.0-1.0-2.26","5f4d296913fe2f98d46f520c","6662009ae78f21dd82fcd179","66620beb92eef015f140ae65","null","","null","","","","","","","","./tasks/HMM-beads/Images/WhiteBeadChoiceWrong.png","","","","","","","","","",""
"image-keyboard-response","218","668568","0.0-3.0-6.0-1.0-0.27","5f4d296913fe2f98d46f520c","6662009ae78f21dd82fcd179","66620beb92eef015f140ae65","257","","f","","","","","","","","./tasks/HMM-beads/Images/NewTrialBC.png","lowH","1","27","1","1","0","0","false","",""
"image-keyboard-response","219","668884","0.0-3.0-6.0-1.0-1.27","5f4d296913fe2f98d46f520c","6662009ae78f21dd82fcd179","66620beb92eef015f140ae65","null","","null","","","","","","","","./tasks/HMM-beads/Images/BlackBeadChoice.png","","","","","","","","","",""
"image-keyboard-response","220","669398","0.0-3.0-6.0-1.0-2.27","5f4d296913fe2f98d46f520c","6662009ae78f21dd82fcd179","66620beb92eef015f140ae65","null","","null","","","","","","","","./tasks/HMM-beads/Images/BlackBeadChoiceWrong.png","","","","","","","","","",""
"image-keyboard-response","221","669856","0.0-3.0-6.0-1.0-0.28","5f4d296913fe2f98d46f520c","6662009ae78f21dd82fcd179","66620beb92eef015f140ae65","456","","f","","","","","","","","./tasks/HMM-beads/Images/NewTrialWC.png","lowH","1","28","1","1","1","0","false","",""
"image-keyboard-response","222","670162","0.0-3.0-6.0-1.0-1.28","5f4d296913fe2f98d46f520c","6662009ae78f21dd82fcd179","66620beb92eef015f140ae65","null","","null","","","","","","","","./tasks/HMM-beads/Images/BlackBeadChoice.png","","","","","","","","","",""
"image-keyboard-response","223","670679","0.0-3.0-6.0-1.0-2.28","5f4d296913fe2f98d46f520c","6662009ae78f21dd82fcd179","66620beb92eef015f140ae65","null","","null","","","","","","","","./tasks/HMM-beads/Images/BlackBeadChoiceWrong.png","","","","","","","","","",""
"image-keyboard-response","224","671045","0.0-3.0-6.0-1.0-0.29","5f4d296913fe2f98d46f520c","6662009ae78f21dd82fcd179","66620beb92eef015f140ae65","364","","j","","","","","","","","./tasks/HMM-beads/Images/NewTrialWC.png","lowH","1","29","1","1","1","1","true","",""
"image-keyboard-response","225","671350","0.0-3.0-6.0-1.0-1.29","5f4d296913fe2f98d46f520c","6662009ae78f21dd82fcd179","66620beb92eef015f140ae65","null","","null","","","","","","","","./tasks/HMM-beads/Images/WhiteBeadChoice.png","","","","","","","","","",""
"image-keyboard-response","226","671867","0.0-3.0-6.0-1.0-2.29","5f4d296913fe2f98d46f520c","6662009ae78f21dd82fcd179","66620beb92eef015f140ae65","null","","null","","","","","","","","./tasks/HMM-beads/Images/WhiteBeadChoiceCorrect.png","","","","","","","","","",""
"image-keyboard-response","227","672210","0.0-3.0-6.0-1.0-0.30","5f4d296913fe2f98d46f520c","6662009ae78f21dd82fcd179","66620beb92eef015f140ae65","343","","j","","","","","","","","./tasks/HMM-beads/Images/NewTrialWC.png","lowH","1","30","1","1","1","1","true","",""
"image-keyboard-response","228","672521","0.0-3.0-6.0-1.0-1.30","5f4d296913fe2f98d46f520c","6662009ae78f21dd82fcd179","66620beb92eef015f140ae65","null","","null","","","","","","","","./tasks/HMM-beads/Images/WhiteBeadChoice.png","","","","","","","","","",""
"image-keyboard-response","229","673035","0.0-3.0-6.0-1.0-2.30","5f4d296913fe2f98d46f520c","6662009ae78f21dd82fcd179","66620beb92eef015f140ae65","null","","null","","","","","","","","./tasks/HMM-beads/Images/WhiteBeadChoiceCorrect.png","","","","","","","","","",""
"image-keyboard-response","230","673286","0.0-3.0-6.0-1.0-0.31","5f4d296913fe2f98d46f520c","6662009ae78f21dd82fcd179","66620beb92eef015f140ae65","249","","j","","","","","","","","./tasks/HMM-beads/Images/NewTrialWC.png","lowH","1","31","1","1","1","1","true","",""
"image-keyboard-response","231","673598","0.0-3.0-6.0-1.0-1.31","5f4d296913fe2f98d46f520c","6662009ae78f21dd82fcd179","66620beb92eef015f140ae65","null","","null","","","","","","","","./tasks/HMM-beads/Images/WhiteBeadChoice.png","","","","","","","","","",""
"image-keyboard-response","232","674115","0.0-3.0-6.0-1.0-2.31","5f4d296913fe2f98d46f520c","6662009ae78f21dd82fcd179","66620beb92eef015f140ae65","null","","null","","","","","","","","./tasks/HMM-beads/Images/WhiteBeadChoiceCorrect.png","","","","","","","","","",""
"image-keyboard-response","233","674259","0.0-3.0-6.0-1.0-0.32","5f4d296913fe2f98d46f520c","6662009ae78f21dd82fcd179","66620beb92eef015f140ae65","143","","j","","","","","","","","./tasks/HMM-beads/Images/NewTrialWC.png","lowH","1","32","1","1","1","1","true","",""
"image-keyboard-response","234","674572","0.0-3.0-6.0-1.0-1.32","5f4d296913fe2f98d46f520c","6662009ae78f21dd82fcd179","66620beb92eef015f140ae65","null","","null","","","","","","","","./tasks/HMM-beads/Images/WhiteBeadChoice.png","","","","","","","","","",""
"image-keyboard-response","235","675083","0.0-3.0-6.0-1.0-2.32","5f4d296913fe2f98d46f520c","6662009ae78f21dd82fcd179","66620beb92eef015f140ae65","null","","null","","","","","","","","./tasks/HMM-beads/Images/WhiteBeadChoiceCorrect.png","","","","","","","","","",""
"image-keyboard-response","236","675289","0.0-3.0-6.0-1.0-0.33","5f4d296913fe2f98d46f520c","6662009ae78f21dd82fcd179","66620beb92eef015f140ae65","204","","j","","","","","","","","./tasks/HMM-beads/Images/NewTrialWC.png","lowH","1","33","1","1","1","1","true","",""
"image-keyboard-response","237","675602","0.0-3.0-6.0-1.0-1.33","5f4d296913fe2f98d46f520c","6662009ae78f21dd82fcd179","66620beb92eef015f140ae65","null","","null","","","","","","","","./tasks/HMM-beads/Images/WhiteBeadChoice.png","","","","","","","","","",""
"image-keyboard-response","238","676116","0.0-3.0-6.0-1.0-2.33","5f4d296913fe2f98d46f520c","6662009ae78f21dd82fcd179","66620beb92eef015f140ae65","null","","null","","","","","","","","./tasks/HMM-beads/Images/WhiteBeadChoiceCorrect.png","","","","","","","","","",""
"image-keyboard-response","239","676253","0.0-3.0-6.0-1.0-0.34","5f4d296913fe2f98d46f520c","6662009ae78f21dd82fcd179","66620beb92eef015f140ae65","135","","j","","","","","","","","./tasks/HMM-beads/Images/NewTrialWC.png","lowH","1","34","1","1","1","1","true","",""
"image-keyboard-response","240","676565","0.0-3.0-6.0-1.0-1.34","5f4d296913fe2f98d46f520c","6662009ae78f21dd82fcd179","66620beb92eef015f140ae65","null","","null","","","","","","","","./tasks/HMM-beads/Images/WhiteBeadChoice.png","","","","","","","","","",""
"image-keyboard-response","241","677082","0.0-3.0-6.0-1.0-2.34","5f4d296913fe2f98d46f520c","6662009ae78f21dd82fcd179","66620beb92eef015f140ae65","null","","null","","","","","","","","./tasks/HMM-beads/Images/WhiteBeadChoiceCorrect.png","","","","","","","","","",""
"image-keyboard-response","242","677170","0.0-3.0-6.0-1.0-0.35","5f4d296913fe2f98d46f520c","6662009ae78f21dd82fcd179","66620beb92eef015f140ae65","87","","j","","","","","","","","./tasks/HMM-beads/Images/NewTrialWC.png","lowH","1","35","1","1","1","1","true","",""
"image-keyboard-response","243","677472","0.0-3.0-6.0-1.0-1.35","5f4d296913fe2f98d46f520c","6662009ae78f21dd82fcd179","66620beb92eef015f140ae65","null","","null","","","","","","","","./tasks/HMM-beads/Images/WhiteBeadChoice.png","","","","","","","","","",""
"image-keyboard-response","244","677986","0.0-3.0-6.0-1.0-2.35","5f4d296913fe2f98d46f520c","6662009ae78f21dd82fcd179","66620beb92eef015f140ae65","null","","null","","","","","","","","./tasks/HMM-beads/Images/WhiteBeadChoiceCorrect.png","","","","","","","","","",""
"image-keyboard-response","245","678168","0.0-3.0-6.0-1.0-0.36","5f4d296913fe2f98d46f520c","6662009ae78f21dd82fcd179","66620beb92eef015f140ae65","181","","j","","","","","","","","./tasks/HMM-beads/Images/NewTrialWC.png","lowH","1","36","1","1","1","1","true","",""
"image-keyboard-response","246","678471","0.0-3.0-6.0-1.0-1.36","5f4d296913fe2f98d46f520c","6662009ae78f21dd82fcd179","66620beb92eef015f140ae65","null","","null","","","","","","","","./tasks/HMM-beads/Images/WhiteBeadChoice.png","","","","","","","","","",""
"image-keyboard-response","247","678987","0.0-3.0-6.0-1.0-2.36","5f4d296913fe2f98d46f520c","6662009ae78f21dd82fcd179","66620beb92eef015f140ae65","null","","null","","","","","","","","./tasks/HMM-beads/Images/WhiteBeadChoiceCorrect.png","","","","","","","","","",""
"image-keyboard-response","248","679221","0.0-3.0-6.0-1.0-0.37","5f4d296913fe2f98d46f520c","6662009ae78f21dd82fcd179","66620beb92eef015f140ae65","233","","j","","","","","","","","./tasks/HMM-beads/Images/NewTrialWC.png","lowH","1","37","1","1","1","1","true","",""
"image-keyboard-response","249","679531","0.0-3.0-6.0-1.0-1.37","5f4d296913fe2f98d46f520c","6662009ae78f21dd82fcd179","66620beb92eef015f140ae65","null","","null","","","","","","","","./tasks/HMM-beads/Images/WhiteBeadChoice.png","","","","","","","","","",""
"image-keyboard-response","250","680047","0.0-3.0-6.0-1.0-2.37","5f4d296913fe2f98d46f520c","6662009ae78f21dd82fcd179","66620beb92eef015f140ae65","null","","null","","","","","","","","./tasks/HMM-beads/Images/WhiteBeadChoiceCorrect.png","","","","","","","","","",""
"image-keyboard-response","251","680291","0.0-3.0-6.0-1.0-0.38","5f4d296913fe2f98d46f520c","6662009ae78f21dd82fcd179","66620beb92eef015f140ae65","243","","j","","","","","","","","./tasks/HMM-beads/Images/NewTrialWC.png","lowH","1","38","1","1","1","1","true","",""
"image-keyboard-response","252","680609","0.0-3.0-6.0-1.0-1.38","5f4d296913fe2f98d46f520c","6662009ae78f21dd82fcd179","66620beb92eef015f140ae65","null","","null","","","","","","","","./tasks/HMM-beads/Images/WhiteBeadChoice.png","","","","","","","","","",""
"image-keyboard-response","253","681120","0.0-3.0-6.0-1.0-2.38","5f4d296913fe2f98d46f520c","6662009ae78f21dd82fcd179","66620beb92eef015f140ae65","null","","null","","","","","","","","./tasks/HMM-beads/Images/WhiteBeadChoiceCorrect.png","","","","","","","","","",""
"image-keyboard-response","254","681335","0.0-3.0-6.0-1.0-0.39","5f4d296913fe2f98d46f520c","6662009ae78f21dd82fcd179","66620beb92eef015f140ae65","213","","j","","","","","","","","./tasks/HMM-beads/Images/NewTrialWC.png","lowH","1","39","1","1","1","1","true","",""
"image-keyboard-response","255","681638","0.0-3.0-6.0-1.0-1.39","5f4d296913fe2f98d46f520c","6662009ae78f21dd82fcd179","66620beb92eef015f140ae65","null","","null","","","","","","","","./tasks/HMM-beads/Images/WhiteBeadChoice.png","","","","","","","","","",""
"image-keyboard-response","256","682154","0.0-3.0-6.0-1.0-2.39","5f4d296913fe2f98d46f520c","6662009ae78f21dd82fcd179","66620beb92eef015f140ae65","null","","null","","","","","","","","./tasks/HMM-beads/Images/WhiteBeadChoiceCorrect.png","","","","","","","","","",""
"image-keyboard-response","257","682391","0.0-3.0-6.0-1.0-0.40","5f4d296913fe2f98d46f520c","6662009ae78f21dd82fcd179","66620beb92eef015f140ae65","236","","j","","","","","","","","./tasks/HMM-beads/Images/NewTrialWC.png","lowH","1","40","1","1","1","1","true","",""
"image-keyboard-response","258","682699","0.0-3.0-6.0-1.0-1.40","5f4d296913fe2f98d46f520c","6662009ae78f21dd82fcd179","66620beb92eef015f140ae65","null","","null","","","","","","","","./tasks/HMM-beads/Images/WhiteBeadChoice.png","","","","","","","","","",""
"image-keyboard-response","259","683215","0.0-3.0-6.0-1.0-2.40","5f4d296913fe2f98d46f520c","6662009ae78f21dd82fcd179","66620beb92eef015f140ae65","null","","null","","","","","","","","./tasks/HMM-beads/Images/WhiteBeadChoiceCorrect.png","","","","","","","","","",""
"image-keyboard-response","260","683408","0.0-3.0-6.0-1.0-0.41","5f4d296913fe2f98d46f520c","6662009ae78f21dd82fcd179","66620beb92eef015f140ae65","193","","j","","","","","","","","./tasks/HMM-beads/Images/NewTrialWC.png","lowH","1","41","1","1","1","1","true","",""
"image-keyboard-response","261","683712","0.0-3.0-6.0-1.0-1.41","5f4d296913fe2f98d46f520c","6662009ae78f21dd82fcd179","66620beb92eef015f140ae65","null","","null","","","","","","","","./tasks/HMM-beads/Images/WhiteBeadChoice.png","","","","","","","","","",""
"image-keyboard-response","262","684225","0.0-3.0-6.0-1.0-2.41","5f4d296913fe2f98d46f520c","6662009ae78f21dd82fcd179","66620beb92eef015f140ae65","null","","null","","","","","","","","./tasks/HMM-beads/Images/WhiteBeadChoiceCorrect.png","","","","","","","","","",""
"image-keyboard-response","263","684484","0.0-3.0-6.0-1.0-0.42","5f4d296913fe2f98d46f520c","6662009ae78f21dd82fcd179","66620beb92eef015f140ae65","258","","j","","","","","","","","./tasks/HMM-beads/Images/NewTrialWC.png","lowH","1","42","1","1","1","1","true","",""
"image-keyboard-response","264","684787","0.0-3.0-6.0-1.0-1.42","5f4d296913fe2f98d46f520c","6662009ae78f21dd82fcd179","66620beb92eef015f140ae65","null","","null","","","","","","","","./tasks/HMM-beads/Images/WhiteBeadChoice.png","","","","","","","","","",""
"image-keyboard-response","265","685303","0.0-3.0-6.0-1.0-2.42","5f4d296913fe2f98d46f520c","6662009ae78f21dd82fcd179","66620beb92eef015f140ae65","null","","null","","","","","","","","./tasks/HMM-beads/Images/WhiteBeadChoiceCorrect.png","","","","","","","","","",""
"image-keyboard-response","266","685418","0.0-3.0-6.0-1.0-0.43","5f4d296913fe2f98d46f520c","6662009ae78f21dd82fcd179","66620beb92eef015f140ae65","114","","j","","","","","","","","./tasks/HMM-beads/Images/NewTrialWC.png","lowH","1","43","1","1","1","1","true","",""
"image-keyboard-response","267","685723","0.0-3.0-6.0-1.0-1.43","5f4d296913fe2f98d46f520c","6662009ae78f21dd82fcd179","66620beb92eef015f140ae65","null","","null","","","","","","","","./tasks/HMM-beads/Images/WhiteBeadChoice.png","","","","","","","","","",""
"image-keyboard-response","268","686241","0.0-3.0-6.0-1.0-2.43","5f4d296913fe2f98d46f520c","6662009ae78f21dd82fcd179","66620beb92eef015f140ae65","null","","null","","","","","","","","./tasks/HMM-beads/Images/WhiteBeadChoiceCorrect.png","","","","","","","","","",""
"image-keyboard-response","269","686383","0.0-3.0-6.0-1.0-0.44","5f4d296913fe2f98d46f520c","6662009ae78f21dd82fcd179","66620beb92eef015f140ae65","140","","j","","","","","","","","./tasks/HMM-beads/Images/NewTrialWC.png","lowH","1","44","1","1","1","1","true","",""
"image-keyboard-response","270","686691","0.0-3.0-6.0-1.0-1.44","5f4d296913fe2f98d46f520c","6662009ae78f21dd82fcd179","66620beb92eef015f140ae65","null","","null","","","","","","","","./tasks/HMM-beads/Images/WhiteBeadChoice.png","","","","","","","","","",""
"image-keyboard-response","271","687205","0.0-3.0-6.0-1.0-2.44","5f4d296913fe2f98d46f520c","6662009ae78f21dd82fcd179","66620beb92eef015f140ae65","null","","null","","","","","","","","./tasks/HMM-beads/Images/WhiteBeadChoiceCorrect.png","","","","","","","","","",""
"image-keyboard-response","272","687436","0.0-3.0-6.0-1.0-0.45","5f4d296913fe2f98d46f520c","6662009ae78f21dd82fcd179","66620beb92eef015f140ae65","230","","j","","","","","","","","./tasks/HMM-beads/Images/NewTrialWC.png","lowH","1","45","1","1","1","1","true","",""
"image-keyboard-response","273","687751","0.0-3.0-6.0-1.0-1.45","5f4d296913fe2f98d46f520c","6662009ae78f21dd82fcd179","66620beb92eef015f140ae65","null","","null","","","","","","","","./tasks/HMM-beads/Images/WhiteBeadChoice.png","","","","","","","","","",""
"image-keyboard-response","274","688266","0.0-3.0-6.0-1.0-2.45","5f4d296913fe2f98d46f520c","6662009ae78f21dd82fcd179","66620beb92eef015f140ae65","null","","null","","","","","","","","./tasks/HMM-beads/Images/WhiteBeadChoiceCorrect.png","","","","","","","","","",""
"image-keyboard-response","275","688403","0.0-3.0-6.0-1.0-0.46","5f4d296913fe2f98d46f520c","6662009ae78f21dd82fcd179","66620beb92eef015f140ae65","136","","j","","","","","","","","./tasks/HMM-beads/Images/NewTrialWC.png","lowH","1","46","1","1","1","1","true","",""
"image-keyboard-response","276","688721","0.0-3.0-6.0-1.0-1.46","5f4d296913fe2f98d46f520c","6662009ae78f21dd82fcd179","66620beb92eef015f140ae65","null","","null","","","","","","","","./tasks/HMM-beads/Images/WhiteBeadChoice.png","","","","","","","","","",""
"image-keyboard-response","277","689236","0.0-3.0-6.0-1.0-2.46","5f4d296913fe2f98d46f520c","6662009ae78f21dd82fcd179","66620beb92eef015f140ae65","null","","null","","","","","","","","./tasks/HMM-beads/Images/WhiteBeadChoiceCorrect.png","","","","","","","","","",""
"image-keyboard-response","278","689495","0.0-3.0-6.0-1.0-0.47","5f4d296913fe2f98d46f520c","6662009ae78f21dd82fcd179","66620beb92eef015f140ae65","258","","j","","","","","","","","./tasks/HMM-beads/Images/NewTrialWC.png","lowH","1","47","1","0","1","1","false","",""
"image-keyboard-response","279","689800","0.0-3.0-6.0-1.0-1.47","5f4d296913fe2f98d46f520c","6662009ae78f21dd82fcd179","66620beb92eef015f140ae65","null","","null","","","","","","","","./tasks/HMM-beads/Images/WhiteBeadChoice.png","","","","","","","","","",""
"image-keyboard-response","280","690314","0.0-3.0-6.0-1.0-2.47","5f4d296913fe2f98d46f520c","6662009ae78f21dd82fcd179","66620beb92eef015f140ae65","null","","null","","","","","","","","./tasks/HMM-beads/Images/WhiteBeadChoiceWrong.png","","","","","","","","","",""
"image-keyboard-response","281","691539","0.0-3.0-6.0-1.0-0.48","5f4d296913fe2f98d46f520c","6662009ae78f21dd82fcd179","66620beb92eef015f140ae65","1224","","f","","","","","","","","./tasks/HMM-beads/Images/NewTrialBC.png","lowH","1","48","1","0","0","0","true","",""
"image-keyboard-response","282","691846","0.0-3.0-6.0-1.0-1.48","5f4d296913fe2f98d46f520c","6662009ae78f21dd82fcd179","66620beb92eef015f140ae65","null","","null","","","","","","","","./tasks/HMM-beads/Images/BlackBeadChoice.png","","","","","","","","","",""
"image-keyboard-response","283","692361","0.0-3.0-6.0-1.0-2.48","5f4d296913fe2f98d46f520c","6662009ae78f21dd82fcd179","66620beb92eef015f140ae65","null","","null","","","","","","","","./tasks/HMM-beads/Images/BlackBeadChoiceCorrect.png","","","","","","","","","",""
"image-keyboard-response","284","692751","0.0-3.0-6.0-1.0-0.49","5f4d296913fe2f98d46f520c","6662009ae78f21dd82fcd179","66620beb92eef015f140ae65","389","","j","","","","","","","","./tasks/HMM-beads/Images/NewTrialBC.png","lowH","1","49","1","0","0","1","false","",""
"image-keyboard-response","285","693062","0.0-3.0-6.0-1.0-1.49","5f4d296913fe2f98d46f520c","6662009ae78f21dd82fcd179","66620beb92eef015f140ae65","null","","null","","","","","","","","./tasks/HMM-beads/Images/WhiteBeadChoice.png","","","","","","","","","",""
"image-keyboard-response","286","693579","0.0-3.0-6.0-1.0-2.49","5f4d296913fe2f98d46f520c","6662009ae78f21dd82fcd179","66620beb92eef015f140ae65","null","","null","","","","","","","","./tasks/HMM-beads/Images/WhiteBeadChoiceWrong.png","","","","","","","","","",""
"image-keyboard-response","287","693796","0.0-3.0-6.0-1.0-0.50","5f4d296913fe2f98d46f520c","6662009ae78f21dd82fcd179","66620beb92eef015f140ae65","216","","f","","","","","","","","./tasks/HMM-beads/Images/NewTrialBC.png","lowH","1","50","1","1","0","0","false","",""
"image-keyboard-response","288","694103","0.0-3.0-6.0-1.0-1.50","5f4d296913fe2f98d46f520c","6662009ae78f21dd82fcd179","66620beb92eef015f140ae65","null","","null","","","","","","","","./tasks/HMM-beads/Images/BlackBeadChoice.png","","","","","","","","","",""
"image-keyboard-response","289","694617","0.0-3.0-6.0-1.0-2.50","5f4d296913fe2f98d46f520c","6662009ae78f21dd82fcd179","66620beb92eef015f140ae65","null","","null","","","","","","","","./tasks/HMM-beads/Images/BlackBeadChoiceWrong.png","","","","","","","","","",""
"image-keyboard-response","290","694889","0.0-3.0-6.0-1.0-0.51","5f4d296913fe2f98d46f520c","6662009ae78f21dd82fcd179","66620beb92eef015f140ae65","271","","j","","","","","","","","./tasks/HMM-beads/Images/NewTrialWC.png","lowH","1","51","1","1","1","1","true","",""
"image-keyboard-response","291","695196","0.0-3.0-6.0-1.0-1.51","5f4d296913fe2f98d46f520c","6662009ae78f21dd82fcd179","66620beb92eef015f140ae65","null","","null","","","","","","","","./tasks/HMM-beads/Images/WhiteBeadChoice.png","","","","","","","","","",""
"image-keyboard-response","292","695710","0.0-3.0-6.0-1.0-2.51","5f4d296913fe2f98d46f520c","6662009ae78f21dd82fcd179","66620beb92eef015f140ae65","null","","null","","","","","","","","./tasks/HMM-beads/Images/WhiteBeadChoiceCorrect.png","","","","","","","","","",""
"image-keyboard-response","293","695788","0.0-3.0-6.0-1.0-0.52","5f4d296913fe2f98d46f520c","6662009ae78f21dd82fcd179","66620beb92eef015f140ae65","76","","j","","","","","","","","./tasks/HMM-beads/Images/NewTrialWC.png","lowH","1","52","1","1","1","1","true","",""
"image-keyboard-response","294","696099","0.0-3.0-6.0-1.0-1.52","5f4d296913fe2f98d46f520c","6662009ae78f21dd82fcd179","66620beb92eef015f140ae65","null","","null","","","","","","","","./tasks/HMM-beads/Images/WhiteBeadChoice.png","","","","","","","","","",""
"image-keyboard-response","295","696615","0.0-3.0-6.0-1.0-2.52","5f4d296913fe2f98d46f520c","6662009ae78f21dd82fcd179","66620beb92eef015f140ae65","null","","null","","","","","","","","./tasks/HMM-beads/Images/WhiteBeadChoiceCorrect.png","","","","","","","","","",""
"image-keyboard-response","296","696733","0.0-3.0-6.0-1.0-0.53","5f4d296913fe2f98d46f520c","6662009ae78f21dd82fcd179","66620beb92eef015f140ae65","117","","j","","","","","","","","./tasks/HMM-beads/Images/NewTrialWC.png","lowH","1","53","1","1","1","1","true","",""
"image-keyboard-response","297","697035","0.0-3.0-6.0-1.0-1.53","5f4d296913fe2f98d46f520c","6662009ae78f21dd82fcd179","66620beb92eef015f140ae65","null","","null","","","","","","","","./tasks/HMM-beads/Images/WhiteBeadChoice.png","","","","","","","","","",""
"image-keyboard-response","298","697551","0.0-3.0-6.0-1.0-2.53","5f4d296913fe2f98d46f520c","6662009ae78f21dd82fcd179","66620beb92eef015f140ae65","null","","null","","","","","","","","./tasks/HMM-beads/Images/WhiteBeadChoiceCorrect.png","","","","","","","","","",""
"image-keyboard-response","299","697990","0.0-3.0-6.0-1.0-0.54","5f4d296913fe2f98d46f520c","6662009ae78f21dd82fcd179","66620beb92eef015f140ae65","438","","j","","","","","","","","./tasks/HMM-beads/Images/NewTrialWC.png","lowH","1","54","1","1","1","1","true","",""
"image-keyboard-response","300","698299","0.0-3.0-6.0-1.0-1.54","5f4d296913fe2f98d46f520c","6662009ae78f21dd82fcd179","66620beb92eef015f140ae65","null","","null","","","","","","","","./tasks/HMM-beads/Images/WhiteBeadChoice.png","","","","","","","","","",""
"image-keyboard-response","301","698803","0.0-3.0-6.0-1.0-2.54","5f4d296913fe2f98d46f520c","6662009ae78f21dd82fcd179","66620beb92eef015f140ae65","null","","null","","","","","","","","./tasks/HMM-beads/Images/WhiteBeadChoiceCorrect.png","","","","","","","","","",""
"image-keyboard-response","302","698918","0.0-3.0-6.0-1.0-0.55","5f4d296913fe2f98d46f520c","6662009ae78f21dd82fcd179","66620beb92eef015f140ae65","113","","j","","","","","","","","./tasks/HMM-beads/Images/NewTrialWC.png","lowH","1","55","1","1","1","1","true","",""
"image-keyboard-response","303","699221","0.0-3.0-6.0-1.0-1.55","5f4d296913fe2f98d46f520c","6662009ae78f21dd82fcd179","66620beb92eef015f140ae65","null","","null","","","","","","","","./tasks/HMM-beads/Images/WhiteBeadChoice.png","","","","","","","","","",""
"image-keyboard-response","304","699737","0.0-3.0-6.0-1.0-2.55","5f4d296913fe2f98d46f520c","6662009ae78f21dd82fcd179","66620beb92eef015f140ae65","null","","null","","","","","","","","./tasks/HMM-beads/Images/WhiteBeadChoiceCorrect.png","","","","","","","","","",""
"image-keyboard-response","305","700067","0.0-3.0-6.0-1.0-0.56","5f4d296913fe2f98d46f520c","6662009ae78f21dd82fcd179","66620beb92eef015f140ae65","328","","j","","","","","","","","./tasks/HMM-beads/Images/NewTrialWC.png","lowH","1","56","1","1","1","1","true","",""
"image-keyboard-response","306","700377","0.0-3.0-6.0-1.0-1.56","5f4d296913fe2f98d46f520c","6662009ae78f21dd82fcd179","66620beb92eef015f140ae65","null","","null","","","","","","","","./tasks/HMM-beads/Images/WhiteBeadChoice.png","","","","","","","","","",""
"image-keyboard-response","307","700892","0.0-3.0-6.0-1.0-2.56","5f4d296913fe2f98d46f520c","6662009ae78f21dd82fcd179","66620beb92eef015f140ae65","null","","null","","","","","","","","./tasks/HMM-beads/Images/WhiteBeadChoiceCorrect.png","","","","","","","","","",""
"image-keyboard-response","308","701144","0.0-3.0-6.0-1.0-0.57","5f4d296913fe2f98d46f520c","6662009ae78f21dd82fcd179","66620beb92eef015f140ae65","252","","j","","","","","","","","./tasks/HMM-beads/Images/NewTrialWC.png","lowH","1","57","1","1","1","1","true","",""
"image-keyboard-response","309","701455","0.0-3.0-6.0-1.0-1.57","5f4d296913fe2f98d46f520c","6662009ae78f21dd82fcd179","66620beb92eef015f140ae65","null","","null","","","","","","","","./tasks/HMM-beads/Images/WhiteBeadChoice.png","","","","","","","","","",""
"image-keyboard-response","310","701972","0.0-3.0-6.0-1.0-2.57","5f4d296913fe2f98d46f520c","6662009ae78f21dd82fcd179","66620beb92eef015f140ae65","null","","null","","","","","","","","./tasks/HMM-beads/Images/WhiteBeadChoiceCorrect.png","","","","","","","","","",""
"image-keyboard-response","311","702175","0.0-3.0-6.0-1.0-0.58","5f4d296913fe2f98d46f520c","6662009ae78f21dd82fcd179","66620beb92eef015f140ae65","203","","j","","","","","","","","./tasks/HMM-beads/Images/NewTrialWC.png","lowH","1","58","1","1","1","1","true","",""
"image-keyboard-response","312","702487","0.0-3.0-6.0-1.0-1.58","5f4d296913fe2f98d46f520c","6662009ae78f21dd82fcd179","66620beb92eef015f140ae65","null","","null","","","","","","","","./tasks/HMM-beads/Images/WhiteBeadChoice.png","","","","","","","","","",""
"image-keyboard-response","313","703002","0.0-3.0-6.0-1.0-2.58","5f4d296913fe2f98d46f520c","6662009ae78f21dd82fcd179","66620beb92eef015f140ae65","null","","null","","","","","","","","./tasks/HMM-beads/Images/WhiteBeadChoiceCorrect.png","","","","","","","","","",""
"image-keyboard-response","314","703135","0.0-3.0-6.0-1.0-0.59","5f4d296913fe2f98d46f520c","6662009ae78f21dd82fcd179","66620beb92eef015f140ae65","132","","j","","","","","","","","./tasks/HMM-beads/Images/NewTrialWC.png","lowH","1","59","1","0","1","1","false","",""
"image-keyboard-response","315","703439","0.0-3.0-6.0-1.0-1.59","5f4d296913fe2f98d46f520c","6662009ae78f21dd82fcd179","66620beb92eef015f140ae65","null","","null","","","","","","","","./tasks/HMM-beads/Images/WhiteBeadChoice.png","","","","","","","","","",""
"image-keyboard-response","316","703955","0.0-3.0-6.0-1.0-2.59","5f4d296913fe2f98d46f520c","6662009ae78f21dd82fcd179","66620beb92eef015f140ae65","null","","null","","","","","","","","./tasks/HMM-beads/Images/WhiteBeadChoiceWrong.png","","","","","","","","","",""
"image-keyboard-response","317","704202","0.0-3.0-6.0-1.0-0.60","5f4d296913fe2f98d46f520c","6662009ae78f21dd82fcd179","66620beb92eef015f140ae65","246","","f","","","","","","","","./tasks/HMM-beads/Images/NewTrialBC.png","lowH","1","60","1","1","0","0","false","",""
"image-keyboard-response","318","704515","0.0-3.0-6.0-1.0-1.60","5f4d296913fe2f98d46f520c","6662009ae78f21dd82fcd179","66620beb92eef015f140ae65","null","","null","","","","","","","","./tasks/HMM-beads/Images/BlackBeadChoice.png","","","","","","","","","",""
"image-keyboard-response","319","705027","0.0-3.0-6.0-1.0-2.60","5f4d296913fe2f98d46f520c","6662009ae78f21dd82fcd179","66620beb92eef015f140ae65","null","","null","","","","","","","","./tasks/HMM-beads/Images/BlackBeadChoiceWrong.png","","","","","","","","","",""
"image-keyboard-response","320","705288","0.0-3.0-6.0-1.0-0.61","5f4d296913fe2f98d46f520c","6662009ae78f21dd82fcd179","66620beb92eef015f140ae65","260","","j","","","","","","","","./tasks/HMM-beads/Images/NewTrialWC.png","lowH","1","61","1","1","1","1","true","",""
"image-keyboard-response","321","705590","0.0-3.0-6.0-1.0-1.61","5f4d296913fe2f98d46f520c","6662009ae78f21dd82fcd179","66620beb92eef015f140ae65","null","","null","","","","","","","","./tasks/HMM-beads/Images/WhiteBeadChoice.png","","","","","","","","","",""
"image-keyboard-response","322","706103","0.0-3.0-6.0-1.0-2.61","5f4d296913fe2f98d46f520c","6662009ae78f21dd82fcd179","66620beb92eef015f140ae65","null","","null","","","","","","","","./tasks/HMM-beads/Images/WhiteBeadChoiceCorrect.png","","","","","","","","","",""
"image-keyboard-response","323","706434","0.0-3.0-6.0-1.0-0.62","5f4d296913fe2f98d46f520c","6662009ae78f21dd82fcd179","66620beb92eef015f140ae65","330","","j","","","","","","","","./tasks/HMM-beads/Images/NewTrialWC.png","lowH","1","62","1","0","1","1","false","",""
"image-keyboard-response","324","706748","0.0-3.0-6.0-1.0-1.62","5f4d296913fe2f98d46f520c","6662009ae78f21dd82fcd179","66620beb92eef015f140ae65","null","","null","","","","","","","","./tasks/HMM-beads/Images/WhiteBeadChoice.png","","","","","","","","","",""
"image-keyboard-response","325","707263","0.0-3.0-6.0-1.0-2.62","5f4d296913fe2f98d46f520c","6662009ae78f21dd82fcd179","66620beb92eef015f140ae65","null","","null","","","","","","","","./tasks/HMM-beads/Images/WhiteBeadChoiceWrong.png","","","","","","","","","",""
"image-keyboard-response","326","707680","0.0-3.0-6.0-1.0-0.63","5f4d296913fe2f98d46f520c","6662009ae78f21dd82fcd179","66620beb92eef015f140ae65","416","","f","","","","","","","","./tasks/HMM-beads/Images/NewTrialBC.png","lowH","1","63","1","1","0","0","false","",""
"image-keyboard-response","327","707983","0.0-3.0-6.0-1.0-1.63","5f4d296913fe2f98d46f520c","6662009ae78f21dd82fcd179","66620beb92eef015f140ae65","null","","null","","","","","","","","./tasks/HMM-beads/Images/BlackBeadChoice.png","","","","","","","","","",""
"image-keyboard-response","328","708498","0.0-3.0-6.0-1.0-2.63","5f4d296913fe2f98d46f520c","6662009ae78f21dd82fcd179","66620beb92eef015f140ae65","null","","null","","","","","","","","./tasks/HMM-beads/Images/BlackBeadChoiceWrong.png","","","","","","","","","",""
"image-keyboard-response","329","708783","0.0-3.0-6.0-1.0-0.64","5f4d296913fe2f98d46f520c","6662009ae78f21dd82fcd179","66620beb92eef015f140ae65","284","","j","","","","","","","","./tasks/HMM-beads/Images/NewTrialWC.png","lowH","1","64","1","1","1","1","true","",""
"image-keyboard-response","330","709093","0.0-3.0-6.0-1.0-1.64","5f4d296913fe2f98d46f520c","6662009ae78f21dd82fcd179","66620beb92eef015f140ae65","null","","null","","","","","","","","./tasks/HMM-beads/Images/WhiteBeadChoice.png","","","","","","","","","",""
"image-keyboard-response","331","709605","0.0-3.0-6.0-1.0-2.64","5f4d296913fe2f98d46f520c","6662009ae78f21dd82fcd179","66620beb92eef015f140ae65","null","","null","","","","","","","","./tasks/HMM-beads/Images/WhiteBeadChoiceCorrect.png","","","","","","","","","",""
"image-keyboard-response","332","709852","0.0-3.0-6.0-1.0-0.65","5f4d296913fe2f98d46f520c","6662009ae78f21dd82fcd179","66620beb92eef015f140ae65","245","","j","","","","","","","","./tasks/HMM-beads/Images/NewTrialWC.png","lowH","1","65","1","1","1","1","true","",""
"image-keyboard-response","333","710154","0.0-3.0-6.0-1.0-1.65","5f4d296913fe2f98d46f520c","6662009ae78f21dd82fcd179","66620beb92eef015f140ae65","null","","null","","","","","","","","./tasks/HMM-beads/Images/WhiteBeadChoice.png","","","","","","","","","",""
"image-keyboard-response","334","710664","0.0-3.0-6.0-1.0-2.65","5f4d296913fe2f98d46f520c","6662009ae78f21dd82fcd179","66620beb92eef015f140ae65","null","","null","","","","","","","","./tasks/HMM-beads/Images/WhiteBeadChoiceCorrect.png","","","","","","","","","",""
"image-keyboard-response","335","711060","0.0-3.0-6.0-1.0-0.66","5f4d296913fe2f98d46f520c","6662009ae78f21dd82fcd179","66620beb92eef015f140ae65","395","","j","","","","","","","","./tasks/HMM-beads/Images/NewTrialWC.png","lowH","1","66","1","1","1","1","true","",""
"image-keyboard-response","336","711372","0.0-3.0-6.0-1.0-1.66","5f4d296913fe2f98d46f520c","6662009ae78f21dd82fcd179","66620beb92eef015f140ae65","null","","null","","","","","","","","./tasks/HMM-beads/Images/WhiteBeadChoice.png","","","","","","","","","",""
"image-keyboard-response","337","711888","0.0-3.0-6.0-1.0-2.66","5f4d296913fe2f98d46f520c","6662009ae78f21dd82fcd179","66620beb92eef015f140ae65","null","","null","","","","","","","","./tasks/HMM-beads/Images/WhiteBeadChoiceCorrect.png","","","","","","","","","",""
"image-keyboard-response","338","711949","0.0-3.0-6.0-1.0-0.67","5f4d296913fe2f98d46f520c","6662009ae78f21dd82fcd179","66620beb92eef015f140ae65","61","","j","","","","","","","","./tasks/HMM-beads/Images/NewTrialWC.png","lowH","1","67","1","0","1","1","false","",""
"image-keyboard-response","339","712251","0.0-3.0-6.0-1.0-1.67","5f4d296913fe2f98d46f520c","6662009ae78f21dd82fcd179","66620beb92eef015f140ae65","null","","null","","","","","","","","./tasks/HMM-beads/Images/WhiteBeadChoice.png","","","","","","","","","",""
"image-keyboard-response","340","712765","0.0-3.0-6.0-1.0-2.67","5f4d296913fe2f98d46f520c","6662009ae78f21dd82fcd179","66620beb92eef015f140ae65","null","","null","","","","","","","","./tasks/HMM-beads/Images/WhiteBeadChoiceWrong.png","","","","","","","","","",""
"image-keyboard-response","341","713529","0.0-3.0-6.0-1.0-0.68","5f4d296913fe2f98d46f520c","6662009ae78f21dd82fcd179","66620beb92eef015f140ae65","763","","j","","","","","","","","./tasks/HMM-beads/Images/NewTrialBC.png","lowH","1","68","1","1","0","1","true","",""
"image-keyboard-response","342","713841","0.0-3.0-6.0-1.0-1.68","5f4d296913fe2f98d46f520c","6662009ae78f21dd82fcd179","66620beb92eef015f140ae65","null","","null","","","","","","","","./tasks/HMM-beads/Images/WhiteBeadChoice.png","","","","","","","","","",""
"image-keyboard-response","343","714356","0.0-3.0-6.0-1.0-2.68","5f4d296913fe2f98d46f520c","6662009ae78f21dd82fcd179","66620beb92eef015f140ae65","null","","null","","","","","","","","./tasks/HMM-beads/Images/WhiteBeadChoiceCorrect.png","","","","","","","","","",""
"image-keyboard-response","344","714397","0.0-3.0-6.0-1.0-0.69","5f4d296913fe2f98d46f520c","6662009ae78f21dd82fcd179","66620beb92eef015f140ae65","39","","j","","","","","","","","./tasks/HMM-beads/Images/NewTrialWC.png","lowH","1","69","0","1","1","1","true","",""
"image-keyboard-response","345","714698","0.0-3.0-6.0-1.0-1.69","5f4d296913fe2f98d46f520c","6662009ae78f21dd82fcd179","66620beb92eef015f140ae65","null","","null","","","","","","","","./tasks/HMM-beads/Images/WhiteBeadChoice.png","","","","","","","","","",""
"image-keyboard-response","346","715215","0.0-3.0-6.0-1.0-2.69","5f4d296913fe2f98d46f520c","6662009ae78f21dd82fcd179","66620beb92eef015f140ae65","null","","null","","","","","","","","./tasks/HMM-beads/Images/WhiteBeadChoiceCorrect.png","","","","","","","","","",""
"image-keyboard-response","347","715330","0.0-3.0-6.0-1.0-0.70","5f4d296913fe2f98d46f520c","6662009ae78f21dd82fcd179","66620beb92eef015f140ae65","114","","j","","","","","","","","./tasks/HMM-beads/Images/NewTrialWC.png","lowH","1","70","0","1","1","1","true","",""
"image-keyboard-response","348","715635","0.0-3.0-6.0-1.0-1.70","5f4d296913fe2f98d46f520c","6662009ae78f21dd82fcd179","66620beb92eef015f140ae65","null","","null","","","","","","","","./tasks/HMM-beads/Images/WhiteBeadChoice.png","","","","","","","","","",""
"image-keyboard-response","349","716149","0.0-3.0-6.0-1.0-2.70","5f4d296913fe2f98d46f520c","6662009ae78f21dd82fcd179","66620beb92eef015f140ae65","null","","null","","","","","","","","./tasks/HMM-beads/Images/WhiteBeadChoiceCorrect.png","","","","","","","","","",""
"image-keyboard-response","350","716262","0.0-3.0-6.0-1.0-0.71","5f4d296913fe2f98d46f520c","6662009ae78f21dd82fcd179","66620beb92eef015f140ae65","112","","j","","","","","","","","./tasks/HMM-beads/Images/NewTrialWC.png","lowH","1","71","0","0","1","1","false","",""
"image-keyboard-response","351","716569","0.0-3.0-6.0-1.0-1.71","5f4d296913fe2f98d46f520c","6662009ae78f21dd82fcd179","66620beb92eef015f140ae65","null","","null","","","","","","","","./tasks/HMM-beads/Images/WhiteBeadChoice.png","","","","","","","","","",""
"image-keyboard-response","352","717082","0.0-3.0-6.0-1.0-2.71","5f4d296913fe2f98d46f520c","6662009ae78f21dd82fcd179","66620beb92eef015f140ae65","null","","null","","","","","","","","./tasks/HMM-beads/Images/WhiteBeadChoiceWrong.png","","","","","","","","","",""
"image-keyboard-response","353","717321","0.0-3.0-6.0-1.0-0.72","5f4d296913fe2f98d46f520c","6662009ae78f21dd82fcd179","66620beb92eef015f140ae65","237","","f","","","","","","","","./tasks/HMM-beads/Images/NewTrialBC.png","lowH","1","72","0","0","0","0","true","",""
"image-keyboard-response","354","717632","0.0-3.0-6.0-1.0-1.72","5f4d296913fe2f98d46f520c","6662009ae78f21dd82fcd179","66620beb92eef015f140ae65","null","","null","","","","","","","","./tasks/HMM-beads/Images/BlackBeadChoice.png","","","","","","","","","",""
"image-keyboard-response","355","718144","0.0-3.0-6.0-1.0-2.72","5f4d296913fe2f98d46f520c","6662009ae78f21dd82fcd179","66620beb92eef015f140ae65","null","","null","","","","","","","","./tasks/HMM-beads/Images/BlackBeadChoiceCorrect.png","","","","","","","","","",""
"image-keyboard-response","356","718856","0.0-3.0-6.0-1.0-0.73","5f4d296913fe2f98d46f520c","6662009ae78f21dd82fcd179","66620beb92eef015f140ae65","710","","j","","","","","","","","./tasks/HMM-beads/Images/NewTrialBC.png","lowH","1","73","0","1","0","1","true","",""
"image-keyboard-response","357","719161","0.0-3.0-6.0-1.0-1.73","5f4d296913fe2f98d46f520c","6662009ae78f21dd82fcd179","66620beb92eef015f140ae65","null","","null","","","","","","","","./tasks/HMM-beads/Images/WhiteBeadChoice.png","","","","","","","","","",""
"image-keyboard-response","358","719674","0.0-3.0-6.0-1.0-2.73","5f4d296913fe2f98d46f520c","6662009ae78f21dd82fcd179","66620beb92eef015f140ae65","null","","null","","","","","","","","./tasks/HMM-beads/Images/WhiteBeadChoiceCorrect.png","","","","","","","","","",""
"image-keyboard-response","359","719898","0.0-3.0-6.0-1.0-0.74","5f4d296913fe2f98d46f520c","6662009ae78f21dd82fcd179","66620beb92eef015f140ae65","223","","j","","","","","","","","./tasks/HMM-beads/Images/NewTrialWC.png","lowH","1","74","0","0","1","1","false","",""
"image-keyboard-response","360","720208","0.0-3.0-6.0-1.0-1.74","5f4d296913fe2f98d46f520c","6662009ae78f21dd82fcd179","66620beb92eef015f140ae65","null","","null","","","","","","","","./tasks/HMM-beads/Images/WhiteBeadChoice.png","","","","","","","","","",""
"image-keyboard-response","361","720724","0.0-3.0-6.0-1.0-2.74","5f4d296913fe2f98d46f520c","6662009ae78f21dd82fcd179","66620beb92eef015f140ae65","null","","null","","","","","","","","./tasks/HMM-beads/Images/WhiteBeadChoiceWrong.png","","","","","","","","","",""
"image-keyboard-response","362","721076","0.0-3.0-6.0-1.0-0.75","5f4d296913fe2f98d46f520c","6662009ae78f21dd82fcd179","66620beb92eef015f140ae65","352","","f","","","","","","","","./tasks/HMM-beads/Images/NewTrialBC.png","lowH","1","75","0","1","0","0","false","",""
"image-keyboard-response","363","721379","0.0-3.0-6.0-1.0-1.75","5f4d296913fe2f98d46f520c","6662009ae78f21dd82fcd179","66620beb92eef015f140ae65","null","","null","","","","","","","","./tasks/HMM-beads/Images/BlackBeadChoice.png","","","","","","","","","",""
"image-keyboard-response","364","721895","0.0-3.0-6.0-1.0-2.75","5f4d296913fe2f98d46f520c","6662009ae78f21dd82fcd179","66620beb92eef015f140ae65","null","","null","","","","","","","","./tasks/HMM-beads/Images/BlackBeadChoiceWrong.png","","","","","","","","","",""
"image-keyboard-response","365","722006","0.0-3.0-6.0-1.0-0.76","5f4d296913fe2f98d46f520c","6662009ae78f21dd82fcd179","66620beb92eef015f140ae65","110","","j","","","","","","","","./tasks/HMM-beads/Images/NewTrialWC.png","lowH","1","76","0","1","1","1","true","",""
"image-keyboard-response","366","722315","0.0-3.0-6.0-1.0-1.76","5f4d296913fe2f98d46f520c","6662009ae78f21dd82fcd179","66620beb92eef015f140ae65","null","","null","","","","","","","","./tasks/HMM-beads/Images/WhiteBeadChoice.png","","","","","","","","","",""
"image-keyboard-response","367","722833","0.0-3.0-6.0-1.0-2.76","5f4d296913fe2f98d46f520c","6662009ae78f21dd82fcd179","66620beb92eef015f140ae65","null","","null","","","","","","","","./tasks/HMM-beads/Images/WhiteBeadChoiceCorrect.png","","","","","","","","","",""
"image-keyboard-response","368","722951","0.0-3.0-6.0-1.0-0.77","5f4d296913fe2f98d46f520c","6662009ae78f21dd82fcd179","66620beb92eef015f140ae65","117","","j","","","","","","","","./tasks/HMM-beads/Images/NewTrialWC.png","lowH","1","77","0","0","1","1","false","",""
"image-keyboard-response","369","723269","0.0-3.0-6.0-1.0-1.77","5f4d296913fe2f98d46f520c","6662009ae78f21dd82fcd179","66620beb92eef015f140ae65","null","","null","","","","","","","","./tasks/HMM-beads/Images/WhiteBeadChoice.png","","","","","","","","","",""
"image-keyboard-response","370","723783","0.0-3.0-6.0-1.0-2.77","5f4d296913fe2f98d46f520c","6662009ae78f21dd82fcd179","66620beb92eef015f140ae65","null","","null","","","","","","","","./tasks/HMM-beads/Images/WhiteBeadChoiceWrong.png","","","","","","","","","",""
"image-keyboard-response","371","724418","0.0-3.0-6.0-1.0-0.78","5f4d296913fe2f98d46f520c","6662009ae78f21dd82fcd179","66620beb92eef015f140ae65","634","","f","","","","","","","","./tasks/HMM-beads/Images/NewTrialBC.png","lowH","1","78","0","0","0","0","true","",""
"image-keyboard-response","372","724721","0.0-3.0-6.0-1.0-1.78","5f4d296913fe2f98d46f520c","6662009ae78f21dd82fcd179","66620beb92eef015f140ae65","null","","null","","","","","","","","./tasks/HMM-beads/Images/BlackBeadChoice.png","","","","","","","","","",""
"image-keyboard-response","373","725236","0.0-3.0-6.0-1.0-2.78","5f4d296913fe2f98d46f520c","6662009ae78f21dd82fcd179","66620beb92eef015f140ae65","null","","null","","","","","","","","./tasks/HMM-beads/Images/BlackBeadChoiceCorrect.png","","","","","","","","","",""
"image-keyboard-response","374","725720","0.0-3.0-6.0-1.0-0.79","5f4d296913fe2f98d46f520c","6662009ae78f21dd82fcd179","66620beb92eef015f140ae65","483","","f","","","","","","","","./tasks/HMM-beads/Images/NewTrialBC.png","lowH","1","79","0","0","0","0","true","",""
