"trial_type","trial_index","time_elapsed","internal_node_id","subject_id","study_id","session_id","rt","url","response","question_order","view_history","success","timeout","failed_images","failed_audio","failed_video","stimulus","block","block_rep","trial_number","jar","bead","previous_bead","choice","correct","lowH_score","total_bonus"
"pavlovia","0","2443","0.0-0.0","5f2eebd9d21e322a9ed68f09","6662009ae78f21dd82fcd179","666215433b8f136c93a4e52f","","","","","","","","","","","","","","","","","","","","",""
"external-html","1","107259","0.0-1.0-0.0","5f2eebd9d21e322a9ed68f09","6662009ae78f21dd82fcd179","666215433b8f136c93a4e52f","104691","new_consent.html","","","","","","","","","","","","","","","","","","",""
"survey-multi-choice","2","112496","0.0-1.0-1.0","5f2eebd9d21e322a9ed68f09","6662009ae78f21dd82fcd179","666215433b8f136c93a4e52f","5235","","{""Q0"":""Female"",""Q1"":""White""}","[0,1]","","","","","","","","","","","","","","","","",""
"survey-text","3","116026","0.0-1.0-2.0","5f2eebd9d21e322a9ed68f09","6662009ae78f21dd82fcd179","666215433b8f136c93a4e52f","3526","","{""Q0"":""49""}","","","","","","","","","","","","","","","","","",""
"instructions","4","117854","0.0-2.0","5f2eebd9d21e322a9ed68f09","6662009ae78f21dd82fcd179","666215433b8f136c93a4e52f","1721","","","","[{""page_index"":0,""viewing_time"":1721}]","","","","","","","","","","","","","","","",""
"preload","5","118791","0.0-3.0-0.0","5f2eebd9d21e322a9ed68f09","6662009ae78f21dd82fcd179","666215433b8f136c93a4e52f","","","","","","true","false","[]","[]","[]","","","","","","","","","","",""
"instructions","6","207987","0.0-3.0-1.0","5f2eebd9d21e322a9ed68f09","6662009ae78f21dd82fcd179","666215433b8f136c93a4e52f","89196","","","","[{""page_index"":0,""viewing_time"":13246},{""page_index"":1,""viewing_time"":6158},{""page_index"":2,""viewing_time"":3624},{""page_index"":3,""viewing_time"":2938},{""page_index"":4,""viewing_time"":6352},{""page_index"":5,""viewing_time"":18480},{""page_index"":6,""viewing_time"":6060},{""page_index"":7,""viewing_time"":7604},{""page_index"":8,""viewing_time"":7490},{""page_index"":9,""viewing_time"":5702},{""page_index"":10,""viewing_time"":9780},{""page_index"":11,""viewing_time"":1762}]","","","","","","","","","","","","","","","",""
"html-button-response","7","211179","0.0-3.0-2.0-0.0-0.0","5f2eebd9d21e322a9ed68f09","6662009ae78f21dd82fcd179","666215433b8f136c93a4e52f","3192","","1","","","","","","","","<div align=center>Your goal is to predict…?<br><br></div>","","","","","","","","","",""
"html-button-response","8","220333","0.0-3.0-2.0-1.0-0.0","5f2eebd9d21e322a9ed68f09","6662009ae78f21dd82fcd179","666215433b8f136c93a4e52f","6948","","2","","","","","","","","<div align=center>In the jar with mostly white beads, there are ___% white beads and ___% black beads?<br><br></div>","","","","","","","","","",""
"html-button-response","9","229913","0.0-3.0-2.0-2.0-0.0","5f2eebd9d21e322a9ed68f09","6662009ae78f21dd82fcd179","666215433b8f136c93a4e52f","8238","","0","","","","","","","","<div align=center>When there is a 1% probability that the jars will switch, the next bead will most likely be drawn from the…<br><br></div>","","","","","","","","","",""
"html-button-response","10","234609","0.0-3.0-2.0-3.0-0.0","5f2eebd9d21e322a9ed68f09","6662009ae78f21dd82fcd179","666215433b8f136c93a4e52f","3284","","1","","","","","","","","<div align=center>When there is a 99% probability that the jars will switch, the next bead will most likely be drawn from the…<br><br></div>","","","","","","","","","",""
"instructions","11","247720","0.0-3.0-3.0","5f2eebd9d21e322a9ed68f09","6662009ae78f21dd82fcd179","666215433b8f136c93a4e52f","11878","","","","[{""page_index"":0,""viewing_time"":11878}]","","","","","","","","","","","","","","","",""
"html-keyboard-response","12","251278","0.0-3.0-4.0-0.0","5f2eebd9d21e322a9ed68f09","6662009ae78f21dd82fcd179","666215433b8f136c93a4e52f","3557",""," ","","","","","","","","<div align=center>In this practice block, there will be a <b>1% chance</b> that the jar on the next trial will be different from the jar on the current trial.<br><br></div>","","","","","","","","","",""
"image-keyboard-response","13","261370","0.0-3.0-4.0-1.0-0.0","5f2eebd9d21e322a9ed68f09","6662009ae78f21dd82fcd179","666215433b8f136c93a4e52f","10088","","f","","","","","","","","./tasks/HMM-beads/Images/NoChoice.png","practice","0","0","0","0","9","0","true","",""
"image-keyboard-response","14","261689","0.0-3.0-4.0-1.0-1.0","5f2eebd9d21e322a9ed68f09","6662009ae78f21dd82fcd179","666215433b8f136c93a4e52f","null","","null","","","","","","","","./tasks/HMM-beads/Images/BlackBeadChoice.png","","","","","","","","","",""
"image-keyboard-response","15","262193","0.0-3.0-4.0-1.0-2.0","5f2eebd9d21e322a9ed68f09","6662009ae78f21dd82fcd179","666215433b8f136c93a4e52f","null","","null","","","","","","","","./tasks/HMM-beads/Images/BlackBeadChoiceCorrect.png","","","","","","","","","",""
"image-keyboard-response","16","270434","0.0-3.0-4.0-1.0-0.1","5f2eebd9d21e322a9ed68f09","6662009ae78f21dd82fcd179","666215433b8f136c93a4e52f","8240","","f","","","","","","","","./tasks/HMM-beads/Images/NewTrialBC.png","practice","0","1","0","0","0","0","true","",""
"image-keyboard-response","17","270737","0.0-3.0-4.0-1.0-1.1","5f2eebd9d21e322a9ed68f09","6662009ae78f21dd82fcd179","666215433b8f136c93a4e52f","null","","null","","","","","","","","./tasks/HMM-beads/Images/BlackBeadChoice.png","","","","","","","","","",""
"image-keyboard-response","18","271244","0.0-3.0-4.0-1.0-2.1","5f2eebd9d21e322a9ed68f09","6662009ae78f21dd82fcd179","666215433b8f136c93a4e52f","null","","null","","","","","","","","./tasks/HMM-beads/Images/BlackBeadChoiceCorrect.png","","","","","","","","","",""
"image-keyboard-response","19","276232","0.0-3.0-4.0-1.0-0.2","5f2eebd9d21e322a9ed68f09","6662009ae78f21dd82fcd179","666215433b8f136c93a4e52f","4987","","j","","","","","","","","./tasks/HMM-beads/Images/NewTrialBC.png","practice","0","2","0","1","0","1","true","",""
"image-keyboard-response","20","276536","0.0-3.0-4.0-1.0-1.2","5f2eebd9d21e322a9ed68f09","6662009ae78f21dd82fcd179","666215433b8f136c93a4e52f","null","","null","","","","","","","","./tasks/HMM-beads/Images/WhiteBeadChoice.png","","","","","","","","","",""
"image-keyboard-response","21","277048","0.0-3.0-4.0-1.0-2.2","5f2eebd9d21e322a9ed68f09","6662009ae78f21dd82fcd179","666215433b8f136c93a4e52f","null","","null","","","","","","","","./tasks/HMM-beads/Images/WhiteBeadChoiceCorrect.png","","","","","","","","","",""
"image-keyboard-response","22","278729","0.0-3.0-4.0-1.0-0.3","5f2eebd9d21e322a9ed68f09","6662009ae78f21dd82fcd179","666215433b8f136c93a4e52f","1680","","j","","","","","","","","./tasks/HMM-beads/Images/NewTrialWC.png","practice","0","3","0","0","1","1","false","",""
"image-keyboard-response","23","279044","0.0-3.0-4.0-1.0-1.3","5f2eebd9d21e322a9ed68f09","6662009ae78f21dd82fcd179","666215433b8f136c93a4e52f","null","","null","","","","","","","","./tasks/HMM-beads/Images/WhiteBeadChoice.png","","","","","","","","","",""
"image-keyboard-response","24","279550","0.0-3.0-4.0-1.0-2.3","5f2eebd9d21e322a9ed68f09","6662009ae78f21dd82fcd179","666215433b8f136c93a4e52f","null","","null","","","","","","","","./tasks/HMM-beads/Images/WhiteBeadChoiceWrong.png","","","","","","","","","",""
"image-keyboard-response","25","280377","0.0-3.0-4.0-1.0-0.4","5f2eebd9d21e322a9ed68f09","6662009ae78f21dd82fcd179","666215433b8f136c93a4e52f","826","","f","","","","","","","","./tasks/HMM-beads/Images/NewTrialBC.png","practice","0","4","0","0","0","0","true","",""
"image-keyboard-response","26","280683","0.0-3.0-4.0-1.0-1.4","5f2eebd9d21e322a9ed68f09","6662009ae78f21dd82fcd179","666215433b8f136c93a4e52f","null","","null","","","","","","","","./tasks/HMM-beads/Images/BlackBeadChoice.png","","","","","","","","","",""
"image-keyboard-response","27","281186","0.0-3.0-4.0-1.0-2.4","5f2eebd9d21e322a9ed68f09","6662009ae78f21dd82fcd179","666215433b8f136c93a4e52f","null","","null","","","","","","","","./tasks/HMM-beads/Images/BlackBeadChoiceCorrect.png","","","","","","","","","",""
"image-keyboard-response","28","282779","0.0-3.0-4.0-1.0-0.5","5f2eebd9d21e322a9ed68f09","6662009ae78f21dd82fcd179","666215433b8f136c93a4e52f","1592","","f","","","","","","","","./tasks/HMM-beads/Images/NewTrialBC.png","practice","0","5","0","1","0","0","false","",""
"image-keyboard-response","29","283096","0.0-3.0-4.0-1.0-1.5","5f2eebd9d21e322a9ed68f09","6662009ae78f21dd82fcd179","666215433b8f136c93a4e52f","null","","null","","","","","","","","./tasks/HMM-beads/Images/BlackBeadChoice.png","","","","","","","","","",""
"image-keyboard-response","30","283599","0.0-3.0-4.0-1.0-2.5","5f2eebd9d21e322a9ed68f09","6662009ae78f21dd82fcd179","666215433b8f136c93a4e52f","null","","null","","","","","","","","./tasks/HMM-beads/Images/BlackBeadChoiceWrong.png","","","","","","","","","",""
"image-keyboard-response","31","283994","0.0-3.0-4.0-1.0-0.6","5f2eebd9d21e322a9ed68f09","6662009ae78f21dd82fcd179","666215433b8f136c93a4e52f","394","","j","","","","","","","","./tasks/HMM-beads/Images/NewTrialWC.png","practice","0","6","0","0","1","1","false","",""
"image-keyboard-response","32","284310","0.0-3.0-4.0-1.0-1.6","5f2eebd9d21e322a9ed68f09","6662009ae78f21dd82fcd179","666215433b8f136c93a4e52f","null","","null","","","","","","","","./tasks/HMM-beads/Images/WhiteBeadChoice.png","","","","","","","","","",""
"image-keyboard-response","33","284816","0.0-3.0-4.0-1.0-2.6","5f2eebd9d21e322a9ed68f09","6662009ae78f21dd82fcd179","666215433b8f136c93a4e52f","null","","null","","","","","","","","./tasks/HMM-beads/Images/WhiteBeadChoiceWrong.png","","","","","","","","","",""
"image-keyboard-response","34","286542","0.0-3.0-4.0-1.0-0.7","5f2eebd9d21e322a9ed68f09","6662009ae78f21dd82fcd179","666215433b8f136c93a4e52f","1725","","f","","","","","","","","./tasks/HMM-beads/Images/NewTrialBC.png","practice","0","7","0","0","0","0","true","",""
"image-keyboard-response","35","286847","0.0-3.0-4.0-1.0-1.7","5f2eebd9d21e322a9ed68f09","6662009ae78f21dd82fcd179","666215433b8f136c93a4e52f","null","","null","","","","","","","","./tasks/HMM-beads/Images/BlackBeadChoice.png","","","","","","","","","",""
"image-keyboard-response","36","287360","0.0-3.0-4.0-1.0-2.7","5f2eebd9d21e322a9ed68f09","6662009ae78f21dd82fcd179","666215433b8f136c93a4e52f","null","","null","","","","","","","","./tasks/HMM-beads/Images/BlackBeadChoiceCorrect.png","","","","","","","","","",""
"image-keyboard-response","37","289406","0.0-3.0-4.0-1.0-0.8","5f2eebd9d21e322a9ed68f09","6662009ae78f21dd82fcd179","666215433b8f136c93a4e52f","2045","","f","","","","","","","","./tasks/HMM-beads/Images/NewTrialBC.png","practice","0","8","0","0","0","0","true","",""
"image-keyboard-response","38","289722","0.0-3.0-4.0-1.0-1.8","5f2eebd9d21e322a9ed68f09","6662009ae78f21dd82fcd179","666215433b8f136c93a4e52f","null","","null","","","","","","","","./tasks/HMM-beads/Images/BlackBeadChoice.png","","","","","","","","","",""
"image-keyboard-response","39","290232","0.0-3.0-4.0-1.0-2.8","5f2eebd9d21e322a9ed68f09","6662009ae78f21dd82fcd179","666215433b8f136c93a4e52f","null","","null","","","","","","","","./tasks/HMM-beads/Images/BlackBeadChoiceCorrect.png","","","","","","","","","",""
"image-keyboard-response","40","292249","0.0-3.0-4.0-1.0-0.9","5f2eebd9d21e322a9ed68f09","6662009ae78f21dd82fcd179","666215433b8f136c93a4e52f","2016","","f","","","","","","","","./tasks/HMM-beads/Images/NewTrialBC.png","practice","0","9","0","1","0","0","false","",""
"image-keyboard-response","41","292556","0.0-3.0-4.0-1.0-1.9","5f2eebd9d21e322a9ed68f09","6662009ae78f21dd82fcd179","666215433b8f136c93a4e52f","null","","null","","","","","","","","./tasks/HMM-beads/Images/BlackBeadChoice.png","","","","","","","","","",""
"image-keyboard-response","42","293065","0.0-3.0-4.0-1.0-2.9","5f2eebd9d21e322a9ed68f09","6662009ae78f21dd82fcd179","666215433b8f136c93a4e52f","null","","null","","","","","","","","./tasks/HMM-beads/Images/BlackBeadChoiceWrong.png","","","","","","","","","",""
"image-keyboard-response","43","294470","0.0-3.0-4.0-1.0-0.10","5f2eebd9d21e322a9ed68f09","6662009ae78f21dd82fcd179","666215433b8f136c93a4e52f","1404","","j","","","","","","","","./tasks/HMM-beads/Images/NewTrialWC.png","practice","0","10","0","0","1","1","false","",""
"image-keyboard-response","44","294776","0.0-3.0-4.0-1.0-1.10","5f2eebd9d21e322a9ed68f09","6662009ae78f21dd82fcd179","666215433b8f136c93a4e52f","null","","null","","","","","","","","./tasks/HMM-beads/Images/WhiteBeadChoice.png","","","","","","","","","",""
"image-keyboard-response","45","295283","0.0-3.0-4.0-1.0-2.10","5f2eebd9d21e322a9ed68f09","6662009ae78f21dd82fcd179","666215433b8f136c93a4e52f","null","","null","","","","","","","","./tasks/HMM-beads/Images/WhiteBeadChoiceWrong.png","","","","","","","","","",""
"image-keyboard-response","46","297123","0.0-3.0-4.0-1.0-0.11","5f2eebd9d21e322a9ed68f09","6662009ae78f21dd82fcd179","666215433b8f136c93a4e52f","1838","","f","","","","","","","","./tasks/HMM-beads/Images/NewTrialBC.png","practice","0","11","0","1","0","0","false","",""
"image-keyboard-response","47","297440","0.0-3.0-4.0-1.0-1.11","5f2eebd9d21e322a9ed68f09","6662009ae78f21dd82fcd179","666215433b8f136c93a4e52f","null","","null","","","","","","","","./tasks/HMM-beads/Images/BlackBeadChoice.png","","","","","","","","","",""
"image-keyboard-response","48","297942","0.0-3.0-4.0-1.0-2.11","5f2eebd9d21e322a9ed68f09","6662009ae78f21dd82fcd179","666215433b8f136c93a4e52f","null","","null","","","","","","","","./tasks/HMM-beads/Images/BlackBeadChoiceWrong.png","","","","","","","","","",""
"image-keyboard-response","49","299232","0.0-3.0-4.0-1.0-0.12","5f2eebd9d21e322a9ed68f09","6662009ae78f21dd82fcd179","666215433b8f136c93a4e52f","1289","","j","","","","","","","","./tasks/HMM-beads/Images/NewTrialWC.png","practice","0","12","0","0","1","1","false","",""
"image-keyboard-response","50","299540","0.0-3.0-4.0-1.0-1.12","5f2eebd9d21e322a9ed68f09","6662009ae78f21dd82fcd179","666215433b8f136c93a4e52f","null","","null","","","","","","","","./tasks/HMM-beads/Images/WhiteBeadChoice.png","","","","","","","","","",""
"image-keyboard-response","51","300044","0.0-3.0-4.0-1.0-2.12","5f2eebd9d21e322a9ed68f09","6662009ae78f21dd82fcd179","666215433b8f136c93a4e52f","null","","null","","","","","","","","./tasks/HMM-beads/Images/WhiteBeadChoiceWrong.png","","","","","","","","","",""
"image-keyboard-response","52","300544","0.0-3.0-4.0-1.0-0.13","5f2eebd9d21e322a9ed68f09","6662009ae78f21dd82fcd179","666215433b8f136c93a4e52f","499","","f","","","","","","","","./tasks/HMM-beads/Images/NewTrialBC.png","practice","0","13","0","0","0","0","true","",""
"image-keyboard-response","53","300857","0.0-3.0-4.0-1.0-1.13","5f2eebd9d21e322a9ed68f09","6662009ae78f21dd82fcd179","666215433b8f136c93a4e52f","null","","null","","","","","","","","./tasks/HMM-beads/Images/BlackBeadChoice.png","","","","","","","","","",""
"image-keyboard-response","54","301360","0.0-3.0-4.0-1.0-2.13","5f2eebd9d21e322a9ed68f09","6662009ae78f21dd82fcd179","666215433b8f136c93a4e52f","null","","null","","","","","","","","./tasks/HMM-beads/Images/BlackBeadChoiceCorrect.png","","","","","","","","","",""
"image-keyboard-response","55","301800","0.0-3.0-4.0-1.0-0.14","5f2eebd9d21e322a9ed68f09","6662009ae78f21dd82fcd179","666215433b8f136c93a4e52f","439","","f","","","","","","","","./tasks/HMM-beads/Images/NewTrialBC.png","practice","0","14","0","0","0","0","true","",""
"image-keyboard-response","56","302103","0.0-3.0-4.0-1.0-1.14","5f2eebd9d21e322a9ed68f09","6662009ae78f21dd82fcd179","666215433b8f136c93a4e52f","null","","null","","","","","","","","./tasks/HMM-beads/Images/BlackBeadChoice.png","","","","","","","","","",""
"image-keyboard-response","57","302606","0.0-3.0-4.0-1.0-2.14","5f2eebd9d21e322a9ed68f09","6662009ae78f21dd82fcd179","666215433b8f136c93a4e52f","null","","null","","","","","","","","./tasks/HMM-beads/Images/BlackBeadChoiceCorrect.png","","","","","","","","","",""
"image-keyboard-response","58","303111","0.0-3.0-4.0-1.0-0.15","5f2eebd9d21e322a9ed68f09","6662009ae78f21dd82fcd179","666215433b8f136c93a4e52f","504","","f","","","","","","","","./tasks/HMM-beads/Images/NewTrialBC.png","practice","0","15","0","0","0","0","true","",""
"image-keyboard-response","59","303418","0.0-3.0-4.0-1.0-1.15","5f2eebd9d21e322a9ed68f09","6662009ae78f21dd82fcd179","666215433b8f136c93a4e52f","null","","null","","","","","","","","./tasks/HMM-beads/Images/BlackBeadChoice.png","","","","","","","","","",""
"image-keyboard-response","60","303945","0.0-3.0-4.0-1.0-2.15","5f2eebd9d21e322a9ed68f09","6662009ae78f21dd82fcd179","666215433b8f136c93a4e52f","null","","null","","","","","","","","./tasks/HMM-beads/Images/BlackBeadChoiceCorrect.png","","","","","","","","","",""
"image-keyboard-response","61","304141","0.0-3.0-4.0-1.0-0.16","5f2eebd9d21e322a9ed68f09","6662009ae78f21dd82fcd179","666215433b8f136c93a4e52f","195","","f","","","","","","","","./tasks/HMM-beads/Images/NewTrialBC.png","practice","0","16","0","0","0","0","true","",""
"image-keyboard-response","62","304457","0.0-3.0-4.0-1.0-1.16","5f2eebd9d21e322a9ed68f09","6662009ae78f21dd82fcd179","666215433b8f136c93a4e52f","null","","null","","","","","","","","./tasks/HMM-beads/Images/BlackBeadChoice.png","","","","","","","","","",""
"image-keyboard-response","63","304967","0.0-3.0-4.0-1.0-2.16","5f2eebd9d21e322a9ed68f09","6662009ae78f21dd82fcd179","666215433b8f136c93a4e52f","null","","null","","","","","","","","./tasks/HMM-beads/Images/BlackBeadChoiceCorrect.png","","","","","","","","","",""
"image-keyboard-response","64","305126","0.0-3.0-4.0-1.0-0.17","5f2eebd9d21e322a9ed68f09","6662009ae78f21dd82fcd179","666215433b8f136c93a4e52f","158","","j","","","","","","","","./tasks/HMM-beads/Images/NewTrialBC.png","practice","0","17","0","0","0","1","false","",""
"image-keyboard-response","65","305442","0.0-3.0-4.0-1.0-1.17","5f2eebd9d21e322a9ed68f09","6662009ae78f21dd82fcd179","666215433b8f136c93a4e52f","null","","null","","","","","","","","./tasks/HMM-beads/Images/WhiteBeadChoice.png","","","","","","","","","",""
"image-keyboard-response","66","305947","0.0-3.0-4.0-1.0-2.17","5f2eebd9d21e322a9ed68f09","6662009ae78f21dd82fcd179","666215433b8f136c93a4e52f","null","","null","","","","","","","","./tasks/HMM-beads/Images/WhiteBeadChoiceWrong.png","","","","","","","","","",""
"image-keyboard-response","67","306362","0.0-3.0-4.0-1.0-0.18","5f2eebd9d21e322a9ed68f09","6662009ae78f21dd82fcd179","666215433b8f136c93a4e52f","414","","f","","","","","","","","./tasks/HMM-beads/Images/NewTrialBC.png","practice","0","18","0","1","0","0","false","",""
"image-keyboard-response","68","306683","0.0-3.0-4.0-1.0-1.18","5f2eebd9d21e322a9ed68f09","6662009ae78f21dd82fcd179","666215433b8f136c93a4e52f","null","","null","","","","","","","","./tasks/HMM-beads/Images/BlackBeadChoice.png","","","","","","","","","",""
"image-keyboard-response","69","307195","0.0-3.0-4.0-1.0-2.18","5f2eebd9d21e322a9ed68f09","6662009ae78f21dd82fcd179","666215433b8f136c93a4e52f","null","","null","","","","","","","","./tasks/HMM-beads/Images/BlackBeadChoiceWrong.png","","","","","","","","","",""
"image-keyboard-response","70","307608","0.0-3.0-4.0-1.0-0.19","5f2eebd9d21e322a9ed68f09","6662009ae78f21dd82fcd179","666215433b8f136c93a4e52f","412","","j","","","","","","","","./tasks/HMM-beads/Images/NewTrialWC.png","practice","0","19","0","0","1","1","false","",""
"image-keyboard-response","71","307916","0.0-3.0-4.0-1.0-1.19","5f2eebd9d21e322a9ed68f09","6662009ae78f21dd82fcd179","666215433b8f136c93a4e52f","null","","null","","","","","","","","./tasks/HMM-beads/Images/WhiteBeadChoice.png","","","","","","","","","",""
"image-keyboard-response","72","308419","0.0-3.0-4.0-1.0-2.19","5f2eebd9d21e322a9ed68f09","6662009ae78f21dd82fcd179","666215433b8f136c93a4e52f","null","","null","","","","","","","","./tasks/HMM-beads/Images/WhiteBeadChoiceWrong.png","","","","","","","","","",""
"image-keyboard-response","73","308633","0.0-3.0-4.0-1.0-0.20","5f2eebd9d21e322a9ed68f09","6662009ae78f21dd82fcd179","666215433b8f136c93a4e52f","213","","f","","","","","","","","./tasks/HMM-beads/Images/NewTrialBC.png","practice","0","20","0","0","0","0","true","",""
"image-keyboard-response","74","308942","0.0-3.0-4.0-1.0-1.20","5f2eebd9d21e322a9ed68f09","6662009ae78f21dd82fcd179","666215433b8f136c93a4e52f","null","","null","","","","","","","","./tasks/HMM-beads/Images/BlackBeadChoice.png","","","","","","","","","",""
"image-keyboard-response","75","309444","0.0-3.0-4.0-1.0-2.20","5f2eebd9d21e322a9ed68f09","6662009ae78f21dd82fcd179","666215433b8f136c93a4e52f","null","","null","","","","","","","","./tasks/HMM-beads/Images/BlackBeadChoiceCorrect.png","","","","","","","","","",""
"image-keyboard-response","76","309703","0.0-3.0-4.0-1.0-0.21","5f2eebd9d21e322a9ed68f09","6662009ae78f21dd82fcd179","666215433b8f136c93a4e52f","257","","f","","","","","","","","./tasks/HMM-beads/Images/NewTrialBC.png","practice","0","21","0","1","0","0","false","",""
"image-keyboard-response","77","310015","0.0-3.0-4.0-1.0-1.21","5f2eebd9d21e322a9ed68f09","6662009ae78f21dd82fcd179","666215433b8f136c93a4e52f","null","","null","","","","","","","","./tasks/HMM-beads/Images/BlackBeadChoice.png","","","","","","","","","",""
"image-keyboard-response","78","310519","0.0-3.0-4.0-1.0-2.21","5f2eebd9d21e322a9ed68f09","6662009ae78f21dd82fcd179","666215433b8f136c93a4e52f","null","","null","","","","","","","","./tasks/HMM-beads/Images/BlackBeadChoiceWrong.png","","","","","","","","","",""
"image-keyboard-response","79","310562","0.0-3.0-4.0-1.0-0.22","5f2eebd9d21e322a9ed68f09","6662009ae78f21dd82fcd179","666215433b8f136c93a4e52f","42","","j","","","","","","","","./tasks/HMM-beads/Images/NewTrialWC.png","practice","0","22","1","1","1","1","true","",""
"image-keyboard-response","80","310874","0.0-3.0-4.0-1.0-1.22","5f2eebd9d21e322a9ed68f09","6662009ae78f21dd82fcd179","666215433b8f136c93a4e52f","null","","null","","","","","","","","./tasks/HMM-beads/Images/WhiteBeadChoice.png","","","","","","","","","",""
"image-keyboard-response","81","311390","0.0-3.0-4.0-1.0-2.22","5f2eebd9d21e322a9ed68f09","6662009ae78f21dd82fcd179","666215433b8f136c93a4e52f","null","","null","","","","","","","","./tasks/HMM-beads/Images/WhiteBeadChoiceCorrect.png","","","","","","","","","",""
"image-keyboard-response","82","311874","0.0-3.0-4.0-1.0-0.23","5f2eebd9d21e322a9ed68f09","6662009ae78f21dd82fcd179","666215433b8f136c93a4e52f","482","","j","","","","","","","","./tasks/HMM-beads/Images/NewTrialWC.png","practice","0","23","1","0","1","1","false","",""
"image-keyboard-response","83","312184","0.0-3.0-4.0-1.0-1.23","5f2eebd9d21e322a9ed68f09","6662009ae78f21dd82fcd179","666215433b8f136c93a4e52f","null","","null","","","","","","","","./tasks/HMM-beads/Images/WhiteBeadChoice.png","","","","","","","","","",""
"image-keyboard-response","84","312692","0.0-3.0-4.0-1.0-2.23","5f2eebd9d21e322a9ed68f09","6662009ae78f21dd82fcd179","666215433b8f136c93a4e52f","null","","null","","","","","","","","./tasks/HMM-beads/Images/WhiteBeadChoiceWrong.png","","","","","","","","","",""
"image-keyboard-response","85","312948","0.0-3.0-4.0-1.0-0.24","5f2eebd9d21e322a9ed68f09","6662009ae78f21dd82fcd179","666215433b8f136c93a4e52f","254","","f","","","","","","","","./tasks/HMM-beads/Images/NewTrialBC.png","practice","0","24","1","1","0","0","false","",""
"image-keyboard-response","86","313250","0.0-3.0-4.0-1.0-1.24","5f2eebd9d21e322a9ed68f09","6662009ae78f21dd82fcd179","666215433b8f136c93a4e52f","null","","null","","","","","","","","./tasks/HMM-beads/Images/BlackBeadChoice.png","","","","","","","","","",""
"image-keyboard-response","87","313755","0.0-3.0-4.0-1.0-2.24","5f2eebd9d21e322a9ed68f09","6662009ae78f21dd82fcd179","666215433b8f136c93a4e52f","null","","null","","","","","","","","./tasks/HMM-beads/Images/BlackBeadChoiceWrong.png","","","","","","","","","",""
"image-keyboard-response","88","314049","0.0-3.0-4.0-1.0-0.25","5f2eebd9d21e322a9ed68f09","6662009ae78f21dd82fcd179","666215433b8f136c93a4e52f","293","","j","","","","","","","","./tasks/HMM-beads/Images/NewTrialWC.png","practice","0","25","1","1","1","1","true","",""
"image-keyboard-response","89","314352","0.0-3.0-4.0-1.0-1.25","5f2eebd9d21e322a9ed68f09","6662009ae78f21dd82fcd179","666215433b8f136c93a4e52f","null","","null","","","","","","","","./tasks/HMM-beads/Images/WhiteBeadChoice.png","","","","","","","","","",""
"image-keyboard-response","90","314859","0.0-3.0-4.0-1.0-2.25","5f2eebd9d21e322a9ed68f09","6662009ae78f21dd82fcd179","666215433b8f136c93a4e52f","null","","null","","","","","","","","./tasks/HMM-beads/Images/WhiteBeadChoiceCorrect.png","","","","","","","","","",""
"image-keyboard-response","91","315516","0.0-3.0-4.0-1.0-0.26","5f2eebd9d21e322a9ed68f09","6662009ae78f21dd82fcd179","666215433b8f136c93a4e52f","656","","j","","","","","","","","./tasks/HMM-beads/Images/NewTrialWC.png","practice","0","26","1","1","1","1","true","",""
"image-keyboard-response","92","315819","0.0-3.0-4.0-1.0-1.26","5f2eebd9d21e322a9ed68f09","6662009ae78f21dd82fcd179","666215433b8f136c93a4e52f","null","","null","","","","","","","","./tasks/HMM-beads/Images/WhiteBeadChoice.png","","","","","","","","","",""
"image-keyboard-response","93","316329","0.0-3.0-4.0-1.0-2.26","5f2eebd9d21e322a9ed68f09","6662009ae78f21dd82fcd179","666215433b8f136c93a4e52f","null","","null","","","","","","","","./tasks/HMM-beads/Images/WhiteBeadChoiceCorrect.png","","","","","","","","","",""
"image-keyboard-response","94","316958","0.0-3.0-4.0-1.0-0.27","5f2eebd9d21e322a9ed68f09","6662009ae78f21dd82fcd179","666215433b8f136c93a4e52f","628","","j","","","","","","","","./tasks/HMM-beads/Images/NewTrialWC.png","practice","0","27","1","1","1","1","true","",""
"image-keyboard-response","95","317267","0.0-3.0-4.0-1.0-1.27","5f2eebd9d21e322a9ed68f09","6662009ae78f21dd82fcd179","666215433b8f136c93a4e52f","null","","null","","","","","","","","./tasks/HMM-beads/Images/WhiteBeadChoice.png","","","","","","","","","",""
"image-keyboard-response","96","317781","0.0-3.0-4.0-1.0-2.27","5f2eebd9d21e322a9ed68f09","6662009ae78f21dd82fcd179","666215433b8f136c93a4e52f","null","","null","","","","","","","","./tasks/HMM-beads/Images/WhiteBeadChoiceCorrect.png","","","","","","","","","",""
"image-keyboard-response","97","317847","0.0-3.0-4.0-1.0-0.28","5f2eebd9d21e322a9ed68f09","6662009ae78f21dd82fcd179","666215433b8f136c93a4e52f","65","","j","","","","","","","","./tasks/HMM-beads/Images/NewTrialWC.png","practice","0","28","1","0","1","1","false","",""
"image-keyboard-response","98","318161","0.0-3.0-4.0-1.0-1.28","5f2eebd9d21e322a9ed68f09","6662009ae78f21dd82fcd179","666215433b8f136c93a4e52f","null","","null","","","","","","","","./tasks/HMM-beads/Images/WhiteBeadChoice.png","","","","","","","","","",""
"image-keyboard-response","99","318662","0.0-3.0-4.0-1.0-2.28","5f2eebd9d21e322a9ed68f09","6662009ae78f21dd82fcd179","666215433b8f136c93a4e52f","null","","null","","","","","","","","./tasks/HMM-beads/Images/WhiteBeadChoiceWrong.png","","","","","","","","","",""
"image-keyboard-response","100","319570","0.0-3.0-4.0-1.0-0.29","5f2eebd9d21e322a9ed68f09","6662009ae78f21dd82fcd179","666215433b8f136c93a4e52f","907","","f","","","","","","","","./tasks/HMM-beads/Images/NewTrialBC.png","practice","0","29","1","1","0","0","false","",""
"image-keyboard-response","101","319877","0.0-3.0-4.0-1.0-1.29","5f2eebd9d21e322a9ed68f09","6662009ae78f21dd82fcd179","666215433b8f136c93a4e52f","null","","null","","","","","","","","./tasks/HMM-beads/Images/BlackBeadChoice.png","","","","","","","","","",""
"image-keyboard-response","102","320381","0.0-3.0-4.0-1.0-2.29","5f2eebd9d21e322a9ed68f09","6662009ae78f21dd82fcd179","666215433b8f136c93a4e52f","null","","null","","","","","","","","./tasks/HMM-beads/Images/BlackBeadChoiceWrong.png","","","","","","","","","",""
"image-keyboard-response","103","320529","0.0-3.0-4.0-1.0-0.30","5f2eebd9d21e322a9ed68f09","6662009ae78f21dd82fcd179","666215433b8f136c93a4e52f","147","","j","","","","","","","","./tasks/HMM-beads/Images/NewTrialWC.png","practice","0","30","1","0","1","1","false","",""
"image-keyboard-response","104","320844","0.0-3.0-4.0-1.0-1.30","5f2eebd9d21e322a9ed68f09","6662009ae78f21dd82fcd179","666215433b8f136c93a4e52f","null","","null","","","","","","","","./tasks/HMM-beads/Images/WhiteBeadChoice.png","","","","","","","","","",""
"image-keyboard-response","105","321354","0.0-3.0-4.0-1.0-2.30","5f2eebd9d21e322a9ed68f09","6662009ae78f21dd82fcd179","666215433b8f136c93a4e52f","null","","null","","","","","","","","./tasks/HMM-beads/Images/WhiteBeadChoiceWrong.png","","","","","","","","","",""
"image-keyboard-response","106","321525","0.0-3.0-4.0-1.0-0.31","5f2eebd9d21e322a9ed68f09","6662009ae78f21dd82fcd179","666215433b8f136c93a4e52f","170","","f","","","","","","","","./tasks/HMM-beads/Images/NewTrialBC.png","practice","0","31","1","1","0","0","false","",""
"image-keyboard-response","107","321842","0.0-3.0-4.0-1.0-1.31","5f2eebd9d21e322a9ed68f09","6662009ae78f21dd82fcd179","666215433b8f136c93a4e52f","null","","null","","","","","","","","./tasks/HMM-beads/Images/BlackBeadChoice.png","","","","","","","","","",""
"image-keyboard-response","108","322347","0.0-3.0-4.0-1.0-2.31","5f2eebd9d21e322a9ed68f09","6662009ae78f21dd82fcd179","666215433b8f136c93a4e52f","null","","null","","","","","","","","./tasks/HMM-beads/Images/BlackBeadChoiceWrong.png","","","","","","","","","",""
"image-keyboard-response","109","323233","0.0-3.0-4.0-1.0-0.32","5f2eebd9d21e322a9ed68f09","6662009ae78f21dd82fcd179","666215433b8f136c93a4e52f","884","","j","","","","","","","","./tasks/HMM-beads/Images/NewTrialWC.png","practice","0","32","1","1","1","1","true","",""
"image-keyboard-response","110","323545","0.0-3.0-4.0-1.0-1.32","5f2eebd9d21e322a9ed68f09","6662009ae78f21dd82fcd179","666215433b8f136c93a4e52f","null","","null","","","","","","","","./tasks/HMM-beads/Images/WhiteBeadChoice.png","","","","","","","","","",""
"image-keyboard-response","111","324057","0.0-3.0-4.0-1.0-2.32","5f2eebd9d21e322a9ed68f09","6662009ae78f21dd82fcd179","666215433b8f136c93a4e52f","null","","null","","","","","","","","./tasks/HMM-beads/Images/WhiteBeadChoiceCorrect.png","","","","","","","","","",""
"image-keyboard-response","112","325266","0.0-3.0-4.0-1.0-0.33","5f2eebd9d21e322a9ed68f09","6662009ae78f21dd82fcd179","666215433b8f136c93a4e52f","1208","","j","","","","","","","","./tasks/HMM-beads/Images/NewTrialWC.png","practice","0","33","1","1","1","1","true","",""
"image-keyboard-response","113","325581","0.0-3.0-4.0-1.0-1.33","5f2eebd9d21e322a9ed68f09","6662009ae78f21dd82fcd179","666215433b8f136c93a4e52f","null","","null","","","","","","","","./tasks/HMM-beads/Images/WhiteBeadChoice.png","","","","","","","","","",""
"image-keyboard-response","114","326097","0.0-3.0-4.0-1.0-2.33","5f2eebd9d21e322a9ed68f09","6662009ae78f21dd82fcd179","666215433b8f136c93a4e52f","null","","null","","","","","","","","./tasks/HMM-beads/Images/WhiteBeadChoiceCorrect.png","","","","","","","","","",""
"image-keyboard-response","115","327538","0.0-3.0-4.0-1.0-0.34","5f2eebd9d21e322a9ed68f09","6662009ae78f21dd82fcd179","666215433b8f136c93a4e52f","1440","","j","","","","","","","","./tasks/HMM-beads/Images/NewTrialWC.png","practice","0","34","1","1","1","1","true","",""
"image-keyboard-response","116","327839","0.0-3.0-4.0-1.0-1.34","5f2eebd9d21e322a9ed68f09","6662009ae78f21dd82fcd179","666215433b8f136c93a4e52f","null","","null","","","","","","","","./tasks/HMM-beads/Images/WhiteBeadChoice.png","","","","","","","","","",""
"image-keyboard-response","117","328346","0.0-3.0-4.0-1.0-2.34","5f2eebd9d21e322a9ed68f09","6662009ae78f21dd82fcd179","666215433b8f136c93a4e52f","null","","null","","","","","","","","./tasks/HMM-beads/Images/WhiteBeadChoiceCorrect.png","","","","","","","","","",""
"image-keyboard-response","118","329216","0.0-3.0-4.0-1.0-0.35","5f2eebd9d21e322a9ed68f09","6662009ae78f21dd82fcd179","666215433b8f136c93a4e52f","869","","j","","","","","","","","./tasks/HMM-beads/Images/NewTrialWC.png","practice","0","35","1","1","1","1","true","",""
"image-keyboard-response","119","329527","0.0-3.0-4.0-1.0-1.35","5f2eebd9d21e322a9ed68f09","6662009ae78f21dd82fcd179","666215433b8f136c93a4e52f","null","","null","","","","","","","","./tasks/HMM-beads/Images/WhiteBeadChoice.png","","","","","","","","","",""
"image-keyboard-response","120","330040","0.0-3.0-4.0-1.0-2.35","5f2eebd9d21e322a9ed68f09","6662009ae78f21dd82fcd179","666215433b8f136c93a4e52f","null","","null","","","","","","","","./tasks/HMM-beads/Images/WhiteBeadChoiceCorrect.png","","","","","","","","","",""
"image-keyboard-response","121","330372","0.0-3.0-4.0-1.0-0.36","5f2eebd9d21e322a9ed68f09","6662009ae78f21dd82fcd179","666215433b8f136c93a4e52f","331","","f","","","","","","","","./tasks/HMM-beads/Images/NewTrialWC.png","practice","0","36","1","0","1","0","true","",""
"image-keyboard-response","122","330687","0.0-3.0-4.0-1.0-1.36","5f2eebd9d21e322a9ed68f09","6662009ae78f21dd82fcd179","666215433b8f136c93a4e52f","null","","null","","","","","","","","./tasks/HMM-beads/Images/BlackBeadChoice.png","","","","","","","","","",""
"image-keyboard-response","123","331193","0.0-3.0-4.0-1.0-2.36","5f2eebd9d21e322a9ed68f09","6662009ae78f21dd82fcd179","666215433b8f136c93a4e52f","null","","null","","","","","","","","./tasks/HMM-beads/Images/BlackBeadChoiceCorrect.png","","","","","","","","","",""
"image-keyboard-response","124","331779","0.0-3.0-4.0-1.0-0.37","5f2eebd9d21e322a9ed68f09","6662009ae78f21dd82fcd179","666215433b8f136c93a4e52f","585","","f","","","","","","","","./tasks/HMM-beads/Images/NewTrialBC.png","practice","0","37","1","1","0","0","false","",""
"image-keyboard-response","125","332088","0.0-3.0-4.0-1.0-1.37","5f2eebd9d21e322a9ed68f09","6662009ae78f21dd82fcd179","666215433b8f136c93a4e52f","null","","null","","","","","","","","./tasks/HMM-beads/Images/BlackBeadChoice.png","","","","","","","","","",""
"image-keyboard-response","126","332602","0.0-3.0-4.0-1.0-2.37","5f2eebd9d21e322a9ed68f09","6662009ae78f21dd82fcd179","666215433b8f136c93a4e52f","null","","null","","","","","","","","./tasks/HMM-beads/Images/BlackBeadChoiceWrong.png","","","","","","","","","",""
"image-keyboard-response","127","333005","0.0-3.0-4.0-1.0-0.38","5f2eebd9d21e322a9ed68f09","6662009ae78f21dd82fcd179","666215433b8f136c93a4e52f","402","","j","","","","","","","","./tasks/HMM-beads/Images/NewTrialWC.png","practice","0","38","1","1","1","1","true","",""
"image-keyboard-response","128","333307","0.0-3.0-4.0-1.0-1.38","5f2eebd9d21e322a9ed68f09","6662009ae78f21dd82fcd179","666215433b8f136c93a4e52f","null","","null","","","","","","","","./tasks/HMM-beads/Images/WhiteBeadChoice.png","","","","","","","","","",""
"image-keyboard-response","129","333823","0.0-3.0-4.0-1.0-2.38","5f2eebd9d21e322a9ed68f09","6662009ae78f21dd82fcd179","666215433b8f136c93a4e52f","null","","null","","","","","","","","./tasks/HMM-beads/Images/WhiteBeadChoiceCorrect.png","","","","","","","","","",""
"image-keyboard-response","130","334315","0.0-3.0-4.0-1.0-0.39","5f2eebd9d21e322a9ed68f09","6662009ae78f21dd82fcd179","666215433b8f136c93a4e52f","490","","j","","","","","","","","./tasks/HMM-beads/Images/NewTrialWC.png","practice","0","39","1","1","1","1","true","",""
"image-keyboard-response","131","334622","0.0-3.0-4.0-1.0-1.39","5f2eebd9d21e322a9ed68f09","6662009ae78f21dd82fcd179","666215433b8f136c93a4e52f","null","","null","","","","","","","","./tasks/HMM-beads/Images/WhiteBeadChoice.png","","","","","","","","","",""
"image-keyboard-response","132","335136","0.0-3.0-4.0-1.0-2.39","5f2eebd9d21e322a9ed68f09","6662009ae78f21dd82fcd179","666215433b8f136c93a4e52f","null","","null","","","","","","","","./tasks/HMM-beads/Images/WhiteBeadChoiceCorrect.png","","","","","","","","","",""
"html-keyboard-response","133","339255","0.0-3.0-4.0-2.0","5f2eebd9d21e322a9ed68f09","6662009ae78f21dd82fcd179","666215433b8f136c93a4e52f","4117",""," ","","","","","","","","","","","","","","","","","",""
"instructions","134","351511","0.0-3.0-5.0","5f2eebd9d21e322a9ed68f09","6662009ae78f21dd82fcd179","666215433b8f136c93a4e52f","12255","","","","[{""page_index"":0,""viewing_time"":9468},{""page_index"":1,""viewing_time"":2786}]","","","","","","","","","","","","","","","",""
"html-keyboard-response","135","358237","0.0-3.0-6.0-0.0","5f2eebd9d21e322a9ed68f09","6662009ae78f21dd82fcd179","666215433b8f136c93a4e52f","6725",""," ","","","","","","","","<div align=center>In this block, there will be a <b>1% chance</b> that the jar on the next trial will be different from the jar on the current trial.<br><br></div>","","","","","","","","","",""
"image-keyboard-response","136","361090","0.0-3.0-6.0-1.0-0.0","5f2eebd9d21e322a9ed68f09","6662009ae78f21dd82fcd179","666215433b8f136c93a4e52f","2852","","j","","","","","","","","./tasks/HMM-beads/Images/NoChoice.png","lowH","1","0","1","0","9","1","false","",""
"image-keyboard-response","137","361394","0.0-3.0-6.0-1.0-1.0","5f2eebd9d21e322a9ed68f09","6662009ae78f21dd82fcd179","666215433b8f136c93a4e52f","null","","null","","","","","","","","./tasks/HMM-beads/Images/WhiteBeadChoice.png","","","","","","","","","",""
"image-keyboard-response","138","361908","0.0-3.0-6.0-1.0-2.0","5f2eebd9d21e322a9ed68f09","6662009ae78f21dd82fcd179","666215433b8f136c93a4e52f","null","","null","","","","","","","","./tasks/HMM-beads/Images/WhiteBeadChoiceWrong.png","","","","","","","","","",""
"image-keyboard-response","139","362758","0.0-3.0-6.0-1.0-0.1","5f2eebd9d21e322a9ed68f09","6662009ae78f21dd82fcd179","666215433b8f136c93a4e52f","849","","f","","","","","","","","./tasks/HMM-beads/Images/NewTrialBC.png","lowH","1","1","1","1","0","0","false","",""
"image-keyboard-response","140","363067","0.0-3.0-6.0-1.0-1.1","5f2eebd9d21e322a9ed68f09","6662009ae78f21dd82fcd179","666215433b8f136c93a4e52f","null","","null","","","","","","","","./tasks/HMM-beads/Images/BlackBeadChoice.png","","","","","","","","","",""
"image-keyboard-response","141","363574","0.0-3.0-6.0-1.0-2.1","5f2eebd9d21e322a9ed68f09","6662009ae78f21dd82fcd179","666215433b8f136c93a4e52f","null","","null","","","","","","","","./tasks/HMM-beads/Images/BlackBeadChoiceWrong.png","","","","","","","","","",""
"image-keyboard-response","142","364380","0.0-3.0-6.0-1.0-0.2","5f2eebd9d21e322a9ed68f09","6662009ae78f21dd82fcd179","666215433b8f136c93a4e52f","805","","j","","","","","","","","./tasks/HMM-beads/Images/NewTrialWC.png","lowH","1","2","1","1","1","1","true","",""
"image-keyboard-response","143","364682","0.0-3.0-6.0-1.0-1.2","5f2eebd9d21e322a9ed68f09","6662009ae78f21dd82fcd179","666215433b8f136c93a4e52f","null","","null","","","","","","","","./tasks/HMM-beads/Images/WhiteBeadChoice.png","","","","","","","","","",""
"image-keyboard-response","144","365187","0.0-3.0-6.0-1.0-2.2","5f2eebd9d21e322a9ed68f09","6662009ae78f21dd82fcd179","666215433b8f136c93a4e52f","null","","null","","","","","","","","./tasks/HMM-beads/Images/WhiteBeadChoiceCorrect.png","","","","","","","","","",""
"image-keyboard-response","145","366938","0.0-3.0-6.0-1.0-0.3","5f2eebd9d21e322a9ed68f09","6662009ae78f21dd82fcd179","666215433b8f136c93a4e52f","1749","","f","","","","","","","","./tasks/HMM-beads/Images/NewTrialWC.png","lowH","1","3","1","1","1","0","false","",""
"image-keyboard-response","146","367255","0.0-3.0-6.0-1.0-1.3","5f2eebd9d21e322a9ed68f09","6662009ae78f21dd82fcd179","666215433b8f136c93a4e52f","null","","null","","","","","","","","./tasks/HMM-beads/Images/BlackBeadChoice.png","","","","","","","","","",""
"image-keyboard-response","147","367763","0.0-3.0-6.0-1.0-2.3","5f2eebd9d21e322a9ed68f09","6662009ae78f21dd82fcd179","666215433b8f136c93a4e52f","null","","null","","","","","","","","./tasks/HMM-beads/Images/BlackBeadChoiceWrong.png","","","","","","","","","",""
"image-keyboard-response","148","368073","0.0-3.0-6.0-1.0-0.4","5f2eebd9d21e322a9ed68f09","6662009ae78f21dd82fcd179","666215433b8f136c93a4e52f","309","","j","","","","","","","","./tasks/HMM-beads/Images/NewTrialWC.png","lowH","1","4","1","1","1","1","true","",""
"image-keyboard-response","149","368393","0.0-3.0-6.0-1.0-1.4","5f2eebd9d21e322a9ed68f09","6662009ae78f21dd82fcd179","666215433b8f136c93a4e52f","null","","null","","","","","","","","./tasks/HMM-beads/Images/WhiteBeadChoice.png","","","","","","","","","",""
"image-keyboard-response","150","368899","0.0-3.0-6.0-1.0-2.4","5f2eebd9d21e322a9ed68f09","6662009ae78f21dd82fcd179","666215433b8f136c93a4e52f","null","","null","","","","","","","","./tasks/HMM-beads/Images/WhiteBeadChoiceCorrect.png","","","","","","","","","",""
"image-keyboard-response","151","369435","0.0-3.0-6.0-1.0-0.5","5f2eebd9d21e322a9ed68f09","6662009ae78f21dd82fcd179","666215433b8f136c93a4e52f","535","","f","","","","","","","","./tasks/HMM-beads/Images/NewTrialWC.png","lowH","1","5","1","1","1","0","false","",""
"image-keyboard-response","152","369749","0.0-3.0-6.0-1.0-1.5","5f2eebd9d21e322a9ed68f09","6662009ae78f21dd82fcd179","666215433b8f136c93a4e52f","null","","null","","","","","","","","./tasks/HMM-beads/Images/BlackBeadChoice.png","","","","","","","","","",""
"image-keyboard-response","153","370263","0.0-3.0-6.0-1.0-2.5","5f2eebd9d21e322a9ed68f09","6662009ae78f21dd82fcd179","666215433b8f136c93a4e52f","null","","null","","","","","","","","./tasks/HMM-beads/Images/BlackBeadChoiceWrong.png","","","","","","","","","",""
"image-keyboard-response","154","370901","0.0-3.0-6.0-1.0-0.6","5f2eebd9d21e322a9ed68f09","6662009ae78f21dd82fcd179","666215433b8f136c93a4e52f","638","","j","","","","","","","","./tasks/HMM-beads/Images/NewTrialWC.png","lowH","1","6","1","0","1","1","false","",""
"image-keyboard-response","155","371211","0.0-3.0-6.0-1.0-1.6","5f2eebd9d21e322a9ed68f09","6662009ae78f21dd82fcd179","666215433b8f136c93a4e52f","null","","null","","","","","","","","./tasks/HMM-beads/Images/WhiteBeadChoice.png","","","","","","","","","",""
"image-keyboard-response","156","371726","0.0-3.0-6.0-1.0-2.6","5f2eebd9d21e322a9ed68f09","6662009ae78f21dd82fcd179","666215433b8f136c93a4e52f","null","","null","","","","","","","","./tasks/HMM-beads/Images/WhiteBeadChoiceWrong.png","","","","","","","","","",""
"image-keyboard-response","157","372239","0.0-3.0-6.0-1.0-0.7","5f2eebd9d21e322a9ed68f09","6662009ae78f21dd82fcd179","666215433b8f136c93a4e52f","512","","f","","","","","","","","./tasks/HMM-beads/Images/NewTrialBC.png","lowH","1","7","1","1","0","0","false","",""
"image-keyboard-response","158","372541","0.0-3.0-6.0-1.0-1.7","5f2eebd9d21e322a9ed68f09","6662009ae78f21dd82fcd179","666215433b8f136c93a4e52f","null","","null","","","","","","","","./tasks/HMM-beads/Images/BlackBeadChoice.png","","","","","","","","","",""
"image-keyboard-response","159","373058","0.0-3.0-6.0-1.0-2.7","5f2eebd9d21e322a9ed68f09","6662009ae78f21dd82fcd179","666215433b8f136c93a4e52f","null","","null","","","","","","","","./tasks/HMM-beads/Images/BlackBeadChoiceWrong.png","","","","","","","","","",""
"image-keyboard-response","160","373680","0.0-3.0-6.0-1.0-0.8","5f2eebd9d21e322a9ed68f09","6662009ae78f21dd82fcd179","666215433b8f136c93a4e52f","621","","j","","","","","","","","./tasks/HMM-beads/Images/NewTrialWC.png","lowH","1","8","1","1","1","1","true","",""
"image-keyboard-response","161","373987","0.0-3.0-6.0-1.0-1.8","5f2eebd9d21e322a9ed68f09","6662009ae78f21dd82fcd179","666215433b8f136c93a4e52f","null","","null","","","","","","","","./tasks/HMM-beads/Images/WhiteBeadChoice.png","","","","","","","","","",""
"image-keyboard-response","162","374506","0.0-3.0-6.0-1.0-2.8","5f2eebd9d21e322a9ed68f09","6662009ae78f21dd82fcd179","666215433b8f136c93a4e52f","null","","null","","","","","","","","./tasks/HMM-beads/Images/WhiteBeadChoiceCorrect.png","","","","","","","","","",""
"image-keyboard-response","163","375157","0.0-3.0-6.0-1.0-0.9","5f2eebd9d21e322a9ed68f09","6662009ae78f21dd82fcd179","666215433b8f136c93a4e52f","650","","j","","","","","","","","./tasks/HMM-beads/Images/NewTrialWC.png","lowH","1","9","1","1","1","1","true","",""
"image-keyboard-response","164","375462","0.0-3.0-6.0-1.0-1.9","5f2eebd9d21e322a9ed68f09","6662009ae78f21dd82fcd179","666215433b8f136c93a4e52f","null","","null","","","","","","","","./tasks/HMM-beads/Images/WhiteBeadChoice.png","","","","","","","","","",""
"image-keyboard-response","165","375967","0.0-3.0-6.0-1.0-2.9","5f2eebd9d21e322a9ed68f09","6662009ae78f21dd82fcd179","666215433b8f136c93a4e52f","null","","null","","","","","","","","./tasks/HMM-beads/Images/WhiteBeadChoiceCorrect.png","","","","","","","","","",""
"image-keyboard-response","166","376338","0.0-3.0-6.0-1.0-0.10","5f2eebd9d21e322a9ed68f09","6662009ae78f21dd82fcd179","666215433b8f136c93a4e52f","370","","f","","","","","","","","./tasks/HMM-beads/Images/NewTrialWC.png","lowH","1","10","1","1","1","0","false","",""
"image-keyboard-response","167","376641","0.0-3.0-6.0-1.0-1.10","5f2eebd9d21e322a9ed68f09","6662009ae78f21dd82fcd179","666215433b8f136c93a4e52f","null","","null","","","","","","","","./tasks/HMM-beads/Images/BlackBeadChoice.png","","","","","","","","","",""
"image-keyboard-response","168","377150","0.0-3.0-6.0-1.0-2.10","5f2eebd9d21e322a9ed68f09","6662009ae78f21dd82fcd179","666215433b8f136c93a4e52f","null","","null","","","","","","","","./tasks/HMM-beads/Images/BlackBeadChoiceWrong.png","","","","","","","","","",""
"image-keyboard-response","169","377514","0.0-3.0-6.0-1.0-0.11","5f2eebd9d21e322a9ed68f09","6662009ae78f21dd82fcd179","666215433b8f136c93a4e52f","363","","j","","","","","","","","./tasks/HMM-beads/Images/NewTrialWC.png","lowH","1","11","1","1","1","1","true","",""
"image-keyboard-response","170","377821","0.0-3.0-6.0-1.0-1.11","5f2eebd9d21e322a9ed68f09","6662009ae78f21dd82fcd179","666215433b8f136c93a4e52f","null","","null","","","","","","","","./tasks/HMM-beads/Images/WhiteBeadChoice.png","","","","","","","","","",""
"image-keyboard-response","171","378327","0.0-3.0-6.0-1.0-2.11","5f2eebd9d21e322a9ed68f09","6662009ae78f21dd82fcd179","666215433b8f136c93a4e52f","null","","null","","","","","","","","./tasks/HMM-beads/Images/WhiteBeadChoiceCorrect.png","","","","","","","","","",""
"image-keyboard-response","172","378820","0.0-3.0-6.0-1.0-0.12","5f2eebd9d21e322a9ed68f09","6662009ae78f21dd82fcd179","666215433b8f136c93a4e52f","491","","f","","","","","","","","./tasks/HMM-beads/Images/NewTrialWC.png","lowH","1","12","1","1","1","0","false","",""
"image-keyboard-response","173","379136","0.0-3.0-6.0-1.0-1.12","5f2eebd9d21e322a9ed68f09","6662009ae78f21dd82fcd179","666215433b8f136c93a4e52f","null","","null","","","","","","","","./tasks/HMM-beads/Images/BlackBeadChoice.png","","","","","","","","","",""
"image-keyboard-response","174","379641","0.0-3.0-6.0-1.0-2.12","5f2eebd9d21e322a9ed68f09","6662009ae78f21dd82fcd179","666215433b8f136c93a4e52f","null","","null","","","","","","","","./tasks/HMM-beads/Images/BlackBeadChoiceWrong.png","","","","","","","","","",""
"image-keyboard-response","175","379668","0.0-3.0-6.0-1.0-0.13","5f2eebd9d21e322a9ed68f09","6662009ae78f21dd82fcd179","666215433b8f136c93a4e52f","26","","j","","","","","","","","./tasks/HMM-beads/Images/NewTrialWC.png","lowH","1","13","1","0","1","1","false","",""
"image-keyboard-response","176","379982","0.0-3.0-6.0-1.0-1.13","5f2eebd9d21e322a9ed68f09","6662009ae78f21dd82fcd179","666215433b8f136c93a4e52f","null","","null","","","","","","","","./tasks/HMM-beads/Images/WhiteBeadChoice.png","","","","","","","","","",""
"image-keyboard-response","177","380491","0.0-3.0-6.0-1.0-2.13","5f2eebd9d21e322a9ed68f09","6662009ae78f21dd82fcd179","666215433b8f136c93a4e52f","null","","null","","","","","","","","./tasks/HMM-beads/Images/WhiteBeadChoiceWrong.png","","","","","","","","","",""
"image-keyboard-response","178","380995","0.0-3.0-6.0-1.0-0.14","5f2eebd9d21e322a9ed68f09","6662009ae78f21dd82fcd179","666215433b8f136c93a4e52f","503","","f","","","","","","","","./tasks/HMM-beads/Images/NewTrialBC.png","lowH","1","14","1","0","0","0","true","",""
"image-keyboard-response","179","381311","0.0-3.0-6.0-1.0-1.14","5f2eebd9d21e322a9ed68f09","6662009ae78f21dd82fcd179","666215433b8f136c93a4e52f","null","","null","","","","","","","","./tasks/HMM-beads/Images/BlackBeadChoice.png","","","","","","","","","",""
"image-keyboard-response","180","381828","0.0-3.0-6.0-1.0-2.14","5f2eebd9d21e322a9ed68f09","6662009ae78f21dd82fcd179","666215433b8f136c93a4e52f","null","","null","","","","","","","","./tasks/HMM-beads/Images/BlackBeadChoiceCorrect.png","","","","","","","","","",""
"image-keyboard-response","181","382537","0.0-3.0-6.0-1.0-0.15","5f2eebd9d21e322a9ed68f09","6662009ae78f21dd82fcd179","666215433b8f136c93a4e52f","709","","f","","","","","","","","./tasks/HMM-beads/Images/NewTrialBC.png","lowH","1","15","1","1","0","0","false","",""
"image-keyboard-response","182","382845","0.0-3.0-6.0-1.0-1.15","5f2eebd9d21e322a9ed68f09","6662009ae78f21dd82fcd179","666215433b8f136c93a4e52f","null","","null","","","","","","","","./tasks/HMM-beads/Images/BlackBeadChoice.png","","","","","","","","","",""
"image-keyboard-response","183","383356","0.0-3.0-6.0-1.0-2.15","5f2eebd9d21e322a9ed68f09","6662009ae78f21dd82fcd179","666215433b8f136c93a4e52f","null","","null","","","","","","","","./tasks/HMM-beads/Images/BlackBeadChoiceWrong.png","","","","","","","","","",""
"image-keyboard-response","184","383633","0.0-3.0-6.0-1.0-0.16","5f2eebd9d21e322a9ed68f09","6662009ae78f21dd82fcd179","666215433b8f136c93a4e52f","277","","j","","","","","","","","./tasks/HMM-beads/Images/NewTrialWC.png","lowH","1","16","1","1","1","1","true","",""
"image-keyboard-response","185","383948","0.0-3.0-6.0-1.0-1.16","5f2eebd9d21e322a9ed68f09","6662009ae78f21dd82fcd179","666215433b8f136c93a4e52f","null","","null","","","","","","","","./tasks/HMM-beads/Images/WhiteBeadChoice.png","","","","","","","","","",""
"image-keyboard-response","186","384451","0.0-3.0-6.0-1.0-2.16","5f2eebd9d21e322a9ed68f09","6662009ae78f21dd82fcd179","666215433b8f136c93a4e52f","null","","null","","","","","","","","./tasks/HMM-beads/Images/WhiteBeadChoiceCorrect.png","","","","","","","","","",""
"image-keyboard-response","187","386070","0.0-3.0-6.0-1.0-0.17","5f2eebd9d21e322a9ed68f09","6662009ae78f21dd82fcd179","666215433b8f136c93a4e52f","1617","","j","","","","","","","","./tasks/HMM-beads/Images/NewTrialWC.png","lowH","1","17","1","1","1","1","true","",""
"image-keyboard-response","188","386388","0.0-3.0-6.0-1.0-1.17","5f2eebd9d21e322a9ed68f09","6662009ae78f21dd82fcd179","666215433b8f136c93a4e52f","null","","null","","","","","","","","./tasks/HMM-beads/Images/WhiteBeadChoice.png","","","","","","","","","",""
"image-keyboard-response","189","386894","0.0-3.0-6.0-1.0-2.17","5f2eebd9d21e322a9ed68f09","6662009ae78f21dd82fcd179","666215433b8f136c93a4e52f","null","","null","","","","","","","","./tasks/HMM-beads/Images/WhiteBeadChoiceCorrect.png","","","","","","","","","",""
"image-keyboard-response","190","387768","0.0-3.0-6.0-1.0-0.18","5f2eebd9d21e322a9ed68f09","6662009ae78f21dd82fcd179","666215433b8f136c93a4e52f","873","","j","","","","","","","","./tasks/HMM-beads/Images/NewTrialWC.png","lowH","1","18","1","1","1","1","true","",""
"image-keyboard-response","191","388079","0.0-3.0-6.0-1.0-1.18","5f2eebd9d21e322a9ed68f09","6662009ae78f21dd82fcd179","666215433b8f136c93a4e52f","null","","null","","","","","","","","./tasks/HMM-beads/Images/WhiteBeadChoice.png","","","","","","","","","",""
"image-keyboard-response","192","388582","0.0-3.0-6.0-1.0-2.18","5f2eebd9d21e322a9ed68f09","6662009ae78f21dd82fcd179","666215433b8f136c93a4e52f","null","","null","","","","","","","","./tasks/HMM-beads/Images/WhiteBeadChoiceCorrect.png","","","","","","","","","",""
"image-keyboard-response","193","388768","0.0-3.0-6.0-1.0-0.19","5f2eebd9d21e322a9ed68f09","6662009ae78f21dd82fcd179","666215433b8f136c93a4e52f","185","","f","","","","","","","","./tasks/HMM-beads/Images/NewTrialWC.png","lowH","1","19","1","1","1","0","false","",""
"image-keyboard-response","194","389071","0.0-3.0-6.0-1.0-1.19","5f2eebd9d21e322a9ed68f09","6662009ae78f21dd82fcd179","666215433b8f136c93a4e52f","null","","null","","","","","","","","./tasks/HMM-beads/Images/BlackBeadChoice.png","","","","","","","","","",""
"image-keyboard-response","195","389583","0.0-3.0-6.0-1.0-2.19","5f2eebd9d21e322a9ed68f09","6662009ae78f21dd82fcd179","666215433b8f136c93a4e52f","null","","null","","","","","","","","./tasks/HMM-beads/Images/BlackBeadChoiceWrong.png","","","","","","","","","",""
"image-keyboard-response","196","390508","0.0-3.0-6.0-1.0-0.20","5f2eebd9d21e322a9ed68f09","6662009ae78f21dd82fcd179","666215433b8f136c93a4e52f","923","","j","","","","","","","","./tasks/HMM-beads/Images/NewTrialWC.png","lowH","1","20","1","1","1","1","true","",""
"image-keyboard-response","197","390813","0.0-3.0-6.0-1.0-1.20","5f2eebd9d21e322a9ed68f09","6662009ae78f21dd82fcd179","666215433b8f136c93a4e52f","null","","null","","","","","","","","./tasks/HMM-beads/Images/WhiteBeadChoice.png","","","","","","","","","",""
"image-keyboard-response","198","391320","0.0-3.0-6.0-1.0-2.20","5f2eebd9d21e322a9ed68f09","6662009ae78f21dd82fcd179","666215433b8f136c93a4e52f","null","","null","","","","","","","","./tasks/HMM-beads/Images/WhiteBeadChoiceCorrect.png","","","","","","","","","",""
"image-keyboard-response","199","392196","0.0-3.0-6.0-1.0-0.21","5f2eebd9d21e322a9ed68f09","6662009ae78f21dd82fcd179","666215433b8f136c93a4e52f","875","","j","","","","","","","","./tasks/HMM-beads/Images/NewTrialWC.png","lowH","1","21","1","1","1","1","true","",""
"image-keyboard-response","200","392500","0.0-3.0-6.0-1.0-1.21","5f2eebd9d21e322a9ed68f09","6662009ae78f21dd82fcd179","666215433b8f136c93a4e52f","null","","null","","","","","","","","./tasks/HMM-beads/Images/WhiteBeadChoice.png","","","","","","","","","",""
"image-keyboard-response","201","393021","0.0-3.0-6.0-1.0-2.21","5f2eebd9d21e322a9ed68f09","6662009ae78f21dd82fcd179","666215433b8f136c93a4e52f","null","","null","","","","","","","","./tasks/HMM-beads/Images/WhiteBeadChoiceCorrect.png","","","","","","","","","",""
"image-keyboard-response","202","394195","0.0-3.0-6.0-1.0-0.22","5f2eebd9d21e322a9ed68f09","6662009ae78f21dd82fcd179","666215433b8f136c93a4e52f","1173","","f","","","","","","","","./tasks/HMM-beads/Images/NewTrialWC.png","lowH","1","22","1","1","1","0","false","",""
"image-keyboard-response","203","394506","0.0-3.0-6.0-1.0-1.22","5f2eebd9d21e322a9ed68f09","6662009ae78f21dd82fcd179","666215433b8f136c93a4e52f","null","","null","","","","","","","","./tasks/HMM-beads/Images/BlackBeadChoice.png","","","","","","","","","",""
"image-keyboard-response","204","395022","0.0-3.0-6.0-1.0-2.22","5f2eebd9d21e322a9ed68f09","6662009ae78f21dd82fcd179","666215433b8f136c93a4e52f","null","","null","","","","","","","","./tasks/HMM-beads/Images/BlackBeadChoiceWrong.png","","","","","","","","","",""
"image-keyboard-response","205","395783","0.0-3.0-6.0-1.0-0.23","5f2eebd9d21e322a9ed68f09","6662009ae78f21dd82fcd179","666215433b8f136c93a4e52f","760","","j","","","","","","","","./tasks/HMM-beads/Images/NewTrialWC.png","lowH","1","23","1","1","1","1","true","",""
"image-keyboard-response","206","396091","0.0-3.0-6.0-1.0-1.23","5f2eebd9d21e322a9ed68f09","6662009ae78f21dd82fcd179","666215433b8f136c93a4e52f","null","","null","","","","","","","","./tasks/HMM-beads/Images/WhiteBeadChoice.png","","","","","","","","","",""
"image-keyboard-response","207","396596","0.0-3.0-6.0-1.0-2.23","5f2eebd9d21e322a9ed68f09","6662009ae78f21dd82fcd179","666215433b8f136c93a4e52f","null","","null","","","","","","","","./tasks/HMM-beads/Images/WhiteBeadChoiceCorrect.png","","","","","","","","","",""
"image-keyboard-response","208","398064","0.0-3.0-6.0-1.0-0.24","5f2eebd9d21e322a9ed68f09","6662009ae78f21dd82fcd179","666215433b8f136c93a4e52f","1467","","j","","","","","","","","./tasks/HMM-beads/Images/NewTrialWC.png","lowH","1","24","1","0","1","1","false","",""
"image-keyboard-response","209","398368","0.0-3.0-6.0-1.0-1.24","5f2eebd9d21e322a9ed68f09","6662009ae78f21dd82fcd179","666215433b8f136c93a4e52f","null","","null","","","","","","","","./tasks/HMM-beads/Images/WhiteBeadChoice.png","","","","","","","","","",""
"image-keyboard-response","210","398874","0.0-3.0-6.0-1.0-2.24","5f2eebd9d21e322a9ed68f09","6662009ae78f21dd82fcd179","666215433b8f136c93a4e52f","null","","null","","","","","","","","./tasks/HMM-beads/Images/WhiteBeadChoiceWrong.png","","","","","","","","","",""
"image-keyboard-response","211","399522","0.0-3.0-6.0-1.0-0.25","5f2eebd9d21e322a9ed68f09","6662009ae78f21dd82fcd179","666215433b8f136c93a4e52f","647","","f","","","","","","","","./tasks/HMM-beads/Images/NewTrialBC.png","lowH","1","25","1","1","0","0","false","",""
"image-keyboard-response","212","399826","0.0-3.0-6.0-1.0-1.25","5f2eebd9d21e322a9ed68f09","6662009ae78f21dd82fcd179","666215433b8f136c93a4e52f","null","","null","","","","","","","","./tasks/HMM-beads/Images/BlackBeadChoice.png","","","","","","","","","",""
"image-keyboard-response","213","400337","0.0-3.0-6.0-1.0-2.25","5f2eebd9d21e322a9ed68f09","6662009ae78f21dd82fcd179","666215433b8f136c93a4e52f","null","","null","","","","","","","","./tasks/HMM-beads/Images/BlackBeadChoiceWrong.png","","","","","","","","","",""
"image-keyboard-response","214","401134","0.0-3.0-6.0-1.0-0.26","5f2eebd9d21e322a9ed68f09","6662009ae78f21dd82fcd179","666215433b8f136c93a4e52f","796","","j","","","","","","","","./tasks/HMM-beads/Images/NewTrialWC.png","lowH","1","26","1","0","1","1","false","",""
"image-keyboard-response","215","401445","0.0-3.0-6.0-1.0-1.26","5f2eebd9d21e322a9ed68f09","6662009ae78f21dd82fcd179","666215433b8f136c93a4e52f","null","","null","","","","","","","","./tasks/HMM-beads/Images/WhiteBeadChoice.png","","","","","","","","","",""
"image-keyboard-response","216","401949","0.0-3.0-6.0-1.0-2.26","5f2eebd9d21e322a9ed68f09","6662009ae78f21dd82fcd179","666215433b8f136c93a4e52f","null","","null","","","","","","","","./tasks/HMM-beads/Images/WhiteBeadChoiceWrong.png","","","","","","","","","",""
"image-keyboard-response","217","402350","0.0-3.0-6.0-1.0-0.27","5f2eebd9d21e322a9ed68f09","6662009ae78f21dd82fcd179","666215433b8f136c93a4e52f","399","","f","","","","","","","","./tasks/HMM-beads/Images/NewTrialBC.png","lowH","1","27","1","1","0","0","false","",""
"image-keyboard-response","218","402658","0.0-3.0-6.0-1.0-1.27","5f2eebd9d21e322a9ed68f09","6662009ae78f21dd82fcd179","666215433b8f136c93a4e52f","null","","null","","","","","","","","./tasks/HMM-beads/Images/BlackBeadChoice.png","","","","","","","","","",""
"image-keyboard-response","219","403163","0.0-3.0-6.0-1.0-2.27","5f2eebd9d21e322a9ed68f09","6662009ae78f21dd82fcd179","666215433b8f136c93a4e52f","null","","null","","","","","","","","./tasks/HMM-beads/Images/BlackBeadChoiceWrong.png","","","","","","","","","",""
"image-keyboard-response","220","403735","0.0-3.0-6.0-1.0-0.28","5f2eebd9d21e322a9ed68f09","6662009ae78f21dd82fcd179","666215433b8f136c93a4e52f","570","","j","","","","","","","","./tasks/HMM-beads/Images/NewTrialWC.png","lowH","1","28","1","1","1","1","true","",""
"image-keyboard-response","221","404040","0.0-3.0-6.0-1.0-1.28","5f2eebd9d21e322a9ed68f09","6662009ae78f21dd82fcd179","666215433b8f136c93a4e52f","null","","null","","","","","","","","./tasks/HMM-beads/Images/WhiteBeadChoice.png","","","","","","","","","",""
"image-keyboard-response","222","404557","0.0-3.0-6.0-1.0-2.28","5f2eebd9d21e322a9ed68f09","6662009ae78f21dd82fcd179","666215433b8f136c93a4e52f","null","","null","","","","","","","","./tasks/HMM-beads/Images/WhiteBeadChoiceCorrect.png","","","","","","","","","",""
"image-keyboard-response","223","405194","0.0-3.0-6.0-1.0-0.29","5f2eebd9d21e322a9ed68f09","6662009ae78f21dd82fcd179","666215433b8f136c93a4e52f","635","","j","","","","","","","","./tasks/HMM-beads/Images/NewTrialWC.png","lowH","1","29","1","1","1","1","true","",""
"image-keyboard-response","224","405510","0.0-3.0-6.0-1.0-1.29","5f2eebd9d21e322a9ed68f09","6662009ae78f21dd82fcd179","666215433b8f136c93a4e52f","null","","null","","","","","","","","./tasks/HMM-beads/Images/WhiteBeadChoice.png","","","","","","","","","",""
"image-keyboard-response","225","406030","0.0-3.0-6.0-1.0-2.29","5f2eebd9d21e322a9ed68f09","6662009ae78f21dd82fcd179","666215433b8f136c93a4e52f","null","","null","","","","","","","","./tasks/HMM-beads/Images/WhiteBeadChoiceCorrect.png","","","","","","","","","",""
"image-keyboard-response","226","407264","0.0-3.0-6.0-1.0-0.30","5f2eebd9d21e322a9ed68f09","6662009ae78f21dd82fcd179","666215433b8f136c93a4e52f","1233","","j","","","","","","","","./tasks/HMM-beads/Images/NewTrialWC.png","lowH","1","30","1","1","1","1","true","",""
"image-keyboard-response","227","407581","0.0-3.0-6.0-1.0-1.30","5f2eebd9d21e322a9ed68f09","6662009ae78f21dd82fcd179","666215433b8f136c93a4e52f","null","","null","","","","","","","","./tasks/HMM-beads/Images/WhiteBeadChoice.png","","","","","","","","","",""
"image-keyboard-response","228","408095","0.0-3.0-6.0-1.0-2.30","5f2eebd9d21e322a9ed68f09","6662009ae78f21dd82fcd179","666215433b8f136c93a4e52f","null","","null","","","","","","","","./tasks/HMM-beads/Images/WhiteBeadChoiceCorrect.png","","","","","","","","","",""
"image-keyboard-response","229","409163","0.0-3.0-6.0-1.0-0.31","5f2eebd9d21e322a9ed68f09","6662009ae78f21dd82fcd179","666215433b8f136c93a4e52f","1067","","j","","","","","","","","./tasks/HMM-beads/Images/NewTrialWC.png","lowH","1","31","1","1","1","1","true","",""
"image-keyboard-response","230","409478","0.0-3.0-6.0-1.0-1.31","5f2eebd9d21e322a9ed68f09","6662009ae78f21dd82fcd179","666215433b8f136c93a4e52f","null","","null","","","","","","","","./tasks/HMM-beads/Images/WhiteBeadChoice.png","","","","","","","","","",""
"image-keyboard-response","231","409984","0.0-3.0-6.0-1.0-2.31","5f2eebd9d21e322a9ed68f09","6662009ae78f21dd82fcd179","666215433b8f136c93a4e52f","null","","null","","","","","","","","./tasks/HMM-beads/Images/WhiteBeadChoiceCorrect.png","","","","","","","","","",""
"image-keyboard-response","232","410429","0.0-3.0-6.0-1.0-0.32","5f2eebd9d21e322a9ed68f09","6662009ae78f21dd82fcd179","666215433b8f136c93a4e52f","444","","f","","","","","","","","./tasks/HMM-beads/Images/NewTrialWC.png","lowH","1","32","1","1","1","0","false","",""
"image-keyboard-response","233","410732","0.0-3.0-6.0-1.0-1.32","5f2eebd9d21e322a9ed68f09","6662009ae78f21dd82fcd179","666215433b8f136c93a4e52f","null","","null","","","","","","","","./tasks/HMM-beads/Images/BlackBeadChoice.png","","","","","","","","","",""
"image-keyboard-response","234","411243","0.0-3.0-6.0-1.0-2.32","5f2eebd9d21e322a9ed68f09","6662009ae78f21dd82fcd179","666215433b8f136c93a4e52f","null","","null","","","","","","","","./tasks/HMM-beads/Images/BlackBeadChoiceWrong.png","","","","","","","","","",""
"image-keyboard-response","235","412002","0.0-3.0-6.0-1.0-0.33","5f2eebd9d21e322a9ed68f09","6662009ae78f21dd82fcd179","666215433b8f136c93a4e52f","757","","j","","","","","","","","./tasks/HMM-beads/Images/NewTrialWC.png","lowH","1","33","1","1","1","1","true","",""
"image-keyboard-response","236","412310","0.0-3.0-6.0-1.0-1.33","5f2eebd9d21e322a9ed68f09","6662009ae78f21dd82fcd179","666215433b8f136c93a4e52f","null","","null","","","","","","","","./tasks/HMM-beads/Images/WhiteBeadChoice.png","","","","","","","","","",""
"image-keyboard-response","237","412813","0.0-3.0-6.0-1.0-2.33","5f2eebd9d21e322a9ed68f09","6662009ae78f21dd82fcd179","666215433b8f136c93a4e52f","null","","null","","","","","","","","./tasks/HMM-beads/Images/WhiteBeadChoiceCorrect.png","","","","","","","","","",""
"image-keyboard-response","238","413896","0.0-3.0-6.0-1.0-0.34","5f2eebd9d21e322a9ed68f09","6662009ae78f21dd82fcd179","666215433b8f136c93a4e52f","1081","","j","","","","","","","","./tasks/HMM-beads/Images/NewTrialWC.png","lowH","1","34","1","1","1","1","true","",""
"image-keyboard-response","239","414204","0.0-3.0-6.0-1.0-1.34","5f2eebd9d21e322a9ed68f09","6662009ae78f21dd82fcd179","666215433b8f136c93a4e52f","null","","null","","","","","","","","./tasks/HMM-beads/Images/WhiteBeadChoice.png","","","","","","","","","",""
"image-keyboard-response","240","414721","0.0-3.0-6.0-1.0-2.34","5f2eebd9d21e322a9ed68f09","6662009ae78f21dd82fcd179","666215433b8f136c93a4e52f","null","","null","","","","","","","","./tasks/HMM-beads/Images/WhiteBeadChoiceCorrect.png","","","","","","","","","",""
"image-keyboard-response","241","415623","0.0-3.0-6.0-1.0-0.35","5f2eebd9d21e322a9ed68f09","6662009ae78f21dd82fcd179","666215433b8f136c93a4e52f","901","","j","","","","","","","","./tasks/HMM-beads/Images/NewTrialWC.png","lowH","1","35","1","1","1","1","true","",""
"image-keyboard-response","242","415924","0.0-3.0-6.0-1.0-1.35","5f2eebd9d21e322a9ed68f09","6662009ae78f21dd82fcd179","666215433b8f136c93a4e52f","null","","null","","","","","","","","./tasks/HMM-beads/Images/WhiteBeadChoice.png","","","","","","","","","",""
"image-keyboard-response","243","416434","0.0-3.0-6.0-1.0-2.35","5f2eebd9d21e322a9ed68f09","6662009ae78f21dd82fcd179","666215433b8f136c93a4e52f","null","","null","","","","","","","","./tasks/HMM-beads/Images/WhiteBeadChoiceCorrect.png","","","","","","","","","",""
"image-keyboard-response","244","417067","0.0-3.0-6.0-1.0-0.36","5f2eebd9d21e322a9ed68f09","6662009ae78f21dd82fcd179","666215433b8f136c93a4e52f","631","","j","","","","","","","","./tasks/HMM-beads/Images/NewTrialWC.png","lowH","1","36","1","1","1","1","true","",""
"image-keyboard-response","245","417375","0.0-3.0-6.0-1.0-1.36","5f2eebd9d21e322a9ed68f09","6662009ae78f21dd82fcd179","666215433b8f136c93a4e52f","null","","null","","","","","","","","./tasks/HMM-beads/Images/WhiteBeadChoice.png","","","","","","","","","",""
"image-keyboard-response","246","417884","0.0-3.0-6.0-1.0-2.36","5f2eebd9d21e322a9ed68f09","6662009ae78f21dd82fcd179","666215433b8f136c93a4e52f","null","","null","","","","","","","","./tasks/HMM-beads/Images/WhiteBeadChoiceCorrect.png","","","","","","","","","",""
"image-keyboard-response","247","419052","0.0-3.0-6.0-1.0-0.37","5f2eebd9d21e322a9ed68f09","6662009ae78f21dd82fcd179","666215433b8f136c93a4e52f","1166","","j","","","","","","","","./tasks/HMM-beads/Images/NewTrialWC.png","lowH","1","37","1","1","1","1","true","",""
"image-keyboard-response","248","419360","0.0-3.0-6.0-1.0-1.37","5f2eebd9d21e322a9ed68f09","6662009ae78f21dd82fcd179","666215433b8f136c93a4e52f","null","","null","","","","","","","","./tasks/HMM-beads/Images/WhiteBeadChoice.png","","","","","","","","","",""
"image-keyboard-response","249","419870","0.0-3.0-6.0-1.0-2.37","5f2eebd9d21e322a9ed68f09","6662009ae78f21dd82fcd179","666215433b8f136c93a4e52f","null","","null","","","","","","","","./tasks/HMM-beads/Images/WhiteBeadChoiceCorrect.png","","","","","","","","","",""
"image-keyboard-response","250","420775","0.0-3.0-6.0-1.0-0.38","5f2eebd9d21e322a9ed68f09","6662009ae78f21dd82fcd179","666215433b8f136c93a4e52f","904","","j","","","","","","","","./tasks/HMM-beads/Images/NewTrialWC.png","lowH","1","38","1","1","1","1","true","",""
"image-keyboard-response","251","421083","0.0-3.0-6.0-1.0-1.38","5f2eebd9d21e322a9ed68f09","6662009ae78f21dd82fcd179","666215433b8f136c93a4e52f","null","","null","","","","","","","","./tasks/HMM-beads/Images/WhiteBeadChoice.png","","","","","","","","","",""
"image-keyboard-response","252","421588","0.0-3.0-6.0-1.0-2.38","5f2eebd9d21e322a9ed68f09","6662009ae78f21dd82fcd179","666215433b8f136c93a4e52f","null","","null","","","","","","","","./tasks/HMM-beads/Images/WhiteBeadChoiceCorrect.png","","","","","","","","","",""
"image-keyboard-response","253","421955","0.0-3.0-6.0-1.0-0.39","5f2eebd9d21e322a9ed68f09","6662009ae78f21dd82fcd179","666215433b8f136c93a4e52f","366","","f","","","","","","","","./tasks/HMM-beads/Images/NewTrialWC.png","lowH","1","39","1","1","1","0","false","",""
"image-keyboard-response","254","422271","0.0-3.0-6.0-1.0-1.39","5f2eebd9d21e322a9ed68f09","6662009ae78f21dd82fcd179","666215433b8f136c93a4e52f","null","","null","","","","","","","","./tasks/HMM-beads/Images/BlackBeadChoice.png","","","","","","","","","",""
"image-keyboard-response","255","422776","0.0-3.0-6.0-1.0-2.39","5f2eebd9d21e322a9ed68f09","6662009ae78f21dd82fcd179","666215433b8f136c93a4e52f","null","","null","","","","","","","","./tasks/HMM-beads/Images/BlackBeadChoiceWrong.png","","","","","","","","","",""
"image-keyboard-response","256","423775","0.0-3.0-6.0-1.0-0.40","5f2eebd9d21e322a9ed68f09","6662009ae78f21dd82fcd179","666215433b8f136c93a4e52f","998","","f","","","","","","","","./tasks/HMM-beads/Images/NewTrialWC.png","lowH","1","40","1","1","1","0","false","",""
"image-keyboard-response","257","424083","0.0-3.0-6.0-1.0-1.40","5f2eebd9d21e322a9ed68f09","6662009ae78f21dd82fcd179","666215433b8f136c93a4e52f","null","","null","","","","","","","","./tasks/HMM-beads/Images/BlackBeadChoice.png","","","","","","","","","",""
"image-keyboard-response","258","424599","0.0-3.0-6.0-1.0-2.40","5f2eebd9d21e322a9ed68f09","6662009ae78f21dd82fcd179","666215433b8f136c93a4e52f","null","","null","","","","","","","","./tasks/HMM-beads/Images/BlackBeadChoiceWrong.png","","","","","","","","","",""
"image-keyboard-response","259","425111","0.0-3.0-6.0-1.0-0.41","5f2eebd9d21e322a9ed68f09","6662009ae78f21dd82fcd179","666215433b8f136c93a4e52f","511","","j","","","","","","","","./tasks/HMM-beads/Images/NewTrialWC.png","lowH","1","41","1","1","1","1","true","",""
"image-keyboard-response","260","425422","0.0-3.0-6.0-1.0-1.41","5f2eebd9d21e322a9ed68f09","6662009ae78f21dd82fcd179","666215433b8f136c93a4e52f","null","","null","","","","","","","","./tasks/HMM-beads/Images/WhiteBeadChoice.png","","","","","","","","","",""
"image-keyboard-response","261","425937","0.0-3.0-6.0-1.0-2.41","5f2eebd9d21e322a9ed68f09","6662009ae78f21dd82fcd179","666215433b8f136c93a4e52f","null","","null","","","","","","","","./tasks/HMM-beads/Images/WhiteBeadChoiceCorrect.png","","","","","","","","","",""
"image-keyboard-response","262","426955","0.0-3.0-6.0-1.0-0.42","5f2eebd9d21e322a9ed68f09","6662009ae78f21dd82fcd179","666215433b8f136c93a4e52f","1017","","j","","","","","","","","./tasks/HMM-beads/Images/NewTrialWC.png","lowH","1","42","1","1","1","1","true","",""
"image-keyboard-response","263","427264","0.0-3.0-6.0-1.0-1.42","5f2eebd9d21e322a9ed68f09","6662009ae78f21dd82fcd179","666215433b8f136c93a4e52f","null","","null","","","","","","","","./tasks/HMM-beads/Images/WhiteBeadChoice.png","","","","","","","","","",""
"image-keyboard-response","264","427776","0.0-3.0-6.0-1.0-2.42","5f2eebd9d21e322a9ed68f09","6662009ae78f21dd82fcd179","666215433b8f136c93a4e52f","null","","null","","","","","","","","./tasks/HMM-beads/Images/WhiteBeadChoiceCorrect.png","","","","","","","","","",""
"image-keyboard-response","265","428417","0.0-3.0-6.0-1.0-0.43","5f2eebd9d21e322a9ed68f09","6662009ae78f21dd82fcd179","666215433b8f136c93a4e52f","640","","j","","","","","","","","./tasks/HMM-beads/Images/NewTrialWC.png","lowH","1","43","1","1","1","1","true","",""
"image-keyboard-response","266","428728","0.0-3.0-6.0-1.0-1.43","5f2eebd9d21e322a9ed68f09","6662009ae78f21dd82fcd179","666215433b8f136c93a4e52f","null","","null","","","","","","","","./tasks/HMM-beads/Images/WhiteBeadChoice.png","","","","","","","","","",""
"image-keyboard-response","267","429235","0.0-3.0-6.0-1.0-2.43","5f2eebd9d21e322a9ed68f09","6662009ae78f21dd82fcd179","666215433b8f136c93a4e52f","null","","null","","","","","","","","./tasks/HMM-beads/Images/WhiteBeadChoiceCorrect.png","","","","","","","","","",""
"image-keyboard-response","268","429779","0.0-3.0-6.0-1.0-0.44","5f2eebd9d21e322a9ed68f09","6662009ae78f21dd82fcd179","666215433b8f136c93a4e52f","542","","f","","","","","","","","./tasks/HMM-beads/Images/NewTrialWC.png","lowH","1","44","1","1","1","0","false","",""
"image-keyboard-response","269","430095","0.0-3.0-6.0-1.0-1.44","5f2eebd9d21e322a9ed68f09","6662009ae78f21dd82fcd179","666215433b8f136c93a4e52f","null","","null","","","","","","","","./tasks/HMM-beads/Images/BlackBeadChoice.png","","","","","","","","","",""
"image-keyboard-response","270","430599","0.0-3.0-6.0-1.0-2.44","5f2eebd9d21e322a9ed68f09","6662009ae78f21dd82fcd179","666215433b8f136c93a4e52f","null","","null","","","","","","","","./tasks/HMM-beads/Images/BlackBeadChoiceWrong.png","","","","","","","","","",""
"image-keyboard-response","271","431471","0.0-3.0-6.0-1.0-0.45","5f2eebd9d21e322a9ed68f09","6662009ae78f21dd82fcd179","666215433b8f136c93a4e52f","871","","j","","","","","","","","./tasks/HMM-beads/Images/NewTrialWC.png","lowH","1","45","1","1","1","1","true","",""
"image-keyboard-response","272","431783","0.0-3.0-6.0-1.0-1.45","5f2eebd9d21e322a9ed68f09","6662009ae78f21dd82fcd179","666215433b8f136c93a4e52f","null","","null","","","","","","","","./tasks/HMM-beads/Images/WhiteBeadChoice.png","","","","","","","","","",""
"image-keyboard-response","273","432307","0.0-3.0-6.0-1.0-2.45","5f2eebd9d21e322a9ed68f09","6662009ae78f21dd82fcd179","666215433b8f136c93a4e52f","null","","null","","","","","","","","./tasks/HMM-beads/Images/WhiteBeadChoiceCorrect.png","","","","","","","","","",""
"image-keyboard-response","274","432858","0.0-3.0-6.0-1.0-0.46","5f2eebd9d21e322a9ed68f09","6662009ae78f21dd82fcd179","666215433b8f136c93a4e52f","550","","j","","","","","","","","./tasks/HMM-beads/Images/NewTrialWC.png","lowH","1","46","1","1","1","1","true","",""
"image-keyboard-response","275","433164","0.0-3.0-6.0-1.0-1.46","5f2eebd9d21e322a9ed68f09","6662009ae78f21dd82fcd179","666215433b8f136c93a4e52f","null","","null","","","","","","","","./tasks/HMM-beads/Images/WhiteBeadChoice.png","","","","","","","","","",""
"image-keyboard-response","276","433679","0.0-3.0-6.0-1.0-2.46","5f2eebd9d21e322a9ed68f09","6662009ae78f21dd82fcd179","666215433b8f136c93a4e52f","null","","null","","","","","","","","./tasks/HMM-beads/Images/WhiteBeadChoiceCorrect.png","","","","","","","","","",""
"image-keyboard-response","277","434692","0.0-3.0-6.0-1.0-0.47","5f2eebd9d21e322a9ed68f09","6662009ae78f21dd82fcd179","666215433b8f136c93a4e52f","1012","","j","","","","","","","","./tasks/HMM-beads/Images/NewTrialWC.png","lowH","1","47","1","0","1","1","false","",""
"image-keyboard-response","278","434997","0.0-3.0-6.0-1.0-1.47","5f2eebd9d21e322a9ed68f09","6662009ae78f21dd82fcd179","666215433b8f136c93a4e52f","null","","null","","","","","","","","./tasks/HMM-beads/Images/WhiteBeadChoice.png","","","","","","","","","",""
"image-keyboard-response","279","435509","0.0-3.0-6.0-1.0-2.47","5f2eebd9d21e322a9ed68f09","6662009ae78f21dd82fcd179","666215433b8f136c93a4e52f","null","","null","","","","","","","","./tasks/HMM-beads/Images/WhiteBeadChoiceWrong.png","","","","","","","","","",""
"image-keyboard-response","280","436601","0.0-3.0-6.0-1.0-0.48","5f2eebd9d21e322a9ed68f09","6662009ae78f21dd82fcd179","666215433b8f136c93a4e52f","1090","","f","","","","","","","","./tasks/HMM-beads/Images/NewTrialBC.png","lowH","1","48","1","0","0","0","true","",""
"image-keyboard-response","281","436909","0.0-3.0-6.0-1.0-1.48","5f2eebd9d21e322a9ed68f09","6662009ae78f21dd82fcd179","666215433b8f136c93a4e52f","null","","null","","","","","","","","./tasks/HMM-beads/Images/BlackBeadChoice.png","","","","","","","","","",""
"image-keyboard-response","282","437410","0.0-3.0-6.0-1.0-2.48","5f2eebd9d21e322a9ed68f09","6662009ae78f21dd82fcd179","666215433b8f136c93a4e52f","null","","null","","","","","","","","./tasks/HMM-beads/Images/BlackBeadChoiceCorrect.png","","","","","","","","","",""
"image-keyboard-response","283","438426","0.0-3.0-6.0-1.0-0.49","5f2eebd9d21e322a9ed68f09","6662009ae78f21dd82fcd179","666215433b8f136c93a4e52f","1014","","f","","","","","","","","./tasks/HMM-beads/Images/NewTrialBC.png","lowH","1","49","1","0","0","0","true","",""
"image-keyboard-response","284","438741","0.0-3.0-6.0-1.0-1.49","5f2eebd9d21e322a9ed68f09","6662009ae78f21dd82fcd179","666215433b8f136c93a4e52f","null","","null","","","","","","","","./tasks/HMM-beads/Images/BlackBeadChoice.png","","","","","","","","","",""
"image-keyboard-response","285","439251","0.0-3.0-6.0-1.0-2.49","5f2eebd9d21e322a9ed68f09","6662009ae78f21dd82fcd179","666215433b8f136c93a4e52f","null","","null","","","","","","","","./tasks/HMM-beads/Images/BlackBeadChoiceCorrect.png","","","","","","","","","",""
"image-keyboard-response","286","439993","0.0-3.0-6.0-1.0-0.50","5f2eebd9d21e322a9ed68f09","6662009ae78f21dd82fcd179","666215433b8f136c93a4e52f","740","","f","","","","","","","","./tasks/HMM-beads/Images/NewTrialBC.png","lowH","1","50","1","1","0","0","false","",""
"image-keyboard-response","287","440311","0.0-3.0-6.0-1.0-1.50","5f2eebd9d21e322a9ed68f09","6662009ae78f21dd82fcd179","666215433b8f136c93a4e52f","null","","null","","","","","","","","./tasks/HMM-beads/Images/BlackBeadChoice.png","","","","","","","","","",""
"image-keyboard-response","288","440813","0.0-3.0-6.0-1.0-2.50","5f2eebd9d21e322a9ed68f09","6662009ae78f21dd82fcd179","666215433b8f136c93a4e52f","null","","null","","","","","","","","./tasks/HMM-beads/Images/BlackBeadChoiceWrong.png","","","","","","","","","",""
"image-keyboard-response","289","441214","0.0-3.0-6.0-1.0-0.51","5f2eebd9d21e322a9ed68f09","6662009ae78f21dd82fcd179","666215433b8f136c93a4e52f","400","","j","","","","","","","","./tasks/HMM-beads/Images/NewTrialWC.png","lowH","1","51","1","1","1","1","true","",""
"image-keyboard-response","290","441519","0.0-3.0-6.0-1.0-1.51","5f2eebd9d21e322a9ed68f09","6662009ae78f21dd82fcd179","666215433b8f136c93a4e52f","null","","null","","","","","","","","./tasks/HMM-beads/Images/WhiteBeadChoice.png","","","","","","","","","",""
"image-keyboard-response","291","442025","0.0-3.0-6.0-1.0-2.51","5f2eebd9d21e322a9ed68f09","6662009ae78f21dd82fcd179","666215433b8f136c93a4e52f","null","","null","","","","","","","","./tasks/HMM-beads/Images/WhiteBeadChoiceCorrect.png","","","","","","","","","",""
"image-keyboard-response","292","442571","0.0-3.0-6.0-1.0-0.52","5f2eebd9d21e322a9ed68f09","6662009ae78f21dd82fcd179","666215433b8f136c93a4e52f","545","","j","","","","","","","","./tasks/HMM-beads/Images/NewTrialWC.png","lowH","1","52","1","1","1","1","true","",""
"image-keyboard-response","293","442875","0.0-3.0-6.0-1.0-1.52","5f2eebd9d21e322a9ed68f09","6662009ae78f21dd82fcd179","666215433b8f136c93a4e52f","null","","null","","","","","","","","./tasks/HMM-beads/Images/WhiteBeadChoice.png","","","","","","","","","",""
"image-keyboard-response","294","443392","0.0-3.0-6.0-1.0-2.52","5f2eebd9d21e322a9ed68f09","6662009ae78f21dd82fcd179","666215433b8f136c93a4e52f","null","","null","","","","","","","","./tasks/HMM-beads/Images/WhiteBeadChoiceCorrect.png","","","","","","","","","",""
"image-keyboard-response","295","444353","0.0-3.0-6.0-1.0-0.53","5f2eebd9d21e322a9ed68f09","6662009ae78f21dd82fcd179","666215433b8f136c93a4e52f","961","","j","","","","","","","","./tasks/HMM-beads/Images/NewTrialWC.png","lowH","1","53","1","1","1","1","true","",""
"image-keyboard-response","296","444656","0.0-3.0-6.0-1.0-1.53","5f2eebd9d21e322a9ed68f09","6662009ae78f21dd82fcd179","666215433b8f136c93a4e52f","null","","null","","","","","","","","./tasks/HMM-beads/Images/WhiteBeadChoice.png","","","","","","","","","",""
"image-keyboard-response","297","445160","0.0-3.0-6.0-1.0-2.53","5f2eebd9d21e322a9ed68f09","6662009ae78f21dd82fcd179","666215433b8f136c93a4e52f","null","","null","","","","","","","","./tasks/HMM-beads/Images/WhiteBeadChoiceCorrect.png","","","","","","","","","",""
"image-keyboard-response","298","445871","0.0-3.0-6.0-1.0-0.54","5f2eebd9d21e322a9ed68f09","6662009ae78f21dd82fcd179","666215433b8f136c93a4e52f","710","","j","","","","","","","","./tasks/HMM-beads/Images/NewTrialWC.png","lowH","1","54","1","1","1","1","true","",""
"image-keyboard-response","299","446188","0.0-3.0-6.0-1.0-1.54","5f2eebd9d21e322a9ed68f09","6662009ae78f21dd82fcd179","666215433b8f136c93a4e52f","null","","null","","","","","","","","./tasks/HMM-beads/Images/WhiteBeadChoice.png","","","","","","","","","",""
"image-keyboard-response","300","446694","0.0-3.0-6.0-1.0-2.54","5f2eebd9d21e322a9ed68f09","6662009ae78f21dd82fcd179","666215433b8f136c93a4e52f","null","","null","","","","","","","","./tasks/HMM-beads/Images/WhiteBeadChoiceCorrect.png","","","","","","","","","",""
"image-keyboard-response","301","447007","0.0-3.0-6.0-1.0-0.55","5f2eebd9d21e322a9ed68f09","6662009ae78f21dd82fcd179","666215433b8f136c93a4e52f","312","","f","","","","","","","","./tasks/HMM-beads/Images/NewTrialWC.png","lowH","1","55","1","1","1","0","false","",""
"image-keyboard-response","302","447324","0.0-3.0-6.0-1.0-1.55","5f2eebd9d21e322a9ed68f09","6662009ae78f21dd82fcd179","666215433b8f136c93a4e52f","null","","null","","","","","","","","./tasks/HMM-beads/Images/BlackBeadChoice.png","","","","","","","","","",""
"image-keyboard-response","303","447838","0.0-3.0-6.0-1.0-2.55","5f2eebd9d21e322a9ed68f09","6662009ae78f21dd82fcd179","666215433b8f136c93a4e52f","null","","null","","","","","","","","./tasks/HMM-beads/Images/BlackBeadChoiceWrong.png","","","","","","","","","",""
"image-keyboard-response","304","448247","0.0-3.0-6.0-1.0-0.56","5f2eebd9d21e322a9ed68f09","6662009ae78f21dd82fcd179","666215433b8f136c93a4e52f","408","","j","","","","","","","","./tasks/HMM-beads/Images/NewTrialWC.png","lowH","1","56","1","1","1","1","true","",""
"image-keyboard-response","305","448555","0.0-3.0-6.0-1.0-1.56","5f2eebd9d21e322a9ed68f09","6662009ae78f21dd82fcd179","666215433b8f136c93a4e52f","null","","null","","","","","","","","./tasks/HMM-beads/Images/WhiteBeadChoice.png","","","","","","","","","",""
"image-keyboard-response","306","449071","0.0-3.0-6.0-1.0-2.56","5f2eebd9d21e322a9ed68f09","6662009ae78f21dd82fcd179","666215433b8f136c93a4e52f","null","","null","","","","","","","","./tasks/HMM-beads/Images/WhiteBeadChoiceCorrect.png","","","","","","","","","",""
"image-keyboard-response","307","449498","0.0-3.0-6.0-1.0-0.57","5f2eebd9d21e322a9ed68f09","6662009ae78f21dd82fcd179","666215433b8f136c93a4e52f","426","","j","","","","","","","","./tasks/HMM-beads/Images/NewTrialWC.png","lowH","1","57","1","1","1","1","true","",""
"image-keyboard-response","308","449808","0.0-3.0-6.0-1.0-1.57","5f2eebd9d21e322a9ed68f09","6662009ae78f21dd82fcd179","666215433b8f136c93a4e52f","null","","null","","","","","","","","./tasks/HMM-beads/Images/WhiteBeadChoice.png","","","","","","","","","",""
"image-keyboard-response","309","450312","0.0-3.0-6.0-1.0-2.57","5f2eebd9d21e322a9ed68f09","6662009ae78f21dd82fcd179","666215433b8f136c93a4e52f","null","","null","","","","","","","","./tasks/HMM-beads/Images/WhiteBeadChoiceCorrect.png","","","","","","","","","",""
"image-keyboard-response","310","450729","0.0-3.0-6.0-1.0-0.58","5f2eebd9d21e322a9ed68f09","6662009ae78f21dd82fcd179","666215433b8f136c93a4e52f","416","","j","","","","","","","","./tasks/HMM-beads/Images/NewTrialWC.png","lowH","1","58","1","1","1","1","true","",""
"image-keyboard-response","311","451041","0.0-3.0-6.0-1.0-1.58","5f2eebd9d21e322a9ed68f09","6662009ae78f21dd82fcd179","666215433b8f136c93a4e52f","null","","null","","","","","","","","./tasks/HMM-beads/Images/WhiteBeadChoice.png","","","","","","","","","",""
"image-keyboard-response","312","451557","0.0-3.0-6.0-1.0-2.58","5f2eebd9d21e322a9ed68f09","6662009ae78f21dd82fcd179","666215433b8f136c93a4e52f","null","","null","","","","","","","","./tasks/HMM-beads/Images/WhiteBeadChoiceCorrect.png","","","","","","","","","",""
"image-keyboard-response","313","452313","0.0-3.0-6.0-1.0-0.59","5f2eebd9d21e322a9ed68f09","6662009ae78f21dd82fcd179","666215433b8f136c93a4e52f","754","","j","","","","","","","","./tasks/HMM-beads/Images/NewTrialWC.png","lowH","1","59","1","0","1","1","false","",""
"image-keyboard-response","314","452628","0.0-3.0-6.0-1.0-1.59","5f2eebd9d21e322a9ed68f09","6662009ae78f21dd82fcd179","666215433b8f136c93a4e52f","null","","null","","","","","","","","./tasks/HMM-beads/Images/WhiteBeadChoice.png","","","","","","","","","",""
"image-keyboard-response","315","453134","0.0-3.0-6.0-1.0-2.59","5f2eebd9d21e322a9ed68f09","6662009ae78f21dd82fcd179","666215433b8f136c93a4e52f","null","","null","","","","","","","","./tasks/HMM-beads/Images/WhiteBeadChoiceWrong.png","","","","","","","","","",""
"image-keyboard-response","316","453418","0.0-3.0-6.0-1.0-0.60","5f2eebd9d21e322a9ed68f09","6662009ae78f21dd82fcd179","666215433b8f136c93a4e52f","283","","f","","","","","","","","./tasks/HMM-beads/Images/NewTrialBC.png","lowH","1","60","1","1","0","0","false","",""
"image-keyboard-response","317","453734","0.0-3.0-6.0-1.0-1.60","5f2eebd9d21e322a9ed68f09","6662009ae78f21dd82fcd179","666215433b8f136c93a4e52f","null","","null","","","","","","","","./tasks/HMM-beads/Images/BlackBeadChoice.png","","","","","","","","","",""
"image-keyboard-response","318","454241","0.0-3.0-6.0-1.0-2.60","5f2eebd9d21e322a9ed68f09","6662009ae78f21dd82fcd179","666215433b8f136c93a4e52f","null","","null","","","","","","","","./tasks/HMM-beads/Images/BlackBeadChoiceWrong.png","","","","","","","","","",""
"image-keyboard-response","319","454743","0.0-3.0-6.0-1.0-0.61","5f2eebd9d21e322a9ed68f09","6662009ae78f21dd82fcd179","666215433b8f136c93a4e52f","501","","j","","","","","","","","./tasks/HMM-beads/Images/NewTrialWC.png","lowH","1","61","1","1","1","1","true","",""
"image-keyboard-response","320","455066","0.0-3.0-6.0-1.0-1.61","5f2eebd9d21e322a9ed68f09","6662009ae78f21dd82fcd179","666215433b8f136c93a4e52f","null","","null","","","","","","","","./tasks/HMM-beads/Images/WhiteBeadChoice.png","","","","","","","","","",""
"image-keyboard-response","321","455576","0.0-3.0-6.0-1.0-2.61","5f2eebd9d21e322a9ed68f09","6662009ae78f21dd82fcd179","666215433b8f136c93a4e52f","null","","null","","","","","","","","./tasks/HMM-beads/Images/WhiteBeadChoiceCorrect.png","","","","","","","","","",""
"image-keyboard-response","322","455990","0.0-3.0-6.0-1.0-0.62","5f2eebd9d21e322a9ed68f09","6662009ae78f21dd82fcd179","666215433b8f136c93a4e52f","413","","j","","","","","","","","./tasks/HMM-beads/Images/NewTrialWC.png","lowH","1","62","1","0","1","1","false","",""
"image-keyboard-response","323","456308","0.0-3.0-6.0-1.0-1.62","5f2eebd9d21e322a9ed68f09","6662009ae78f21dd82fcd179","666215433b8f136c93a4e52f","null","","null","","","","","","","","./tasks/HMM-beads/Images/WhiteBeadChoice.png","","","","","","","","","",""
"image-keyboard-response","324","456812","0.0-3.0-6.0-1.0-2.62","5f2eebd9d21e322a9ed68f09","6662009ae78f21dd82fcd179","666215433b8f136c93a4e52f","null","","null","","","","","","","","./tasks/HMM-beads/Images/WhiteBeadChoiceWrong.png","","","","","","","","","",""
"image-keyboard-response","325","457076","0.0-3.0-6.0-1.0-0.63","5f2eebd9d21e322a9ed68f09","6662009ae78f21dd82fcd179","666215433b8f136c93a4e52f","263","","f","","","","","","","","./tasks/HMM-beads/Images/NewTrialBC.png","lowH","1","63","1","1","0","0","false","",""
"image-keyboard-response","326","457386","0.0-3.0-6.0-1.0-1.63","5f2eebd9d21e322a9ed68f09","6662009ae78f21dd82fcd179","666215433b8f136c93a4e52f","null","","null","","","","","","","","./tasks/HMM-beads/Images/BlackBeadChoice.png","","","","","","","","","",""
"image-keyboard-response","327","457890","0.0-3.0-6.0-1.0-2.63","5f2eebd9d21e322a9ed68f09","6662009ae78f21dd82fcd179","666215433b8f136c93a4e52f","null","","null","","","","","","","","./tasks/HMM-beads/Images/BlackBeadChoiceWrong.png","","","","","","","","","",""
"image-keyboard-response","328","458387","0.0-3.0-6.0-1.0-0.64","5f2eebd9d21e322a9ed68f09","6662009ae78f21dd82fcd179","666215433b8f136c93a4e52f","496","","j","","","","","","","","./tasks/HMM-beads/Images/NewTrialWC.png","lowH","1","64","1","1","1","1","true","",""
"image-keyboard-response","329","458702","0.0-3.0-6.0-1.0-1.64","5f2eebd9d21e322a9ed68f09","6662009ae78f21dd82fcd179","666215433b8f136c93a4e52f","null","","null","","","","","","","","./tasks/HMM-beads/Images/WhiteBeadChoice.png","","","","","","","","","",""
"image-keyboard-response","330","459204","0.0-3.0-6.0-1.0-2.64","5f2eebd9d21e322a9ed68f09","6662009ae78f21dd82fcd179","666215433b8f136c93a4e52f","null","","null","","","","","","","","./tasks/HMM-beads/Images/WhiteBeadChoiceCorrect.png","","","","","","","","","",""
"image-keyboard-response","331","459818","0.0-3.0-6.0-1.0-0.65","5f2eebd9d21e322a9ed68f09","6662009ae78f21dd82fcd179","666215433b8f136c93a4e52f","614","","j","","","","","","","","./tasks/HMM-beads/Images/NewTrialWC.png","lowH","1","65","1","1","1","1","true","",""
"image-keyboard-response","332","460131","0.0-3.0-6.0-1.0-1.65","5f2eebd9d21e322a9ed68f09","6662009ae78f21dd82fcd179","666215433b8f136c93a4e52f","null","","null","","","","","","","","./tasks/HMM-beads/Images/WhiteBeadChoice.png","","","","","","","","","",""
"image-keyboard-response","333","460637","0.0-3.0-6.0-1.0-2.65","5f2eebd9d21e322a9ed68f09","6662009ae78f21dd82fcd179","666215433b8f136c93a4e52f","null","","null","","","","","","","","./tasks/HMM-beads/Images/WhiteBeadChoiceCorrect.png","","","","","","","","","",""
"image-keyboard-response","334","461084","0.0-3.0-6.0-1.0-0.66","5f2eebd9d21e322a9ed68f09","6662009ae78f21dd82fcd179","666215433b8f136c93a4e52f","446","","j","","","","","","","","./tasks/HMM-beads/Images/NewTrialWC.png","lowH","1","66","1","1","1","1","true","",""
"image-keyboard-response","335","461401","0.0-3.0-6.0-1.0-1.66","5f2eebd9d21e322a9ed68f09","6662009ae78f21dd82fcd179","666215433b8f136c93a4e52f","null","","null","","","","","","","","./tasks/HMM-beads/Images/WhiteBeadChoice.png","","","","","","","","","",""
"image-keyboard-response","336","461906","0.0-3.0-6.0-1.0-2.66","5f2eebd9d21e322a9ed68f09","6662009ae78f21dd82fcd179","666215433b8f136c93a4e52f","null","","null","","","","","","","","./tasks/HMM-beads/Images/WhiteBeadChoiceCorrect.png","","","","","","","","","",""
"image-keyboard-response","337","462391","0.0-3.0-6.0-1.0-0.67","5f2eebd9d21e322a9ed68f09","6662009ae78f21dd82fcd179","666215433b8f136c93a4e52f","484","","j","","","","","","","","./tasks/HMM-beads/Images/NewTrialWC.png","lowH","1","67","1","0","1","1","false","",""
"image-keyboard-response","338","462694","0.0-3.0-6.0-1.0-1.67","5f2eebd9d21e322a9ed68f09","6662009ae78f21dd82fcd179","666215433b8f136c93a4e52f","null","","null","","","","","","","","./tasks/HMM-beads/Images/WhiteBeadChoice.png","","","","","","","","","",""
"image-keyboard-response","339","463204","0.0-3.0-6.0-1.0-2.67","5f2eebd9d21e322a9ed68f09","6662009ae78f21dd82fcd179","666215433b8f136c93a4e52f","null","","null","","","","","","","","./tasks/HMM-beads/Images/WhiteBeadChoiceWrong.png","","","","","","","","","",""
"image-keyboard-response","340","463284","0.0-3.0-6.0-1.0-0.68","5f2eebd9d21e322a9ed68f09","6662009ae78f21dd82fcd179","666215433b8f136c93a4e52f","79","","f","","","","","","","","./tasks/HMM-beads/Images/NewTrialBC.png","lowH","1","68","1","1","0","0","false","",""
"image-keyboard-response","341","463589","0.0-3.0-6.0-1.0-1.68","5f2eebd9d21e322a9ed68f09","6662009ae78f21dd82fcd179","666215433b8f136c93a4e52f","null","","null","","","","","","","","./tasks/HMM-beads/Images/BlackBeadChoice.png","","","","","","","","","",""
"image-keyboard-response","342","464102","0.0-3.0-6.0-1.0-2.68","5f2eebd9d21e322a9ed68f09","6662009ae78f21dd82fcd179","666215433b8f136c93a4e52f","null","","null","","","","","","","","./tasks/HMM-beads/Images/BlackBeadChoiceWrong.png","","","","","","","","","",""
"image-keyboard-response","343","464587","0.0-3.0-6.0-1.0-0.69","5f2eebd9d21e322a9ed68f09","6662009ae78f21dd82fcd179","666215433b8f136c93a4e52f","484","","f","","","","","","","","./tasks/HMM-beads/Images/NewTrialWC.png","lowH","1","69","0","1","1","0","false","",""
"image-keyboard-response","344","464903","0.0-3.0-6.0-1.0-1.69","5f2eebd9d21e322a9ed68f09","6662009ae78f21dd82fcd179","666215433b8f136c93a4e52f","null","","null","","","","","","","","./tasks/HMM-beads/Images/BlackBeadChoice.png","","","","","","","","","",""
"image-keyboard-response","345","465406","0.0-3.0-6.0-1.0-2.69","5f2eebd9d21e322a9ed68f09","6662009ae78f21dd82fcd179","666215433b8f136c93a4e52f","null","","null","","","","","","","","./tasks/HMM-beads/Images/BlackBeadChoiceWrong.png","","","","","","","","","",""
"image-keyboard-response","346","465778","0.0-3.0-6.0-1.0-0.70","5f2eebd9d21e322a9ed68f09","6662009ae78f21dd82fcd179","666215433b8f136c93a4e52f","371","","f","","","","","","","","./tasks/HMM-beads/Images/NewTrialWC.png","lowH","1","70","0","1","1","0","false","",""
"image-keyboard-response","347","466087","0.0-3.0-6.0-1.0-1.70","5f2eebd9d21e322a9ed68f09","6662009ae78f21dd82fcd179","666215433b8f136c93a4e52f","null","","null","","","","","","","","./tasks/HMM-beads/Images/BlackBeadChoice.png","","","","","","","","","",""
"image-keyboard-response","348","466598","0.0-3.0-6.0-1.0-2.70","5f2eebd9d21e322a9ed68f09","6662009ae78f21dd82fcd179","666215433b8f136c93a4e52f","null","","null","","","","","","","","./tasks/HMM-beads/Images/BlackBeadChoiceWrong.png","","","","","","","","","",""
"image-keyboard-response","349","467069","0.0-3.0-6.0-1.0-0.71","5f2eebd9d21e322a9ed68f09","6662009ae78f21dd82fcd179","666215433b8f136c93a4e52f","469","","f","","","","","","","","./tasks/HMM-beads/Images/NewTrialWC.png","lowH","1","71","0","0","1","0","true","",""
"image-keyboard-response","350","467373","0.0-3.0-6.0-1.0-1.71","5f2eebd9d21e322a9ed68f09","6662009ae78f21dd82fcd179","666215433b8f136c93a4e52f","null","","null","","","","","","","","./tasks/HMM-beads/Images/BlackBeadChoice.png","","","","","","","","","",""
"image-keyboard-response","351","467890","0.0-3.0-6.0-1.0-2.71","5f2eebd9d21e322a9ed68f09","6662009ae78f21dd82fcd179","666215433b8f136c93a4e52f","null","","null","","","","","","","","./tasks/HMM-beads/Images/BlackBeadChoiceCorrect.png","","","","","","","","","",""
"image-keyboard-response","352","468591","0.0-3.0-6.0-1.0-0.72","5f2eebd9d21e322a9ed68f09","6662009ae78f21dd82fcd179","666215433b8f136c93a4e52f","700","","f","","","","","","","","./tasks/HMM-beads/Images/NewTrialBC.png","lowH","1","72","0","0","0","0","true","",""
"image-keyboard-response","353","468895","0.0-3.0-6.0-1.0-1.72","5f2eebd9d21e322a9ed68f09","6662009ae78f21dd82fcd179","666215433b8f136c93a4e52f","null","","null","","","","","","","","./tasks/HMM-beads/Images/BlackBeadChoice.png","","","","","","","","","",""
"image-keyboard-response","354","469399","0.0-3.0-6.0-1.0-2.72","5f2eebd9d21e322a9ed68f09","6662009ae78f21dd82fcd179","666215433b8f136c93a4e52f","null","","null","","","","","","","","./tasks/HMM-beads/Images/BlackBeadChoiceCorrect.png","","","","","","","","","",""
"image-keyboard-response","355","469903","0.0-3.0-6.0-1.0-0.73","5f2eebd9d21e322a9ed68f09","6662009ae78f21dd82fcd179","666215433b8f136c93a4e52f","504","","j","","","","","","","","./tasks/HMM-beads/Images/NewTrialBC.png","lowH","1","73","0","1","0","1","true","",""
"image-keyboard-response","356","470219","0.0-3.0-6.0-1.0-1.73","5f2eebd9d21e322a9ed68f09","6662009ae78f21dd82fcd179","666215433b8f136c93a4e52f","null","","null","","","","","","","","./tasks/HMM-beads/Images/WhiteBeadChoice.png","","","","","","","","","",""
"image-keyboard-response","357","470735","0.0-3.0-6.0-1.0-2.73","5f2eebd9d21e322a9ed68f09","6662009ae78f21dd82fcd179","666215433b8f136c93a4e52f","null","","null","","","","","","","","./tasks/HMM-beads/Images/WhiteBeadChoiceCorrect.png","","","","","","","","","",""
"image-keyboard-response","358","471083","0.0-3.0-6.0-1.0-0.74","5f2eebd9d21e322a9ed68f09","6662009ae78f21dd82fcd179","666215433b8f136c93a4e52f","347","","f","","","","","","","","./tasks/HMM-beads/Images/NewTrialWC.png","lowH","1","74","0","0","1","0","true","",""
"image-keyboard-response","359","471395","0.0-3.0-6.0-1.0-1.74","5f2eebd9d21e322a9ed68f09","6662009ae78f21dd82fcd179","666215433b8f136c93a4e52f","null","","null","","","","","","","","./tasks/HMM-beads/Images/BlackBeadChoice.png","","","","","","","","","",""
"image-keyboard-response","360","471903","0.0-3.0-6.0-1.0-2.74","5f2eebd9d21e322a9ed68f09","6662009ae78f21dd82fcd179","666215433b8f136c93a4e52f","null","","null","","","","","","","","./tasks/HMM-beads/Images/BlackBeadChoiceCorrect.png","","","","","","","","","",""
"image-keyboard-response","361","472249","0.0-3.0-6.0-1.0-0.75","5f2eebd9d21e322a9ed68f09","6662009ae78f21dd82fcd179","666215433b8f136c93a4e52f","344","","f","","","","","","","","./tasks/HMM-beads/Images/NewTrialBC.png","lowH","1","75","0","1","0","0","false","",""
"image-keyboard-response","362","472562","0.0-3.0-6.0-1.0-1.75","5f2eebd9d21e322a9ed68f09","6662009ae78f21dd82fcd179","666215433b8f136c93a4e52f","null","","null","","","","","","","","./tasks/HMM-beads/Images/BlackBeadChoice.png","","","","","","","","","",""
"image-keyboard-response","363","473064","0.0-3.0-6.0-1.0-2.75","5f2eebd9d21e322a9ed68f09","6662009ae78f21dd82fcd179","666215433b8f136c93a4e52f","null","","null","","","","","","","","./tasks/HMM-beads/Images/BlackBeadChoiceWrong.png","","","","","","","","","",""
"image-keyboard-response","364","473319","0.0-3.0-6.0-1.0-0.76","5f2eebd9d21e322a9ed68f09","6662009ae78f21dd82fcd179","666215433b8f136c93a4e52f","254","","j","","","","","","","","./tasks/HMM-beads/Images/NewTrialWC.png","lowH","1","76","0","1","1","1","true","",""
"image-keyboard-response","365","473625","0.0-3.0-6.0-1.0-1.76","5f2eebd9d21e322a9ed68f09","6662009ae78f21dd82fcd179","666215433b8f136c93a4e52f","null","","null","","","","","","","","./tasks/HMM-beads/Images/WhiteBeadChoice.png","","","","","","","","","",""
"image-keyboard-response","366","474128","0.0-3.0-6.0-1.0-2.76","5f2eebd9d21e322a9ed68f09","6662009ae78f21dd82fcd179","666215433b8f136c93a4e52f","null","","null","","","","","","","","./tasks/HMM-beads/Images/WhiteBeadChoiceCorrect.png","","","","","","","","","",""
"image-keyboard-response","367","474555","0.0-3.0-6.0-1.0-0.77","5f2eebd9d21e322a9ed68f09","6662009ae78f21dd82fcd179","666215433b8f136c93a4e52f","426","","j","","","","","","","","./tasks/HMM-beads/Images/NewTrialWC.png","lowH","1","77","0","0","1","1","false","",""
"image-keyboard-response","368","474862","0.0-3.0-6.0-1.0-1.77","5f2eebd9d21e322a9ed68f09","6662009ae78f21dd82fcd179","666215433b8f136c93a4e52f","null","","null","","","","","","","","./tasks/HMM-beads/Images/WhiteBeadChoice.png","","","","","","","","","",""
"image-keyboard-response","369","475378","0.0-3.0-6.0-1.0-2.77","5f2eebd9d21e322a9ed68f09","6662009ae78f21dd82fcd179","666215433b8f136c93a4e52f","null","","null","","","","","","","","./tasks/HMM-beads/Images/WhiteBeadChoiceWrong.png","","","","","","","","","",""
"image-keyboard-response","370","475388","0.0-3.0-6.0-1.0-0.78","5f2eebd9d21e322a9ed68f09","6662009ae78f21dd82fcd179","666215433b8f136c93a4e52f","9","","f","","","","","","","","./tasks/HMM-beads/Images/NewTrialBC.png","lowH","1","78","0","0","0","0","true","",""
"image-keyboard-response","371","475692","0.0-3.0-6.0-1.0-1.78","5f2eebd9d21e322a9ed68f09","6662009ae78f21dd82fcd179","666215433b8f136c93a4e52f","null","","null","","","","","","","","./tasks/HMM-beads/Images/BlackBeadChoice.png","","","","","","","","","",""
"image-keyboard-response","372","476198","0.0-3.0-6.0-1.0-2.78","5f2eebd9d21e322a9ed68f09","6662009ae78f21dd82fcd179","666215433b8f136c93a4e52f","null","","null","","","","","","","","./tasks/HMM-beads/Images/BlackBeadChoiceCorrect.png","","","","","","","","","",""
"image-keyboard-response","373","476534","0.0-3.0-6.0-1.0-0.79","5f2eebd9d21e322a9ed68f09","6662009ae78f21dd82fcd179","666215433b8f136c93a4e52f","335","","j","","","","","","","","./tasks/HMM-beads/Images/NewTrialBC.png","lowH","1","79","0","0","0","1","false","",""
"image-keyboard-response","374","476842","0.0-3.0-6.0-1.0-1.79","5f2eebd9d21e322a9ed68f09","6662009ae78f21dd82fcd179","666215433b8f136c93a4e52f","null","","null","","","","","","","","./tasks/HMM-beads/Images/WhiteBeadChoice.png","","","","","","","","","",""
