"trial_type","trial_index","time_elapsed","internal_node_id","subject_id","study_id","session_id","rt","url","response","question_order","view_history","success","timeout","failed_images","failed_audio","failed_video","stimulus","block","block_rep","trial_number","jar","bead","previous_bead","choice","correct","lowH_score","total_bonus"
"pavlovia","0","1399","0.0-0.0","65f0bee41d562a50feaab429","6662009ae78f21dd82fcd179","6662044439f9c1be10ab0234","","","","","","","","","","","","","","","","","","","","",""
"external-html","1","151672","0.0-1.0-0.0","65f0bee41d562a50feaab429","6662009ae78f21dd82fcd179","6662044439f9c1be10ab0234","150155","new_consent.html","","","","","","","","","","","","","","","","","","",""
"survey-multi-choice","2","159392","0.0-1.0-1.0","65f0bee41d562a50feaab429","6662009ae78f21dd82fcd179","6662044439f9c1be10ab0234","7714","","{""Q0"":""Female"",""Q1"":""Black or African American""}","[0,1]","","","","","","","","","","","","","","","","",""
"survey-text","3","163825","0.0-1.0-2.0","65f0bee41d562a50feaab429","6662009ae78f21dd82fcd179","6662044439f9c1be10ab0234","4430","","{""Q0"":""53""}","","","","","","","","","","","","","","","","","",""
"instructions","4","168415","0.0-2.0","65f0bee41d562a50feaab429","6662009ae78f21dd82fcd179","6662044439f9c1be10ab0234","4486","","","","[{""page_index"":0,""viewing_time"":4485}]","","","","","","","","","","","","","","","",""
"preload","5","169387","0.0-3.0-0.0","65f0bee41d562a50feaab429","6662009ae78f21dd82fcd179","6662044439f9c1be10ab0234","","","","","","true","false","[]","[]","[]","","","","","","","","","","",""
"instructions","6","388253","0.0-3.0-1.0","65f0bee41d562a50feaab429","6662009ae78f21dd82fcd179","6662044439f9c1be10ab0234","218866","","","","[{""page_index"":0,""viewing_time"":31140},{""page_index"":1,""viewing_time"":15182},{""page_index"":2,""viewing_time"":9416},{""page_index"":3,""viewing_time"":7098},{""page_index"":4,""viewing_time"":25706},{""page_index"":5,""viewing_time"":37222},{""page_index"":6,""viewing_time"":16870},{""page_index"":7,""viewing_time"":11309},{""page_index"":8,""viewing_time"":17654},{""page_index"":9,""viewing_time"":25535},{""page_index"":10,""viewing_time"":14560},{""page_index"":11,""viewing_time"":7174}]","","","","","","","","","","","","","","","",""
"html-button-response","7","395475","0.0-3.0-2.0-0.0-0.0","65f0bee41d562a50feaab429","6662009ae78f21dd82fcd179","6662044439f9c1be10ab0234","7221","","1","","","","","","","","<div align=center>Your goal is to predict…?<br><br></div>","","","","","","","","","",""
"html-button-response","8","407548","0.0-3.0-2.0-1.0-0.0","65f0bee41d562a50feaab429","6662009ae78f21dd82fcd179","6662044439f9c1be10ab0234","9769","","2","","","","","","","","<div align=center>In the jar with mostly white beads, there are ___% white beads and ___% black beads?<br><br></div>","","","","","","","","","",""
"html-button-response","9","423703","0.0-3.0-2.0-2.0-0.0","65f0bee41d562a50feaab429","6662009ae78f21dd82fcd179","6662044439f9c1be10ab0234","14585","","0","","","","","","","","<div align=center>When there is a 1% probability that the jars will switch, the next bead will most likely be drawn from the…<br><br></div>","","","","","","","","","",""
"html-button-response","10","431562","0.0-3.0-2.0-3.0-0.0","65f0bee41d562a50feaab429","6662009ae78f21dd82fcd179","6662044439f9c1be10ab0234","5407","","1","","","","","","","","<div align=center>When there is a 99% probability that the jars will switch, the next bead will most likely be drawn from the…<br><br></div>","","","","","","","","","",""
"instructions","11","458444","0.0-3.0-3.0","65f0bee41d562a50feaab429","6662009ae78f21dd82fcd179","6662044439f9c1be10ab0234","25566","","","","[{""page_index"":0,""viewing_time"":25566}]","","","","","","","","","","","","","","","",""
"html-keyboard-response","12","470174","0.0-3.0-4.0-0.0","65f0bee41d562a50feaab429","6662009ae78f21dd82fcd179","6662044439f9c1be10ab0234","11730",""," ","","","","","","","","<div align=center>In this practice block, there will be a <b>1% chance</b> that the jar on the next trial will be different from the jar on the current trial.<br><br></div>","","","","","","","","","",""
"image-keyboard-response","13","476173","0.0-3.0-4.0-1.0-0.0","65f0bee41d562a50feaab429","6662009ae78f21dd82fcd179","6662044439f9c1be10ab0234","5996","","f","","","","","","","","./tasks/HMM-beads/Images/NoChoice.png","practice","0","0","0","0","9","0","true","",""
"image-keyboard-response","14","476489","0.0-3.0-4.0-1.0-1.0","65f0bee41d562a50feaab429","6662009ae78f21dd82fcd179","6662044439f9c1be10ab0234","null","","null","","","","","","","","./tasks/HMM-beads/Images/BlackBeadChoice.png","","","","","","","","","",""
"image-keyboard-response","15","477000","0.0-3.0-4.0-1.0-2.0","65f0bee41d562a50feaab429","6662009ae78f21dd82fcd179","6662044439f9c1be10ab0234","null","","null","","","","","","","","./tasks/HMM-beads/Images/BlackBeadChoiceCorrect.png","","","","","","","","","",""
"image-keyboard-response","16","482925","0.0-3.0-4.0-1.0-0.1","65f0bee41d562a50feaab429","6662009ae78f21dd82fcd179","6662044439f9c1be10ab0234","5924","","f","","","","","","","","./tasks/HMM-beads/Images/NewTrialBC.png","practice","0","1","0","0","0","0","true","",""
"image-keyboard-response","17","483237","0.0-3.0-4.0-1.0-1.1","65f0bee41d562a50feaab429","6662009ae78f21dd82fcd179","6662044439f9c1be10ab0234","null","","null","","","","","","","","./tasks/HMM-beads/Images/BlackBeadChoice.png","","","","","","","","","",""
"image-keyboard-response","18","483739","0.0-3.0-4.0-1.0-2.1","65f0bee41d562a50feaab429","6662009ae78f21dd82fcd179","6662044439f9c1be10ab0234","null","","null","","","","","","","","./tasks/HMM-beads/Images/BlackBeadChoiceCorrect.png","","","","","","","","","",""
"image-keyboard-response","19","487075","0.0-3.0-4.0-1.0-0.2","65f0bee41d562a50feaab429","6662009ae78f21dd82fcd179","6662044439f9c1be10ab0234","3337","","f","","","","","","","","./tasks/HMM-beads/Images/NewTrialBC.png","practice","0","2","0","1","0","0","false","",""
"image-keyboard-response","20","487379","0.0-3.0-4.0-1.0-1.2","65f0bee41d562a50feaab429","6662009ae78f21dd82fcd179","6662044439f9c1be10ab0234","null","","null","","","","","","","","./tasks/HMM-beads/Images/BlackBeadChoice.png","","","","","","","","","",""
"image-keyboard-response","21","487888","0.0-3.0-4.0-1.0-2.2","65f0bee41d562a50feaab429","6662009ae78f21dd82fcd179","6662044439f9c1be10ab0234","null","","null","","","","","","","","./tasks/HMM-beads/Images/BlackBeadChoiceWrong.png","","","","","","","","","",""
"image-keyboard-response","22","506107","0.0-3.0-4.0-1.0-0.3","65f0bee41d562a50feaab429","6662009ae78f21dd82fcd179","6662044439f9c1be10ab0234","18218","","j","","","","","","","","./tasks/HMM-beads/Images/NewTrialWC.png","practice","0","3","0","0","1","1","false","",""
"image-keyboard-response","23","506420","0.0-3.0-4.0-1.0-1.3","65f0bee41d562a50feaab429","6662009ae78f21dd82fcd179","6662044439f9c1be10ab0234","null","","null","","","","","","","","./tasks/HMM-beads/Images/WhiteBeadChoice.png","","","","","","","","","",""
"image-keyboard-response","24","506927","0.0-3.0-4.0-1.0-2.3","65f0bee41d562a50feaab429","6662009ae78f21dd82fcd179","6662044439f9c1be10ab0234","null","","null","","","","","","","","./tasks/HMM-beads/Images/WhiteBeadChoiceWrong.png","","","","","","","","","",""
"image-keyboard-response","25","508370","0.0-3.0-4.0-1.0-0.4","65f0bee41d562a50feaab429","6662009ae78f21dd82fcd179","6662044439f9c1be10ab0234","1443","","f","","","","","","","","./tasks/HMM-beads/Images/NewTrialBC.png","practice","0","4","0","0","0","0","true","",""
"image-keyboard-response","26","508676","0.0-3.0-4.0-1.0-1.4","65f0bee41d562a50feaab429","6662009ae78f21dd82fcd179","6662044439f9c1be10ab0234","null","","null","","","","","","","","./tasks/HMM-beads/Images/BlackBeadChoice.png","","","","","","","","","",""
"image-keyboard-response","27","509177","0.0-3.0-4.0-1.0-2.4","65f0bee41d562a50feaab429","6662009ae78f21dd82fcd179","6662044439f9c1be10ab0234","null","","null","","","","","","","","./tasks/HMM-beads/Images/BlackBeadChoiceCorrect.png","","","","","","","","","",""
"image-keyboard-response","28","511211","0.0-3.0-4.0-1.0-0.5","65f0bee41d562a50feaab429","6662009ae78f21dd82fcd179","6662044439f9c1be10ab0234","2033","","f","","","","","","","","./tasks/HMM-beads/Images/NewTrialBC.png","practice","0","5","0","1","0","0","false","",""
"image-keyboard-response","29","511515","0.0-3.0-4.0-1.0-1.5","65f0bee41d562a50feaab429","6662009ae78f21dd82fcd179","6662044439f9c1be10ab0234","null","","null","","","","","","","","./tasks/HMM-beads/Images/BlackBeadChoice.png","","","","","","","","","",""
"image-keyboard-response","30","512031","0.0-3.0-4.0-1.0-2.5","65f0bee41d562a50feaab429","6662009ae78f21dd82fcd179","6662044439f9c1be10ab0234","null","","null","","","","","","","","./tasks/HMM-beads/Images/BlackBeadChoiceWrong.png","","","","","","","","","",""
"image-keyboard-response","31","512931","0.0-3.0-4.0-1.0-0.6","65f0bee41d562a50feaab429","6662009ae78f21dd82fcd179","6662044439f9c1be10ab0234","899","","f","","","","","","","","./tasks/HMM-beads/Images/NewTrialWC.png","practice","0","6","0","0","1","0","true","",""
"image-keyboard-response","32","513237","0.0-3.0-4.0-1.0-1.6","65f0bee41d562a50feaab429","6662009ae78f21dd82fcd179","6662044439f9c1be10ab0234","null","","null","","","","","","","","./tasks/HMM-beads/Images/BlackBeadChoice.png","","","","","","","","","",""
"image-keyboard-response","33","513752","0.0-3.0-4.0-1.0-2.6","65f0bee41d562a50feaab429","6662009ae78f21dd82fcd179","6662044439f9c1be10ab0234","null","","null","","","","","","","","./tasks/HMM-beads/Images/BlackBeadChoiceCorrect.png","","","","","","","","","",""
"image-keyboard-response","34","515891","0.0-3.0-4.0-1.0-0.7","65f0bee41d562a50feaab429","6662009ae78f21dd82fcd179","6662044439f9c1be10ab0234","2134","","f","","","","","","","","./tasks/HMM-beads/Images/NewTrialBC.png","practice","0","7","0","0","0","0","true","",""
"image-keyboard-response","35","516204","0.0-3.0-4.0-1.0-1.7","65f0bee41d562a50feaab429","6662009ae78f21dd82fcd179","6662044439f9c1be10ab0234","null","","null","","","","","","","","./tasks/HMM-beads/Images/BlackBeadChoice.png","","","","","","","","","",""
"image-keyboard-response","36","516718","0.0-3.0-4.0-1.0-2.7","65f0bee41d562a50feaab429","6662009ae78f21dd82fcd179","6662044439f9c1be10ab0234","null","","null","","","","","","","","./tasks/HMM-beads/Images/BlackBeadChoiceCorrect.png","","","","","","","","","",""
"image-keyboard-response","37","519650","0.0-3.0-4.0-1.0-0.8","65f0bee41d562a50feaab429","6662009ae78f21dd82fcd179","6662044439f9c1be10ab0234","2932","","f","","","","","","","","./tasks/HMM-beads/Images/NewTrialBC.png","practice","0","8","0","0","0","0","true","",""
"image-keyboard-response","38","519961","0.0-3.0-4.0-1.0-1.8","65f0bee41d562a50feaab429","6662009ae78f21dd82fcd179","6662044439f9c1be10ab0234","null","","null","","","","","","","","./tasks/HMM-beads/Images/BlackBeadChoice.png","","","","","","","","","",""
"image-keyboard-response","39","520469","0.0-3.0-4.0-1.0-2.8","65f0bee41d562a50feaab429","6662009ae78f21dd82fcd179","6662044439f9c1be10ab0234","null","","null","","","","","","","","./tasks/HMM-beads/Images/BlackBeadChoiceCorrect.png","","","","","","","","","",""
"image-keyboard-response","40","524339","0.0-3.0-4.0-1.0-0.9","65f0bee41d562a50feaab429","6662009ae78f21dd82fcd179","6662044439f9c1be10ab0234","3869","","f","","","","","","","","./tasks/HMM-beads/Images/NewTrialBC.png","practice","0","9","0","1","0","0","false","",""
"image-keyboard-response","41","524654","0.0-3.0-4.0-1.0-1.9","65f0bee41d562a50feaab429","6662009ae78f21dd82fcd179","6662044439f9c1be10ab0234","null","","null","","","","","","","","./tasks/HMM-beads/Images/BlackBeadChoice.png","","","","","","","","","",""
"image-keyboard-response","42","525157","0.0-3.0-4.0-1.0-2.9","65f0bee41d562a50feaab429","6662009ae78f21dd82fcd179","6662044439f9c1be10ab0234","null","","null","","","","","","","","./tasks/HMM-beads/Images/BlackBeadChoiceWrong.png","","","","","","","","","",""
"image-keyboard-response","43","527139","0.0-3.0-4.0-1.0-0.10","65f0bee41d562a50feaab429","6662009ae78f21dd82fcd179","6662044439f9c1be10ab0234","1981","","f","","","","","","","","./tasks/HMM-beads/Images/NewTrialWC.png","practice","0","10","0","0","1","0","true","",""
"image-keyboard-response","44","527440","0.0-3.0-4.0-1.0-1.10","65f0bee41d562a50feaab429","6662009ae78f21dd82fcd179","6662044439f9c1be10ab0234","null","","null","","","","","","","","./tasks/HMM-beads/Images/BlackBeadChoice.png","","","","","","","","","",""
"image-keyboard-response","45","527953","0.0-3.0-4.0-1.0-2.10","65f0bee41d562a50feaab429","6662009ae78f21dd82fcd179","6662044439f9c1be10ab0234","null","","null","","","","","","","","./tasks/HMM-beads/Images/BlackBeadChoiceCorrect.png","","","","","","","","","",""
"image-keyboard-response","46","529131","0.0-3.0-4.0-1.0-0.11","65f0bee41d562a50feaab429","6662009ae78f21dd82fcd179","6662044439f9c1be10ab0234","1177","","f","","","","","","","","./tasks/HMM-beads/Images/NewTrialBC.png","practice","0","11","0","1","0","0","false","",""
"image-keyboard-response","47","529446","0.0-3.0-4.0-1.0-1.11","65f0bee41d562a50feaab429","6662009ae78f21dd82fcd179","6662044439f9c1be10ab0234","null","","null","","","","","","","","./tasks/HMM-beads/Images/BlackBeadChoice.png","","","","","","","","","",""
"image-keyboard-response","48","529963","0.0-3.0-4.0-1.0-2.11","65f0bee41d562a50feaab429","6662009ae78f21dd82fcd179","6662044439f9c1be10ab0234","null","","null","","","","","","","","./tasks/HMM-beads/Images/BlackBeadChoiceWrong.png","","","","","","","","","",""
"image-keyboard-response","49","531611","0.0-3.0-4.0-1.0-0.12","65f0bee41d562a50feaab429","6662009ae78f21dd82fcd179","6662044439f9c1be10ab0234","1647","","f","","","","","","","","./tasks/HMM-beads/Images/NewTrialWC.png","practice","0","12","0","0","1","0","true","",""
"image-keyboard-response","50","531920","0.0-3.0-4.0-1.0-1.12","65f0bee41d562a50feaab429","6662009ae78f21dd82fcd179","6662044439f9c1be10ab0234","null","","null","","","","","","","","./tasks/HMM-beads/Images/BlackBeadChoice.png","","","","","","","","","",""
"image-keyboard-response","51","532434","0.0-3.0-4.0-1.0-2.12","65f0bee41d562a50feaab429","6662009ae78f21dd82fcd179","6662044439f9c1be10ab0234","null","","null","","","","","","","","./tasks/HMM-beads/Images/BlackBeadChoiceCorrect.png","","","","","","","","","",""
"image-keyboard-response","52","533891","0.0-3.0-4.0-1.0-0.13","65f0bee41d562a50feaab429","6662009ae78f21dd82fcd179","6662044439f9c1be10ab0234","1456","","f","","","","","","","","./tasks/HMM-beads/Images/NewTrialBC.png","practice","0","13","0","0","0","0","true","",""
"image-keyboard-response","53","534201","0.0-3.0-4.0-1.0-1.13","65f0bee41d562a50feaab429","6662009ae78f21dd82fcd179","6662044439f9c1be10ab0234","null","","null","","","","","","","","./tasks/HMM-beads/Images/BlackBeadChoice.png","","","","","","","","","",""
"image-keyboard-response","54","534711","0.0-3.0-4.0-1.0-2.13","65f0bee41d562a50feaab429","6662009ae78f21dd82fcd179","6662044439f9c1be10ab0234","null","","null","","","","","","","","./tasks/HMM-beads/Images/BlackBeadChoiceCorrect.png","","","","","","","","","",""
"image-keyboard-response","55","536955","0.0-3.0-4.0-1.0-0.14","65f0bee41d562a50feaab429","6662009ae78f21dd82fcd179","6662044439f9c1be10ab0234","2242","","j","","","","","","","","./tasks/HMM-beads/Images/NewTrialBC.png","practice","0","14","0","0","0","1","false","",""
"image-keyboard-response","56","537257","0.0-3.0-4.0-1.0-1.14","65f0bee41d562a50feaab429","6662009ae78f21dd82fcd179","6662044439f9c1be10ab0234","null","","null","","","","","","","","./tasks/HMM-beads/Images/WhiteBeadChoice.png","","","","","","","","","",""
"image-keyboard-response","57","537761","0.0-3.0-4.0-1.0-2.14","65f0bee41d562a50feaab429","6662009ae78f21dd82fcd179","6662044439f9c1be10ab0234","null","","null","","","","","","","","./tasks/HMM-beads/Images/WhiteBeadChoiceWrong.png","","","","","","","","","",""
"image-keyboard-response","58","539250","0.0-3.0-4.0-1.0-0.15","65f0bee41d562a50feaab429","6662009ae78f21dd82fcd179","6662044439f9c1be10ab0234","1488","","j","","","","","","","","./tasks/HMM-beads/Images/NewTrialBC.png","practice","0","15","0","0","0","1","false","",""
"image-keyboard-response","59","539564","0.0-3.0-4.0-1.0-1.15","65f0bee41d562a50feaab429","6662009ae78f21dd82fcd179","6662044439f9c1be10ab0234","null","","null","","","","","","","","./tasks/HMM-beads/Images/WhiteBeadChoice.png","","","","","","","","","",""
"image-keyboard-response","60","540075","0.0-3.0-4.0-1.0-2.15","65f0bee41d562a50feaab429","6662009ae78f21dd82fcd179","6662044439f9c1be10ab0234","null","","null","","","","","","","","./tasks/HMM-beads/Images/WhiteBeadChoiceWrong.png","","","","","","","","","",""
"image-keyboard-response","61","541683","0.0-3.0-4.0-1.0-0.16","65f0bee41d562a50feaab429","6662009ae78f21dd82fcd179","6662044439f9c1be10ab0234","1606","","j","","","","","","","","./tasks/HMM-beads/Images/NewTrialBC.png","practice","0","16","0","0","0","1","false","",""
"image-keyboard-response","62","541987","0.0-3.0-4.0-1.0-1.16","65f0bee41d562a50feaab429","6662009ae78f21dd82fcd179","6662044439f9c1be10ab0234","null","","null","","","","","","","","./tasks/HMM-beads/Images/WhiteBeadChoice.png","","","","","","","","","",""
"image-keyboard-response","63","542489","0.0-3.0-4.0-1.0-2.16","65f0bee41d562a50feaab429","6662009ae78f21dd82fcd179","6662044439f9c1be10ab0234","null","","null","","","","","","","","./tasks/HMM-beads/Images/WhiteBeadChoiceWrong.png","","","","","","","","","",""
"image-keyboard-response","64","543955","0.0-3.0-4.0-1.0-0.17","65f0bee41d562a50feaab429","6662009ae78f21dd82fcd179","6662044439f9c1be10ab0234","1464","","j","","","","","","","","./tasks/HMM-beads/Images/NewTrialBC.png","practice","0","17","0","0","0","1","false","",""
"image-keyboard-response","65","544259","0.0-3.0-4.0-1.0-1.17","65f0bee41d562a50feaab429","6662009ae78f21dd82fcd179","6662044439f9c1be10ab0234","null","","null","","","","","","","","./tasks/HMM-beads/Images/WhiteBeadChoice.png","","","","","","","","","",""
"image-keyboard-response","66","544770","0.0-3.0-4.0-1.0-2.17","65f0bee41d562a50feaab429","6662009ae78f21dd82fcd179","6662044439f9c1be10ab0234","null","","null","","","","","","","","./tasks/HMM-beads/Images/WhiteBeadChoiceWrong.png","","","","","","","","","",""
"image-keyboard-response","67","545587","0.0-3.0-4.0-1.0-0.18","65f0bee41d562a50feaab429","6662009ae78f21dd82fcd179","6662044439f9c1be10ab0234","815","","f","","","","","","","","./tasks/HMM-beads/Images/NewTrialBC.png","practice","0","18","0","1","0","0","false","",""
"image-keyboard-response","68","545903","0.0-3.0-4.0-1.0-1.18","65f0bee41d562a50feaab429","6662009ae78f21dd82fcd179","6662044439f9c1be10ab0234","null","","null","","","","","","","","./tasks/HMM-beads/Images/BlackBeadChoice.png","","","","","","","","","",""
"image-keyboard-response","69","546415","0.0-3.0-4.0-1.0-2.18","65f0bee41d562a50feaab429","6662009ae78f21dd82fcd179","6662044439f9c1be10ab0234","null","","null","","","","","","","","./tasks/HMM-beads/Images/BlackBeadChoiceWrong.png","","","","","","","","","",""
"image-keyboard-response","70","551836","0.0-3.0-4.0-1.0-0.19","65f0bee41d562a50feaab429","6662009ae78f21dd82fcd179","6662044439f9c1be10ab0234","5419","","f","","","","","","","","./tasks/HMM-beads/Images/NewTrialWC.png","practice","0","19","0","0","1","0","true","",""
"image-keyboard-response","71","552137","0.0-3.0-4.0-1.0-1.19","65f0bee41d562a50feaab429","6662009ae78f21dd82fcd179","6662044439f9c1be10ab0234","null","","null","","","","","","","","./tasks/HMM-beads/Images/BlackBeadChoice.png","","","","","","","","","",""
"image-keyboard-response","72","552646","0.0-3.0-4.0-1.0-2.19","65f0bee41d562a50feaab429","6662009ae78f21dd82fcd179","6662044439f9c1be10ab0234","null","","null","","","","","","","","./tasks/HMM-beads/Images/BlackBeadChoiceCorrect.png","","","","","","","","","",""
"image-keyboard-response","73","553243","0.0-3.0-4.0-1.0-0.20","65f0bee41d562a50feaab429","6662009ae78f21dd82fcd179","6662044439f9c1be10ab0234","596","","f","","","","","","","","./tasks/HMM-beads/Images/NewTrialBC.png","practice","0","20","0","0","0","0","true","",""
"image-keyboard-response","74","553551","0.0-3.0-4.0-1.0-1.20","65f0bee41d562a50feaab429","6662009ae78f21dd82fcd179","6662044439f9c1be10ab0234","null","","null","","","","","","","","./tasks/HMM-beads/Images/BlackBeadChoice.png","","","","","","","","","",""
"image-keyboard-response","75","554061","0.0-3.0-4.0-1.0-2.20","65f0bee41d562a50feaab429","6662009ae78f21dd82fcd179","6662044439f9c1be10ab0234","null","","null","","","","","","","","./tasks/HMM-beads/Images/BlackBeadChoiceCorrect.png","","","","","","","","","",""
"image-keyboard-response","76","554923","0.0-3.0-4.0-1.0-0.21","65f0bee41d562a50feaab429","6662009ae78f21dd82fcd179","6662044439f9c1be10ab0234","861","","f","","","","","","","","./tasks/HMM-beads/Images/NewTrialBC.png","practice","0","21","0","1","0","0","false","",""
"image-keyboard-response","77","555236","0.0-3.0-4.0-1.0-1.21","65f0bee41d562a50feaab429","6662009ae78f21dd82fcd179","6662044439f9c1be10ab0234","null","","null","","","","","","","","./tasks/HMM-beads/Images/BlackBeadChoice.png","","","","","","","","","",""
"image-keyboard-response","78","555749","0.0-3.0-4.0-1.0-2.21","65f0bee41d562a50feaab429","6662009ae78f21dd82fcd179","6662044439f9c1be10ab0234","null","","null","","","","","","","","./tasks/HMM-beads/Images/BlackBeadChoiceWrong.png","","","","","","","","","",""
"image-keyboard-response","79","557724","0.0-3.0-4.0-1.0-0.22","65f0bee41d562a50feaab429","6662009ae78f21dd82fcd179","6662044439f9c1be10ab0234","1970","","f","","","","","","","","./tasks/HMM-beads/Images/NewTrialWC.png","practice","0","22","1","1","1","0","false","",""
"image-keyboard-response","80","558028","0.0-3.0-4.0-1.0-1.22","65f0bee41d562a50feaab429","6662009ae78f21dd82fcd179","6662044439f9c1be10ab0234","null","","null","","","","","","","","./tasks/HMM-beads/Images/BlackBeadChoice.png","","","","","","","","","",""
"image-keyboard-response","81","558538","0.0-3.0-4.0-1.0-2.22","65f0bee41d562a50feaab429","6662009ae78f21dd82fcd179","6662044439f9c1be10ab0234","null","","null","","","","","","","","./tasks/HMM-beads/Images/BlackBeadChoiceWrong.png","","","","","","","","","",""
"image-keyboard-response","82","559427","0.0-3.0-4.0-1.0-0.23","65f0bee41d562a50feaab429","6662009ae78f21dd82fcd179","6662044439f9c1be10ab0234","888","","f","","","","","","","","./tasks/HMM-beads/Images/NewTrialWC.png","practice","0","23","1","0","1","0","true","",""
"image-keyboard-response","83","559742","0.0-3.0-4.0-1.0-1.23","65f0bee41d562a50feaab429","6662009ae78f21dd82fcd179","6662044439f9c1be10ab0234","null","","null","","","","","","","","./tasks/HMM-beads/Images/BlackBeadChoice.png","","","","","","","","","",""
"image-keyboard-response","84","560254","0.0-3.0-4.0-1.0-2.23","65f0bee41d562a50feaab429","6662009ae78f21dd82fcd179","6662044439f9c1be10ab0234","null","","null","","","","","","","","./tasks/HMM-beads/Images/BlackBeadChoiceCorrect.png","","","","","","","","","",""
"image-keyboard-response","85","561156","0.0-3.0-4.0-1.0-0.24","65f0bee41d562a50feaab429","6662009ae78f21dd82fcd179","6662044439f9c1be10ab0234","901","","f","","","","","","","","./tasks/HMM-beads/Images/NewTrialBC.png","practice","0","24","1","1","0","0","false","",""
"image-keyboard-response","86","561465","0.0-3.0-4.0-1.0-1.24","65f0bee41d562a50feaab429","6662009ae78f21dd82fcd179","6662044439f9c1be10ab0234","null","","null","","","","","","","","./tasks/HMM-beads/Images/BlackBeadChoice.png","","","","","","","","","",""
"image-keyboard-response","87","561972","0.0-3.0-4.0-1.0-2.24","65f0bee41d562a50feaab429","6662009ae78f21dd82fcd179","6662044439f9c1be10ab0234","null","","null","","","","","","","","./tasks/HMM-beads/Images/BlackBeadChoiceWrong.png","","","","","","","","","",""
"image-keyboard-response","88","563060","0.0-3.0-4.0-1.0-0.25","65f0bee41d562a50feaab429","6662009ae78f21dd82fcd179","6662044439f9c1be10ab0234","1087","","f","","","","","","","","./tasks/HMM-beads/Images/NewTrialWC.png","practice","0","25","1","1","1","0","false","",""
"image-keyboard-response","89","563370","0.0-3.0-4.0-1.0-1.25","65f0bee41d562a50feaab429","6662009ae78f21dd82fcd179","6662044439f9c1be10ab0234","null","","null","","","","","","","","./tasks/HMM-beads/Images/BlackBeadChoice.png","","","","","","","","","",""
"image-keyboard-response","90","563876","0.0-3.0-4.0-1.0-2.25","65f0bee41d562a50feaab429","6662009ae78f21dd82fcd179","6662044439f9c1be10ab0234","null","","null","","","","","","","","./tasks/HMM-beads/Images/BlackBeadChoiceWrong.png","","","","","","","","","",""
"image-keyboard-response","91","564875","0.0-3.0-4.0-1.0-0.26","65f0bee41d562a50feaab429","6662009ae78f21dd82fcd179","6662044439f9c1be10ab0234","998","","j","","","","","","","","./tasks/HMM-beads/Images/NewTrialWC.png","practice","0","26","1","1","1","1","true","",""
"image-keyboard-response","92","565186","0.0-3.0-4.0-1.0-1.26","65f0bee41d562a50feaab429","6662009ae78f21dd82fcd179","6662044439f9c1be10ab0234","null","","null","","","","","","","","./tasks/HMM-beads/Images/WhiteBeadChoice.png","","","","","","","","","",""
"image-keyboard-response","93","565697","0.0-3.0-4.0-1.0-2.26","65f0bee41d562a50feaab429","6662009ae78f21dd82fcd179","6662044439f9c1be10ab0234","null","","null","","","","","","","","./tasks/HMM-beads/Images/WhiteBeadChoiceCorrect.png","","","","","","","","","",""
"image-keyboard-response","94","566595","0.0-3.0-4.0-1.0-0.27","65f0bee41d562a50feaab429","6662009ae78f21dd82fcd179","6662044439f9c1be10ab0234","898","","j","","","","","","","","./tasks/HMM-beads/Images/NewTrialWC.png","practice","0","27","1","1","1","1","true","",""
"image-keyboard-response","95","566898","0.0-3.0-4.0-1.0-1.27","65f0bee41d562a50feaab429","6662009ae78f21dd82fcd179","6662044439f9c1be10ab0234","null","","null","","","","","","","","./tasks/HMM-beads/Images/WhiteBeadChoice.png","","","","","","","","","",""
"image-keyboard-response","96","567404","0.0-3.0-4.0-1.0-2.27","65f0bee41d562a50feaab429","6662009ae78f21dd82fcd179","6662044439f9c1be10ab0234","null","","null","","","","","","","","./tasks/HMM-beads/Images/WhiteBeadChoiceCorrect.png","","","","","","","","","",""
"image-keyboard-response","97","568499","0.0-3.0-4.0-1.0-0.28","65f0bee41d562a50feaab429","6662009ae78f21dd82fcd179","6662044439f9c1be10ab0234","1095","","j","","","","","","","","./tasks/HMM-beads/Images/NewTrialWC.png","practice","0","28","1","0","1","1","false","",""
"image-keyboard-response","98","568803","0.0-3.0-4.0-1.0-1.28","65f0bee41d562a50feaab429","6662009ae78f21dd82fcd179","6662044439f9c1be10ab0234","null","","null","","","","","","","","./tasks/HMM-beads/Images/WhiteBeadChoice.png","","","","","","","","","",""
"image-keyboard-response","99","569308","0.0-3.0-4.0-1.0-2.28","65f0bee41d562a50feaab429","6662009ae78f21dd82fcd179","6662044439f9c1be10ab0234","null","","null","","","","","","","","./tasks/HMM-beads/Images/WhiteBeadChoiceWrong.png","","","","","","","","","",""
"image-keyboard-response","100","570636","0.0-3.0-4.0-1.0-0.29","65f0bee41d562a50feaab429","6662009ae78f21dd82fcd179","6662044439f9c1be10ab0234","1326","","f","","","","","","","","./tasks/HMM-beads/Images/NewTrialBC.png","practice","0","29","1","1","0","0","false","",""
"image-keyboard-response","101","570944","0.0-3.0-4.0-1.0-1.29","65f0bee41d562a50feaab429","6662009ae78f21dd82fcd179","6662044439f9c1be10ab0234","null","","null","","","","","","","","./tasks/HMM-beads/Images/BlackBeadChoice.png","","","","","","","","","",""
"image-keyboard-response","102","571457","0.0-3.0-4.0-1.0-2.29","65f0bee41d562a50feaab429","6662009ae78f21dd82fcd179","6662044439f9c1be10ab0234","null","","null","","","","","","","","./tasks/HMM-beads/Images/BlackBeadChoiceWrong.png","","","","","","","","","",""
"image-keyboard-response","103","572163","0.0-3.0-4.0-1.0-0.30","65f0bee41d562a50feaab429","6662009ae78f21dd82fcd179","6662044439f9c1be10ab0234","705","","j","","","","","","","","./tasks/HMM-beads/Images/NewTrialWC.png","practice","0","30","1","0","1","1","false","",""
"image-keyboard-response","104","572472","0.0-3.0-4.0-1.0-1.30","65f0bee41d562a50feaab429","6662009ae78f21dd82fcd179","6662044439f9c1be10ab0234","null","","null","","","","","","","","./tasks/HMM-beads/Images/WhiteBeadChoice.png","","","","","","","","","",""
"image-keyboard-response","105","572985","0.0-3.0-4.0-1.0-2.30","65f0bee41d562a50feaab429","6662009ae78f21dd82fcd179","6662044439f9c1be10ab0234","null","","null","","","","","","","","./tasks/HMM-beads/Images/WhiteBeadChoiceWrong.png","","","","","","","","","",""
"image-keyboard-response","106","573707","0.0-3.0-4.0-1.0-0.31","65f0bee41d562a50feaab429","6662009ae78f21dd82fcd179","6662044439f9c1be10ab0234","721","","f","","","","","","","","./tasks/HMM-beads/Images/NewTrialBC.png","practice","0","31","1","1","0","0","false","",""
"image-keyboard-response","107","574014","0.0-3.0-4.0-1.0-1.31","65f0bee41d562a50feaab429","6662009ae78f21dd82fcd179","6662044439f9c1be10ab0234","null","","null","","","","","","","","./tasks/HMM-beads/Images/BlackBeadChoice.png","","","","","","","","","",""
"image-keyboard-response","108","574527","0.0-3.0-4.0-1.0-2.31","65f0bee41d562a50feaab429","6662009ae78f21dd82fcd179","6662044439f9c1be10ab0234","null","","null","","","","","","","","./tasks/HMM-beads/Images/BlackBeadChoiceWrong.png","","","","","","","","","",""
"image-keyboard-response","109","574972","0.0-3.0-4.0-1.0-0.32","65f0bee41d562a50feaab429","6662009ae78f21dd82fcd179","6662044439f9c1be10ab0234","444","","j","","","","","","","","./tasks/HMM-beads/Images/NewTrialWC.png","practice","0","32","1","1","1","1","true","",""
"image-keyboard-response","110","575287","0.0-3.0-4.0-1.0-1.32","65f0bee41d562a50feaab429","6662009ae78f21dd82fcd179","6662044439f9c1be10ab0234","null","","null","","","","","","","","./tasks/HMM-beads/Images/WhiteBeadChoice.png","","","","","","","","","",""
"image-keyboard-response","111","575799","0.0-3.0-4.0-1.0-2.32","65f0bee41d562a50feaab429","6662009ae78f21dd82fcd179","6662044439f9c1be10ab0234","null","","null","","","","","","","","./tasks/HMM-beads/Images/WhiteBeadChoiceCorrect.png","","","","","","","","","",""
"image-keyboard-response","112","576796","0.0-3.0-4.0-1.0-0.33","65f0bee41d562a50feaab429","6662009ae78f21dd82fcd179","6662044439f9c1be10ab0234","996","","f","","","","","","","","./tasks/HMM-beads/Images/NewTrialWC.png","practice","0","33","1","1","1","0","false","",""
"image-keyboard-response","113","577110","0.0-3.0-4.0-1.0-1.33","65f0bee41d562a50feaab429","6662009ae78f21dd82fcd179","6662044439f9c1be10ab0234","null","","null","","","","","","","","./tasks/HMM-beads/Images/BlackBeadChoice.png","","","","","","","","","",""
"image-keyboard-response","114","577617","0.0-3.0-4.0-1.0-2.33","65f0bee41d562a50feaab429","6662009ae78f21dd82fcd179","6662044439f9c1be10ab0234","null","","null","","","","","","","","./tasks/HMM-beads/Images/BlackBeadChoiceWrong.png","","","","","","","","","",""
"image-keyboard-response","115","578235","0.0-3.0-4.0-1.0-0.34","65f0bee41d562a50feaab429","6662009ae78f21dd82fcd179","6662044439f9c1be10ab0234","618","","j","","","","","","","","./tasks/HMM-beads/Images/NewTrialWC.png","practice","0","34","1","1","1","1","true","",""
"image-keyboard-response","116","578543","0.0-3.0-4.0-1.0-1.34","65f0bee41d562a50feaab429","6662009ae78f21dd82fcd179","6662044439f9c1be10ab0234","null","","null","","","","","","","","./tasks/HMM-beads/Images/WhiteBeadChoice.png","","","","","","","","","",""
"image-keyboard-response","117","579054","0.0-3.0-4.0-1.0-2.34","65f0bee41d562a50feaab429","6662009ae78f21dd82fcd179","6662044439f9c1be10ab0234","null","","null","","","","","","","","./tasks/HMM-beads/Images/WhiteBeadChoiceCorrect.png","","","","","","","","","",""
"image-keyboard-response","118","580059","0.0-3.0-4.0-1.0-0.35","65f0bee41d562a50feaab429","6662009ae78f21dd82fcd179","6662044439f9c1be10ab0234","1001","","f","","","","","","","","./tasks/HMM-beads/Images/NewTrialWC.png","practice","0","35","1","1","1","0","false","",""
"image-keyboard-response","119","580366","0.0-3.0-4.0-1.0-1.35","65f0bee41d562a50feaab429","6662009ae78f21dd82fcd179","6662044439f9c1be10ab0234","null","","null","","","","","","","","./tasks/HMM-beads/Images/BlackBeadChoice.png","","","","","","","","","",""
"image-keyboard-response","120","580871","0.0-3.0-4.0-1.0-2.35","65f0bee41d562a50feaab429","6662009ae78f21dd82fcd179","6662044439f9c1be10ab0234","null","","null","","","","","","","","./tasks/HMM-beads/Images/BlackBeadChoiceWrong.png","","","","","","","","","",""
"image-keyboard-response","121","581380","0.0-3.0-4.0-1.0-0.36","65f0bee41d562a50feaab429","6662009ae78f21dd82fcd179","6662044439f9c1be10ab0234","507","","j","","","","","","","","./tasks/HMM-beads/Images/NewTrialWC.png","practice","0","36","1","0","1","1","false","",""
"image-keyboard-response","122","581691","0.0-3.0-4.0-1.0-1.36","65f0bee41d562a50feaab429","6662009ae78f21dd82fcd179","6662044439f9c1be10ab0234","null","","null","","","","","","","","./tasks/HMM-beads/Images/WhiteBeadChoice.png","","","","","","","","","",""
"image-keyboard-response","123","582198","0.0-3.0-4.0-1.0-2.36","65f0bee41d562a50feaab429","6662009ae78f21dd82fcd179","6662044439f9c1be10ab0234","null","","null","","","","","","","","./tasks/HMM-beads/Images/WhiteBeadChoiceWrong.png","","","","","","","","","",""
"image-keyboard-response","124","582692","0.0-3.0-4.0-1.0-0.37","65f0bee41d562a50feaab429","6662009ae78f21dd82fcd179","6662044439f9c1be10ab0234","492","","f","","","","","","","","./tasks/HMM-beads/Images/NewTrialBC.png","practice","0","37","1","1","0","0","false","",""
"image-keyboard-response","125","583008","0.0-3.0-4.0-1.0-1.37","65f0bee41d562a50feaab429","6662009ae78f21dd82fcd179","6662044439f9c1be10ab0234","null","","null","","","","","","","","./tasks/HMM-beads/Images/BlackBeadChoice.png","","","","","","","","","",""
"image-keyboard-response","126","583510","0.0-3.0-4.0-1.0-2.37","65f0bee41d562a50feaab429","6662009ae78f21dd82fcd179","6662044439f9c1be10ab0234","null","","null","","","","","","","","./tasks/HMM-beads/Images/BlackBeadChoiceWrong.png","","","","","","","","","",""
"image-keyboard-response","127","583964","0.0-3.0-4.0-1.0-0.38","65f0bee41d562a50feaab429","6662009ae78f21dd82fcd179","6662044439f9c1be10ab0234","453","","j","","","","","","","","./tasks/HMM-beads/Images/NewTrialWC.png","practice","0","38","1","1","1","1","true","",""
"image-keyboard-response","128","584273","0.0-3.0-4.0-1.0-1.38","65f0bee41d562a50feaab429","6662009ae78f21dd82fcd179","6662044439f9c1be10ab0234","null","","null","","","","","","","","./tasks/HMM-beads/Images/WhiteBeadChoice.png","","","","","","","","","",""
"image-keyboard-response","129","584777","0.0-3.0-4.0-1.0-2.38","65f0bee41d562a50feaab429","6662009ae78f21dd82fcd179","6662044439f9c1be10ab0234","null","","null","","","","","","","","./tasks/HMM-beads/Images/WhiteBeadChoiceCorrect.png","","","","","","","","","",""
"image-keyboard-response","130","585315","0.0-3.0-4.0-1.0-0.39","65f0bee41d562a50feaab429","6662009ae78f21dd82fcd179","6662044439f9c1be10ab0234","537","","j","","","","","","","","./tasks/HMM-beads/Images/NewTrialWC.png","practice","0","39","1","1","1","1","true","",""
"image-keyboard-response","131","585629","0.0-3.0-4.0-1.0-1.39","65f0bee41d562a50feaab429","6662009ae78f21dd82fcd179","6662044439f9c1be10ab0234","null","","null","","","","","","","","./tasks/HMM-beads/Images/WhiteBeadChoice.png","","","","","","","","","",""
"image-keyboard-response","132","586132","0.0-3.0-4.0-1.0-2.39","65f0bee41d562a50feaab429","6662009ae78f21dd82fcd179","6662044439f9c1be10ab0234","null","","null","","","","","","","","./tasks/HMM-beads/Images/WhiteBeadChoiceCorrect.png","","","","","","","","","",""
"html-keyboard-response","133","592139","0.0-3.0-4.0-2.0","65f0bee41d562a50feaab429","6662009ae78f21dd82fcd179","6662044439f9c1be10ab0234","6007",""," ","","","","","","","","","","","","","","","","","",""
"instructions","134","864598","0.0-3.0-5.0","65f0bee41d562a50feaab429","6662009ae78f21dd82fcd179","6662044439f9c1be10ab0234","272456","","","","[{""page_index"":0,""viewing_time"":248962},{""page_index"":1,""viewing_time"":23494}]","","","","","","","","","","","","","","","",""
"html-keyboard-response","135","871876","0.0-3.0-6.0-0.0","65f0bee41d562a50feaab429","6662009ae78f21dd82fcd179","6662044439f9c1be10ab0234","7278",""," ","","","","","","","","<div align=center>In this block, there will be a <b>1% chance</b> that the jar on the next trial will be different from the jar on the current trial.<br><br></div>","","","","","","","","","",""
"image-keyboard-response","136","874885","0.0-3.0-6.0-1.0-0.0","65f0bee41d562a50feaab429","6662009ae78f21dd82fcd179","6662044439f9c1be10ab0234","3008","","j","","","","","","","","./tasks/HMM-beads/Images/NoChoice.png","lowH","1","0","1","0","9","1","false","",""
"image-keyboard-response","137","875197","0.0-3.0-6.0-1.0-1.0","65f0bee41d562a50feaab429","6662009ae78f21dd82fcd179","6662044439f9c1be10ab0234","null","","null","","","","","","","","./tasks/HMM-beads/Images/WhiteBeadChoice.png","","","","","","","","","",""
"image-keyboard-response","138","875699","0.0-3.0-6.0-1.0-2.0","65f0bee41d562a50feaab429","6662009ae78f21dd82fcd179","6662044439f9c1be10ab0234","null","","null","","","","","","","","./tasks/HMM-beads/Images/WhiteBeadChoiceWrong.png","","","","","","","","","",""
"image-keyboard-response","139","876916","0.0-3.0-6.0-1.0-0.1","65f0bee41d562a50feaab429","6662009ae78f21dd82fcd179","6662044439f9c1be10ab0234","1217","","f","","","","","","","","./tasks/HMM-beads/Images/NewTrialBC.png","lowH","1","1","1","1","0","0","false","",""
"image-keyboard-response","140","877219","0.0-3.0-6.0-1.0-1.1","65f0bee41d562a50feaab429","6662009ae78f21dd82fcd179","6662044439f9c1be10ab0234","null","","null","","","","","","","","./tasks/HMM-beads/Images/BlackBeadChoice.png","","","","","","","","","",""
"image-keyboard-response","141","877735","0.0-3.0-6.0-1.0-2.1","65f0bee41d562a50feaab429","6662009ae78f21dd82fcd179","6662044439f9c1be10ab0234","null","","null","","","","","","","","./tasks/HMM-beads/Images/BlackBeadChoiceWrong.png","","","","","","","","","",""
"image-keyboard-response","142","883365","0.0-3.0-6.0-1.0-0.2","65f0bee41d562a50feaab429","6662009ae78f21dd82fcd179","6662044439f9c1be10ab0234","5628","","j","","","","","","","","./tasks/HMM-beads/Images/NewTrialWC.png","lowH","1","2","1","1","1","1","true","",""
"image-keyboard-response","143","883677","0.0-3.0-6.0-1.0-1.2","65f0bee41d562a50feaab429","6662009ae78f21dd82fcd179","6662044439f9c1be10ab0234","null","","null","","","","","","","","./tasks/HMM-beads/Images/WhiteBeadChoice.png","","","","","","","","","",""
"image-keyboard-response","144","884188","0.0-3.0-6.0-1.0-2.2","65f0bee41d562a50feaab429","6662009ae78f21dd82fcd179","6662044439f9c1be10ab0234","null","","null","","","","","","","","./tasks/HMM-beads/Images/WhiteBeadChoiceCorrect.png","","","","","","","","","",""
"image-keyboard-response","145","886276","0.0-3.0-6.0-1.0-0.3","65f0bee41d562a50feaab429","6662009ae78f21dd82fcd179","6662044439f9c1be10ab0234","2087","","j","","","","","","","","./tasks/HMM-beads/Images/NewTrialWC.png","lowH","1","3","1","1","1","1","true","",""
"image-keyboard-response","146","886589","0.0-3.0-6.0-1.0-1.3","65f0bee41d562a50feaab429","6662009ae78f21dd82fcd179","6662044439f9c1be10ab0234","null","","null","","","","","","","","./tasks/HMM-beads/Images/WhiteBeadChoice.png","","","","","","","","","",""
"image-keyboard-response","147","887106","0.0-3.0-6.0-1.0-2.3","65f0bee41d562a50feaab429","6662009ae78f21dd82fcd179","6662044439f9c1be10ab0234","null","","null","","","","","","","","./tasks/HMM-beads/Images/WhiteBeadChoiceCorrect.png","","","","","","","","","",""
"image-keyboard-response","148","888901","0.0-3.0-6.0-1.0-0.4","65f0bee41d562a50feaab429","6662009ae78f21dd82fcd179","6662044439f9c1be10ab0234","1794","","j","","","","","","","","./tasks/HMM-beads/Images/NewTrialWC.png","lowH","1","4","1","1","1","1","true","",""
"image-keyboard-response","149","889203","0.0-3.0-6.0-1.0-1.4","65f0bee41d562a50feaab429","6662009ae78f21dd82fcd179","6662044439f9c1be10ab0234","null","","null","","","","","","","","./tasks/HMM-beads/Images/WhiteBeadChoice.png","","","","","","","","","",""
"image-keyboard-response","150","889709","0.0-3.0-6.0-1.0-2.4","65f0bee41d562a50feaab429","6662009ae78f21dd82fcd179","6662044439f9c1be10ab0234","null","","null","","","","","","","","./tasks/HMM-beads/Images/WhiteBeadChoiceCorrect.png","","","","","","","","","",""
"image-keyboard-response","151","891828","0.0-3.0-6.0-1.0-0.5","65f0bee41d562a50feaab429","6662009ae78f21dd82fcd179","6662044439f9c1be10ab0234","2119","","j","","","","","","","","./tasks/HMM-beads/Images/NewTrialWC.png","lowH","1","5","1","1","1","1","true","",""
"image-keyboard-response","152","892136","0.0-3.0-6.0-1.0-1.5","65f0bee41d562a50feaab429","6662009ae78f21dd82fcd179","6662044439f9c1be10ab0234","null","","null","","","","","","","","./tasks/HMM-beads/Images/WhiteBeadChoice.png","","","","","","","","","",""
"image-keyboard-response","153","892652","0.0-3.0-6.0-1.0-2.5","65f0bee41d562a50feaab429","6662009ae78f21dd82fcd179","6662044439f9c1be10ab0234","null","","null","","","","","","","","./tasks/HMM-beads/Images/WhiteBeadChoiceCorrect.png","","","","","","","","","",""
"image-keyboard-response","154","894853","0.0-3.0-6.0-1.0-0.6","65f0bee41d562a50feaab429","6662009ae78f21dd82fcd179","6662044439f9c1be10ab0234","2200","","j","","","","","","","","./tasks/HMM-beads/Images/NewTrialWC.png","lowH","1","6","1","0","1","1","false","",""
"image-keyboard-response","155","895156","0.0-3.0-6.0-1.0-1.6","65f0bee41d562a50feaab429","6662009ae78f21dd82fcd179","6662044439f9c1be10ab0234","null","","null","","","","","","","","./tasks/HMM-beads/Images/WhiteBeadChoice.png","","","","","","","","","",""
"image-keyboard-response","156","895659","0.0-3.0-6.0-1.0-2.6","65f0bee41d562a50feaab429","6662009ae78f21dd82fcd179","6662044439f9c1be10ab0234","null","","null","","","","","","","","./tasks/HMM-beads/Images/WhiteBeadChoiceWrong.png","","","","","","","","","",""
"image-keyboard-response","157","897453","0.0-3.0-6.0-1.0-0.7","65f0bee41d562a50feaab429","6662009ae78f21dd82fcd179","6662044439f9c1be10ab0234","1793","","j","","","","","","","","./tasks/HMM-beads/Images/NewTrialBC.png","lowH","1","7","1","1","0","1","true","",""
"image-keyboard-response","158","897768","0.0-3.0-6.0-1.0-1.7","65f0bee41d562a50feaab429","6662009ae78f21dd82fcd179","6662044439f9c1be10ab0234","null","","null","","","","","","","","./tasks/HMM-beads/Images/WhiteBeadChoice.png","","","","","","","","","",""
"image-keyboard-response","159","898285","0.0-3.0-6.0-1.0-2.7","65f0bee41d562a50feaab429","6662009ae78f21dd82fcd179","6662044439f9c1be10ab0234","null","","null","","","","","","","","./tasks/HMM-beads/Images/WhiteBeadChoiceCorrect.png","","","","","","","","","",""
"image-keyboard-response","160","899980","0.0-3.0-6.0-1.0-0.8","65f0bee41d562a50feaab429","6662009ae78f21dd82fcd179","6662044439f9c1be10ab0234","1693","","j","","","","","","","","./tasks/HMM-beads/Images/NewTrialWC.png","lowH","1","8","1","1","1","1","true","",""
"image-keyboard-response","161","900282","0.0-3.0-6.0-1.0-1.8","65f0bee41d562a50feaab429","6662009ae78f21dd82fcd179","6662044439f9c1be10ab0234","null","","null","","","","","","","","./tasks/HMM-beads/Images/WhiteBeadChoice.png","","","","","","","","","",""
"image-keyboard-response","162","900793","0.0-3.0-6.0-1.0-2.8","65f0bee41d562a50feaab429","6662009ae78f21dd82fcd179","6662044439f9c1be10ab0234","null","","null","","","","","","","","./tasks/HMM-beads/Images/WhiteBeadChoiceCorrect.png","","","","","","","","","",""
"image-keyboard-response","163","903579","0.0-3.0-6.0-1.0-0.9","65f0bee41d562a50feaab429","6662009ae78f21dd82fcd179","6662044439f9c1be10ab0234","2786","","j","","","","","","","","./tasks/HMM-beads/Images/NewTrialWC.png","lowH","1","9","1","1","1","1","true","",""
"image-keyboard-response","164","903891","0.0-3.0-6.0-1.0-1.9","65f0bee41d562a50feaab429","6662009ae78f21dd82fcd179","6662044439f9c1be10ab0234","null","","null","","","","","","","","./tasks/HMM-beads/Images/WhiteBeadChoice.png","","","","","","","","","",""
"image-keyboard-response","165","904397","0.0-3.0-6.0-1.0-2.9","65f0bee41d562a50feaab429","6662009ae78f21dd82fcd179","6662044439f9c1be10ab0234","null","","null","","","","","","","","./tasks/HMM-beads/Images/WhiteBeadChoiceCorrect.png","","","","","","","","","",""
"image-keyboard-response","166","905987","0.0-3.0-6.0-1.0-0.10","65f0bee41d562a50feaab429","6662009ae78f21dd82fcd179","6662044439f9c1be10ab0234","1589","","j","","","","","","","","./tasks/HMM-beads/Images/NewTrialWC.png","lowH","1","10","1","1","1","1","true","",""
"image-keyboard-response","167","906297","0.0-3.0-6.0-1.0-1.10","65f0bee41d562a50feaab429","6662009ae78f21dd82fcd179","6662044439f9c1be10ab0234","null","","null","","","","","","","","./tasks/HMM-beads/Images/WhiteBeadChoice.png","","","","","","","","","",""
"image-keyboard-response","168","906811","0.0-3.0-6.0-1.0-2.10","65f0bee41d562a50feaab429","6662009ae78f21dd82fcd179","6662044439f9c1be10ab0234","null","","null","","","","","","","","./tasks/HMM-beads/Images/WhiteBeadChoiceCorrect.png","","","","","","","","","",""
"image-keyboard-response","169","908067","0.0-3.0-6.0-1.0-0.11","65f0bee41d562a50feaab429","6662009ae78f21dd82fcd179","6662044439f9c1be10ab0234","1255","","j","","","","","","","","./tasks/HMM-beads/Images/NewTrialWC.png","lowH","1","11","1","1","1","1","true","",""
"image-keyboard-response","170","908383","0.0-3.0-6.0-1.0-1.11","65f0bee41d562a50feaab429","6662009ae78f21dd82fcd179","6662044439f9c1be10ab0234","null","","null","","","","","","","","./tasks/HMM-beads/Images/WhiteBeadChoice.png","","","","","","","","","",""
"image-keyboard-response","171","908887","0.0-3.0-6.0-1.0-2.11","65f0bee41d562a50feaab429","6662009ae78f21dd82fcd179","6662044439f9c1be10ab0234","null","","null","","","","","","","","./tasks/HMM-beads/Images/WhiteBeadChoiceCorrect.png","","","","","","","","","",""
"image-keyboard-response","172","910154","0.0-3.0-6.0-1.0-0.12","65f0bee41d562a50feaab429","6662009ae78f21dd82fcd179","6662044439f9c1be10ab0234","1267","","j","","","","","","","","./tasks/HMM-beads/Images/NewTrialWC.png","lowH","1","12","1","1","1","1","true","",""
"image-keyboard-response","173","910473","0.0-3.0-6.0-1.0-1.12","65f0bee41d562a50feaab429","6662009ae78f21dd82fcd179","6662044439f9c1be10ab0234","null","","null","","","","","","","","./tasks/HMM-beads/Images/WhiteBeadChoice.png","","","","","","","","","",""
"image-keyboard-response","174","910978","0.0-3.0-6.0-1.0-2.12","65f0bee41d562a50feaab429","6662009ae78f21dd82fcd179","6662044439f9c1be10ab0234","null","","null","","","","","","","","./tasks/HMM-beads/Images/WhiteBeadChoiceCorrect.png","","","","","","","","","",""
"image-keyboard-response","175","912603","0.0-3.0-6.0-1.0-0.13","65f0bee41d562a50feaab429","6662009ae78f21dd82fcd179","6662044439f9c1be10ab0234","1625","","j","","","","","","","","./tasks/HMM-beads/Images/NewTrialWC.png","lowH","1","13","1","0","1","1","false","",""
"image-keyboard-response","176","912912","0.0-3.0-6.0-1.0-1.13","65f0bee41d562a50feaab429","6662009ae78f21dd82fcd179","6662044439f9c1be10ab0234","null","","null","","","","","","","","./tasks/HMM-beads/Images/WhiteBeadChoice.png","","","","","","","","","",""
"image-keyboard-response","177","913416","0.0-3.0-6.0-1.0-2.13","65f0bee41d562a50feaab429","6662009ae78f21dd82fcd179","6662044439f9c1be10ab0234","null","","null","","","","","","","","./tasks/HMM-beads/Images/WhiteBeadChoiceWrong.png","","","","","","","","","",""
"image-keyboard-response","178","917444","0.0-3.0-6.0-1.0-0.14","65f0bee41d562a50feaab429","6662009ae78f21dd82fcd179","6662044439f9c1be10ab0234","4027","","j","","","","","","","","./tasks/HMM-beads/Images/NewTrialBC.png","lowH","1","14","1","0","0","1","false","",""
"image-keyboard-response","179","917755","0.0-3.0-6.0-1.0-1.14","65f0bee41d562a50feaab429","6662009ae78f21dd82fcd179","6662044439f9c1be10ab0234","null","","null","","","","","","","","./tasks/HMM-beads/Images/WhiteBeadChoice.png","","","","","","","","","",""
"image-keyboard-response","180","918271","0.0-3.0-6.0-1.0-2.14","65f0bee41d562a50feaab429","6662009ae78f21dd82fcd179","6662044439f9c1be10ab0234","null","","null","","","","","","","","./tasks/HMM-beads/Images/WhiteBeadChoiceWrong.png","","","","","","","","","",""
"image-keyboard-response","181","922811","0.0-3.0-6.0-1.0-0.15","65f0bee41d562a50feaab429","6662009ae78f21dd82fcd179","6662044439f9c1be10ab0234","4540","","f","","","","","","","","./tasks/HMM-beads/Images/NewTrialBC.png","lowH","1","15","1","1","0","0","false","",""
"image-keyboard-response","182","923118","0.0-3.0-6.0-1.0-1.15","65f0bee41d562a50feaab429","6662009ae78f21dd82fcd179","6662044439f9c1be10ab0234","null","","null","","","","","","","","./tasks/HMM-beads/Images/BlackBeadChoice.png","","","","","","","","","",""
"image-keyboard-response","183","923634","0.0-3.0-6.0-1.0-2.15","65f0bee41d562a50feaab429","6662009ae78f21dd82fcd179","6662044439f9c1be10ab0234","null","","null","","","","","","","","./tasks/HMM-beads/Images/BlackBeadChoiceWrong.png","","","","","","","","","",""
"image-keyboard-response","184","930571","0.0-3.0-6.0-1.0-0.16","65f0bee41d562a50feaab429","6662009ae78f21dd82fcd179","6662044439f9c1be10ab0234","6937","","j","","","","","","","","./tasks/HMM-beads/Images/NewTrialWC.png","lowH","1","16","1","1","1","1","true","",""
"image-keyboard-response","185","930877","0.0-3.0-6.0-1.0-1.16","65f0bee41d562a50feaab429","6662009ae78f21dd82fcd179","6662044439f9c1be10ab0234","null","","null","","","","","","","","./tasks/HMM-beads/Images/WhiteBeadChoice.png","","","","","","","","","",""
"image-keyboard-response","186","931389","0.0-3.0-6.0-1.0-2.16","65f0bee41d562a50feaab429","6662009ae78f21dd82fcd179","6662044439f9c1be10ab0234","null","","null","","","","","","","","./tasks/HMM-beads/Images/WhiteBeadChoiceCorrect.png","","","","","","","","","",""
"image-keyboard-response","187","932355","0.0-3.0-6.0-1.0-0.17","65f0bee41d562a50feaab429","6662009ae78f21dd82fcd179","6662044439f9c1be10ab0234","965","","j","","","","","","","","./tasks/HMM-beads/Images/NewTrialWC.png","lowH","1","17","1","1","1","1","true","",""
"image-keyboard-response","188","932669","0.0-3.0-6.0-1.0-1.17","65f0bee41d562a50feaab429","6662009ae78f21dd82fcd179","6662044439f9c1be10ab0234","null","","null","","","","","","","","./tasks/HMM-beads/Images/WhiteBeadChoice.png","","","","","","","","","",""
"image-keyboard-response","189","933181","0.0-3.0-6.0-1.0-2.17","65f0bee41d562a50feaab429","6662009ae78f21dd82fcd179","6662044439f9c1be10ab0234","null","","null","","","","","","","","./tasks/HMM-beads/Images/WhiteBeadChoiceCorrect.png","","","","","","","","","",""
"image-keyboard-response","190","934331","0.0-3.0-6.0-1.0-0.18","65f0bee41d562a50feaab429","6662009ae78f21dd82fcd179","6662044439f9c1be10ab0234","1149","","j","","","","","","","","./tasks/HMM-beads/Images/NewTrialWC.png","lowH","1","18","1","1","1","1","true","",""
"image-keyboard-response","191","934642","0.0-3.0-6.0-1.0-1.18","65f0bee41d562a50feaab429","6662009ae78f21dd82fcd179","6662044439f9c1be10ab0234","null","","null","","","","","","","","./tasks/HMM-beads/Images/WhiteBeadChoice.png","","","","","","","","","",""
"image-keyboard-response","192","935154","0.0-3.0-6.0-1.0-2.18","65f0bee41d562a50feaab429","6662009ae78f21dd82fcd179","6662044439f9c1be10ab0234","null","","null","","","","","","","","./tasks/HMM-beads/Images/WhiteBeadChoiceCorrect.png","","","","","","","","","",""
"image-keyboard-response","193","936539","0.0-3.0-6.0-1.0-0.19","65f0bee41d562a50feaab429","6662009ae78f21dd82fcd179","6662044439f9c1be10ab0234","1384","","j","","","","","","","","./tasks/HMM-beads/Images/NewTrialWC.png","lowH","1","19","1","1","1","1","true","",""
"image-keyboard-response","194","936854","0.0-3.0-6.0-1.0-1.19","65f0bee41d562a50feaab429","6662009ae78f21dd82fcd179","6662044439f9c1be10ab0234","null","","null","","","","","","","","./tasks/HMM-beads/Images/WhiteBeadChoice.png","","","","","","","","","",""
"image-keyboard-response","195","937368","0.0-3.0-6.0-1.0-2.19","65f0bee41d562a50feaab429","6662009ae78f21dd82fcd179","6662044439f9c1be10ab0234","null","","null","","","","","","","","./tasks/HMM-beads/Images/WhiteBeadChoiceCorrect.png","","","","","","","","","",""
"image-keyboard-response","196","938931","0.0-3.0-6.0-1.0-0.20","65f0bee41d562a50feaab429","6662009ae78f21dd82fcd179","6662044439f9c1be10ab0234","1563","","j","","","","","","","","./tasks/HMM-beads/Images/NewTrialWC.png","lowH","1","20","1","1","1","1","true","",""
"image-keyboard-response","197","939240","0.0-3.0-6.0-1.0-1.20","65f0bee41d562a50feaab429","6662009ae78f21dd82fcd179","6662044439f9c1be10ab0234","null","","null","","","","","","","","./tasks/HMM-beads/Images/WhiteBeadChoice.png","","","","","","","","","",""
"image-keyboard-response","198","939753","0.0-3.0-6.0-1.0-2.20","65f0bee41d562a50feaab429","6662009ae78f21dd82fcd179","6662044439f9c1be10ab0234","null","","null","","","","","","","","./tasks/HMM-beads/Images/WhiteBeadChoiceCorrect.png","","","","","","","","","",""
"image-keyboard-response","199","940859","0.0-3.0-6.0-1.0-0.21","65f0bee41d562a50feaab429","6662009ae78f21dd82fcd179","6662044439f9c1be10ab0234","1105","","j","","","","","","","","./tasks/HMM-beads/Images/NewTrialWC.png","lowH","1","21","1","1","1","1","true","",""
"image-keyboard-response","200","941163","0.0-3.0-6.0-1.0-1.21","65f0bee41d562a50feaab429","6662009ae78f21dd82fcd179","6662044439f9c1be10ab0234","null","","null","","","","","","","","./tasks/HMM-beads/Images/WhiteBeadChoice.png","","","","","","","","","",""
"image-keyboard-response","201","941674","0.0-3.0-6.0-1.0-2.21","65f0bee41d562a50feaab429","6662009ae78f21dd82fcd179","6662044439f9c1be10ab0234","null","","null","","","","","","","","./tasks/HMM-beads/Images/WhiteBeadChoiceCorrect.png","","","","","","","","","",""
"image-keyboard-response","202","942715","0.0-3.0-6.0-1.0-0.22","65f0bee41d562a50feaab429","6662009ae78f21dd82fcd179","6662044439f9c1be10ab0234","1040","","j","","","","","","","","./tasks/HMM-beads/Images/NewTrialWC.png","lowH","1","22","1","1","1","1","true","",""
"image-keyboard-response","203","943022","0.0-3.0-6.0-1.0-1.22","65f0bee41d562a50feaab429","6662009ae78f21dd82fcd179","6662044439f9c1be10ab0234","null","","null","","","","","","","","./tasks/HMM-beads/Images/WhiteBeadChoice.png","","","","","","","","","",""
"image-keyboard-response","204","943530","0.0-3.0-6.0-1.0-2.22","65f0bee41d562a50feaab429","6662009ae78f21dd82fcd179","6662044439f9c1be10ab0234","null","","null","","","","","","","","./tasks/HMM-beads/Images/WhiteBeadChoiceCorrect.png","","","","","","","","","",""
"image-keyboard-response","205","944363","0.0-3.0-6.0-1.0-0.23","65f0bee41d562a50feaab429","6662009ae78f21dd82fcd179","6662044439f9c1be10ab0234","831","","j","","","","","","","","./tasks/HMM-beads/Images/NewTrialWC.png","lowH","1","23","1","1","1","1","true","",""
"image-keyboard-response","206","944677","0.0-3.0-6.0-1.0-1.23","65f0bee41d562a50feaab429","6662009ae78f21dd82fcd179","6662044439f9c1be10ab0234","null","","null","","","","","","","","./tasks/HMM-beads/Images/WhiteBeadChoice.png","","","","","","","","","",""
"image-keyboard-response","207","945180","0.0-3.0-6.0-1.0-2.23","65f0bee41d562a50feaab429","6662009ae78f21dd82fcd179","6662044439f9c1be10ab0234","null","","null","","","","","","","","./tasks/HMM-beads/Images/WhiteBeadChoiceCorrect.png","","","","","","","","","",""
"image-keyboard-response","208","946291","0.0-3.0-6.0-1.0-0.24","65f0bee41d562a50feaab429","6662009ae78f21dd82fcd179","6662044439f9c1be10ab0234","1111","","j","","","","","","","","./tasks/HMM-beads/Images/NewTrialWC.png","lowH","1","24","1","0","1","1","false","",""
"image-keyboard-response","209","946604","0.0-3.0-6.0-1.0-1.24","65f0bee41d562a50feaab429","6662009ae78f21dd82fcd179","6662044439f9c1be10ab0234","null","","null","","","","","","","","./tasks/HMM-beads/Images/WhiteBeadChoice.png","","","","","","","","","",""
"image-keyboard-response","210","947118","0.0-3.0-6.0-1.0-2.24","65f0bee41d562a50feaab429","6662009ae78f21dd82fcd179","6662044439f9c1be10ab0234","null","","null","","","","","","","","./tasks/HMM-beads/Images/WhiteBeadChoiceWrong.png","","","","","","","","","",""
"image-keyboard-response","211","951867","0.0-3.0-6.0-1.0-0.25","65f0bee41d562a50feaab429","6662009ae78f21dd82fcd179","6662044439f9c1be10ab0234","4748","","f","","","","","","","","./tasks/HMM-beads/Images/NewTrialBC.png","lowH","1","25","1","1","0","0","false","",""
"image-keyboard-response","212","952172","0.0-3.0-6.0-1.0-1.25","65f0bee41d562a50feaab429","6662009ae78f21dd82fcd179","6662044439f9c1be10ab0234","null","","null","","","","","","","","./tasks/HMM-beads/Images/BlackBeadChoice.png","","","","","","","","","",""
"image-keyboard-response","213","952677","0.0-3.0-6.0-1.0-2.25","65f0bee41d562a50feaab429","6662009ae78f21dd82fcd179","6662044439f9c1be10ab0234","null","","null","","","","","","","","./tasks/HMM-beads/Images/BlackBeadChoiceWrong.png","","","","","","","","","",""
"image-keyboard-response","214","955899","0.0-3.0-6.0-1.0-0.26","65f0bee41d562a50feaab429","6662009ae78f21dd82fcd179","6662044439f9c1be10ab0234","3221","","j","","","","","","","","./tasks/HMM-beads/Images/NewTrialWC.png","lowH","1","26","1","0","1","1","false","",""
"image-keyboard-response","215","956204","0.0-3.0-6.0-1.0-1.26","65f0bee41d562a50feaab429","6662009ae78f21dd82fcd179","6662044439f9c1be10ab0234","null","","null","","","","","","","","./tasks/HMM-beads/Images/WhiteBeadChoice.png","","","","","","","","","",""
"image-keyboard-response","216","956709","0.0-3.0-6.0-1.0-2.26","65f0bee41d562a50feaab429","6662009ae78f21dd82fcd179","6662044439f9c1be10ab0234","null","","null","","","","","","","","./tasks/HMM-beads/Images/WhiteBeadChoiceWrong.png","","","","","","","","","",""
"image-keyboard-response","217","960221","0.0-3.0-6.0-1.0-0.27","65f0bee41d562a50feaab429","6662009ae78f21dd82fcd179","6662044439f9c1be10ab0234","3510","","f","","","","","","","","./tasks/HMM-beads/Images/NewTrialBC.png","lowH","1","27","1","1","0","0","false","",""
"image-keyboard-response","218","960531","0.0-3.0-6.0-1.0-1.27","65f0bee41d562a50feaab429","6662009ae78f21dd82fcd179","6662044439f9c1be10ab0234","null","","null","","","","","","","","./tasks/HMM-beads/Images/BlackBeadChoice.png","","","","","","","","","",""
"image-keyboard-response","219","961037","0.0-3.0-6.0-1.0-2.27","65f0bee41d562a50feaab429","6662009ae78f21dd82fcd179","6662044439f9c1be10ab0234","null","","null","","","","","","","","./tasks/HMM-beads/Images/BlackBeadChoiceWrong.png","","","","","","","","","",""
"image-keyboard-response","220","963365","0.0-3.0-6.0-1.0-0.28","65f0bee41d562a50feaab429","6662009ae78f21dd82fcd179","6662044439f9c1be10ab0234","2328","","j","","","","","","","","./tasks/HMM-beads/Images/NewTrialWC.png","lowH","1","28","1","1","1","1","true","",""
"image-keyboard-response","221","963679","0.0-3.0-6.0-1.0-1.28","65f0bee41d562a50feaab429","6662009ae78f21dd82fcd179","6662044439f9c1be10ab0234","null","","null","","","","","","","","./tasks/HMM-beads/Images/WhiteBeadChoice.png","","","","","","","","","",""
"image-keyboard-response","222","964183","0.0-3.0-6.0-1.0-2.28","65f0bee41d562a50feaab429","6662009ae78f21dd82fcd179","6662044439f9c1be10ab0234","null","","null","","","","","","","","./tasks/HMM-beads/Images/WhiteBeadChoiceCorrect.png","","","","","","","","","",""
"image-keyboard-response","223","965269","0.0-3.0-6.0-1.0-0.29","65f0bee41d562a50feaab429","6662009ae78f21dd82fcd179","6662044439f9c1be10ab0234","1085","","j","","","","","","","","./tasks/HMM-beads/Images/NewTrialWC.png","lowH","1","29","1","1","1","1","true","",""
"image-keyboard-response","224","965578","0.0-3.0-6.0-1.0-1.29","65f0bee41d562a50feaab429","6662009ae78f21dd82fcd179","6662044439f9c1be10ab0234","null","","null","","","","","","","","./tasks/HMM-beads/Images/WhiteBeadChoice.png","","","","","","","","","",""
"image-keyboard-response","225","966097","0.0-3.0-6.0-1.0-2.29","65f0bee41d562a50feaab429","6662009ae78f21dd82fcd179","6662044439f9c1be10ab0234","null","","null","","","","","","","","./tasks/HMM-beads/Images/WhiteBeadChoiceCorrect.png","","","","","","","","","",""
"image-keyboard-response","226","967093","0.0-3.0-6.0-1.0-0.30","65f0bee41d562a50feaab429","6662009ae78f21dd82fcd179","6662044439f9c1be10ab0234","996","","j","","","","","","","","./tasks/HMM-beads/Images/NewTrialWC.png","lowH","1","30","1","1","1","1","true","",""
"image-keyboard-response","227","967399","0.0-3.0-6.0-1.0-1.30","65f0bee41d562a50feaab429","6662009ae78f21dd82fcd179","6662044439f9c1be10ab0234","null","","null","","","","","","","","./tasks/HMM-beads/Images/WhiteBeadChoice.png","","","","","","","","","",""
"image-keyboard-response","228","967912","0.0-3.0-6.0-1.0-2.30","65f0bee41d562a50feaab429","6662009ae78f21dd82fcd179","6662044439f9c1be10ab0234","null","","null","","","","","","","","./tasks/HMM-beads/Images/WhiteBeadChoiceCorrect.png","","","","","","","","","",""
"image-keyboard-response","229","968597","0.0-3.0-6.0-1.0-0.31","65f0bee41d562a50feaab429","6662009ae78f21dd82fcd179","6662044439f9c1be10ab0234","684","","j","","","","","","","","./tasks/HMM-beads/Images/NewTrialWC.png","lowH","1","31","1","1","1","1","true","",""
"image-keyboard-response","230","968905","0.0-3.0-6.0-1.0-1.31","65f0bee41d562a50feaab429","6662009ae78f21dd82fcd179","6662044439f9c1be10ab0234","null","","null","","","","","","","","./tasks/HMM-beads/Images/WhiteBeadChoice.png","","","","","","","","","",""
"image-keyboard-response","231","969411","0.0-3.0-6.0-1.0-2.31","65f0bee41d562a50feaab429","6662009ae78f21dd82fcd179","6662044439f9c1be10ab0234","null","","null","","","","","","","","./tasks/HMM-beads/Images/WhiteBeadChoiceCorrect.png","","","","","","","","","",""
"image-keyboard-response","232","970077","0.0-3.0-6.0-1.0-0.32","65f0bee41d562a50feaab429","6662009ae78f21dd82fcd179","6662044439f9c1be10ab0234","665","","j","","","","","","","","./tasks/HMM-beads/Images/NewTrialWC.png","lowH","1","32","1","1","1","1","true","",""
"image-keyboard-response","233","970387","0.0-3.0-6.0-1.0-1.32","65f0bee41d562a50feaab429","6662009ae78f21dd82fcd179","6662044439f9c1be10ab0234","null","","null","","","","","","","","./tasks/HMM-beads/Images/WhiteBeadChoice.png","","","","","","","","","",""
"image-keyboard-response","234","970889","0.0-3.0-6.0-1.0-2.32","65f0bee41d562a50feaab429","6662009ae78f21dd82fcd179","6662044439f9c1be10ab0234","null","","null","","","","","","","","./tasks/HMM-beads/Images/WhiteBeadChoiceCorrect.png","","","","","","","","","",""
"image-keyboard-response","235","971445","0.0-3.0-6.0-1.0-0.33","65f0bee41d562a50feaab429","6662009ae78f21dd82fcd179","6662044439f9c1be10ab0234","556","","j","","","","","","","","./tasks/HMM-beads/Images/NewTrialWC.png","lowH","1","33","1","1","1","1","true","",""
"image-keyboard-response","236","971750","0.0-3.0-6.0-1.0-1.33","65f0bee41d562a50feaab429","6662009ae78f21dd82fcd179","6662044439f9c1be10ab0234","null","","null","","","","","","","","./tasks/HMM-beads/Images/WhiteBeadChoice.png","","","","","","","","","",""
"image-keyboard-response","237","972266","0.0-3.0-6.0-1.0-2.33","65f0bee41d562a50feaab429","6662009ae78f21dd82fcd179","6662044439f9c1be10ab0234","null","","null","","","","","","","","./tasks/HMM-beads/Images/WhiteBeadChoiceCorrect.png","","","","","","","","","",""
"image-keyboard-response","238","972757","0.0-3.0-6.0-1.0-0.34","65f0bee41d562a50feaab429","6662009ae78f21dd82fcd179","6662044439f9c1be10ab0234","487","","j","","","","","","","","./tasks/HMM-beads/Images/NewTrialWC.png","lowH","1","34","1","1","1","1","true","",""
"image-keyboard-response","239","973064","0.0-3.0-6.0-1.0-1.34","65f0bee41d562a50feaab429","6662009ae78f21dd82fcd179","6662044439f9c1be10ab0234","null","","null","","","","","","","","./tasks/HMM-beads/Images/WhiteBeadChoice.png","","","","","","","","","",""
"image-keyboard-response","240","973576","0.0-3.0-6.0-1.0-2.34","65f0bee41d562a50feaab429","6662009ae78f21dd82fcd179","6662044439f9c1be10ab0234","null","","null","","","","","","","","./tasks/HMM-beads/Images/WhiteBeadChoiceCorrect.png","","","","","","","","","",""
"image-keyboard-response","241","974173","0.0-3.0-6.0-1.0-0.35","65f0bee41d562a50feaab429","6662009ae78f21dd82fcd179","6662044439f9c1be10ab0234","596","","j","","","","","","","","./tasks/HMM-beads/Images/NewTrialWC.png","lowH","1","35","1","1","1","1","true","",""
"image-keyboard-response","242","974486","0.0-3.0-6.0-1.0-1.35","65f0bee41d562a50feaab429","6662009ae78f21dd82fcd179","6662044439f9c1be10ab0234","null","","null","","","","","","","","./tasks/HMM-beads/Images/WhiteBeadChoice.png","","","","","","","","","",""
"image-keyboard-response","243","974993","0.0-3.0-6.0-1.0-2.35","65f0bee41d562a50feaab429","6662009ae78f21dd82fcd179","6662044439f9c1be10ab0234","null","","null","","","","","","","","./tasks/HMM-beads/Images/WhiteBeadChoiceCorrect.png","","","","","","","","","",""
"image-keyboard-response","244","981429","0.0-3.0-6.0-1.0-0.36","65f0bee41d562a50feaab429","6662009ae78f21dd82fcd179","6662044439f9c1be10ab0234","6435","","f","","","","","","","","./tasks/HMM-beads/Images/NewTrialWC.png","lowH","1","36","1","1","1","0","false","",""
"image-keyboard-response","245","981734","0.0-3.0-6.0-1.0-1.36","65f0bee41d562a50feaab429","6662009ae78f21dd82fcd179","6662044439f9c1be10ab0234","null","","null","","","","","","","","./tasks/HMM-beads/Images/BlackBeadChoice.png","","","","","","","","","",""
"image-keyboard-response","246","982235","0.0-3.0-6.0-1.0-2.36","65f0bee41d562a50feaab429","6662009ae78f21dd82fcd179","6662044439f9c1be10ab0234","null","","null","","","","","","","","./tasks/HMM-beads/Images/BlackBeadChoiceWrong.png","","","","","","","","","",""
"image-keyboard-response","247","985213","0.0-3.0-6.0-1.0-0.37","65f0bee41d562a50feaab429","6662009ae78f21dd82fcd179","6662044439f9c1be10ab0234","2977","","f","","","","","","","","./tasks/HMM-beads/Images/NewTrialWC.png","lowH","1","37","1","1","1","0","false","",""
"image-keyboard-response","248","985527","0.0-3.0-6.0-1.0-1.37","65f0bee41d562a50feaab429","6662009ae78f21dd82fcd179","6662044439f9c1be10ab0234","null","","null","","","","","","","","./tasks/HMM-beads/Images/BlackBeadChoice.png","","","","","","","","","",""
"image-keyboard-response","249","986039","0.0-3.0-6.0-1.0-2.37","65f0bee41d562a50feaab429","6662009ae78f21dd82fcd179","6662044439f9c1be10ab0234","null","","null","","","","","","","","./tasks/HMM-beads/Images/BlackBeadChoiceWrong.png","","","","","","","","","",""
"image-keyboard-response","250","986933","0.0-3.0-6.0-1.0-0.38","65f0bee41d562a50feaab429","6662009ae78f21dd82fcd179","6662044439f9c1be10ab0234","893","","j","","","","","","","","./tasks/HMM-beads/Images/NewTrialWC.png","lowH","1","38","1","1","1","1","true","",""
"image-keyboard-response","251","987249","0.0-3.0-6.0-1.0-1.38","65f0bee41d562a50feaab429","6662009ae78f21dd82fcd179","6662044439f9c1be10ab0234","null","","null","","","","","","","","./tasks/HMM-beads/Images/WhiteBeadChoice.png","","","","","","","","","",""
"image-keyboard-response","252","987761","0.0-3.0-6.0-1.0-2.38","65f0bee41d562a50feaab429","6662009ae78f21dd82fcd179","6662044439f9c1be10ab0234","null","","null","","","","","","","","./tasks/HMM-beads/Images/WhiteBeadChoiceCorrect.png","","","","","","","","","",""
"image-keyboard-response","253","992501","0.0-3.0-6.0-1.0-0.39","65f0bee41d562a50feaab429","6662009ae78f21dd82fcd179","6662044439f9c1be10ab0234","4739","","j","","","","","","","","./tasks/HMM-beads/Images/NewTrialWC.png","lowH","1","39","1","1","1","1","true","",""
"image-keyboard-response","254","992803","0.0-3.0-6.0-1.0-1.39","65f0bee41d562a50feaab429","6662009ae78f21dd82fcd179","6662044439f9c1be10ab0234","null","","null","","","","","","","","./tasks/HMM-beads/Images/WhiteBeadChoice.png","","","","","","","","","",""
"image-keyboard-response","255","993307","0.0-3.0-6.0-1.0-2.39","65f0bee41d562a50feaab429","6662009ae78f21dd82fcd179","6662044439f9c1be10ab0234","null","","null","","","","","","","","./tasks/HMM-beads/Images/WhiteBeadChoiceCorrect.png","","","","","","","","","",""
"image-keyboard-response","256","993876","0.0-3.0-6.0-1.0-0.40","65f0bee41d562a50feaab429","6662009ae78f21dd82fcd179","6662044439f9c1be10ab0234","568","","j","","","","","","","","./tasks/HMM-beads/Images/NewTrialWC.png","lowH","1","40","1","1","1","1","true","",""
"image-keyboard-response","257","994181","0.0-3.0-6.0-1.0-1.40","65f0bee41d562a50feaab429","6662009ae78f21dd82fcd179","6662044439f9c1be10ab0234","null","","null","","","","","","","","./tasks/HMM-beads/Images/WhiteBeadChoice.png","","","","","","","","","",""
"image-keyboard-response","258","994692","0.0-3.0-6.0-1.0-2.40","65f0bee41d562a50feaab429","6662009ae78f21dd82fcd179","6662044439f9c1be10ab0234","null","","null","","","","","","","","./tasks/HMM-beads/Images/WhiteBeadChoiceCorrect.png","","","","","","","","","",""
"image-keyboard-response","259","997341","0.0-3.0-6.0-1.0-0.41","65f0bee41d562a50feaab429","6662009ae78f21dd82fcd179","6662044439f9c1be10ab0234","2648","","j","","","","","","","","./tasks/HMM-beads/Images/NewTrialWC.png","lowH","1","41","1","1","1","1","true","",""
"image-keyboard-response","260","997652","0.0-3.0-6.0-1.0-1.41","65f0bee41d562a50feaab429","6662009ae78f21dd82fcd179","6662044439f9c1be10ab0234","null","","null","","","","","","","","./tasks/HMM-beads/Images/WhiteBeadChoice.png","","","","","","","","","",""
"image-keyboard-response","261","998161","0.0-3.0-6.0-1.0-2.41","65f0bee41d562a50feaab429","6662009ae78f21dd82fcd179","6662044439f9c1be10ab0234","null","","null","","","","","","","","./tasks/HMM-beads/Images/WhiteBeadChoiceCorrect.png","","","","","","","","","",""
"image-keyboard-response","262","999109","0.0-3.0-6.0-1.0-0.42","65f0bee41d562a50feaab429","6662009ae78f21dd82fcd179","6662044439f9c1be10ab0234","946","","j","","","","","","","","./tasks/HMM-beads/Images/NewTrialWC.png","lowH","1","42","1","1","1","1","true","",""
"image-keyboard-response","263","999416","0.0-3.0-6.0-1.0-1.42","65f0bee41d562a50feaab429","6662009ae78f21dd82fcd179","6662044439f9c1be10ab0234","null","","null","","","","","","","","./tasks/HMM-beads/Images/WhiteBeadChoice.png","","","","","","","","","",""
"image-keyboard-response","264","999928","0.0-3.0-6.0-1.0-2.42","65f0bee41d562a50feaab429","6662009ae78f21dd82fcd179","6662044439f9c1be10ab0234","null","","null","","","","","","","","./tasks/HMM-beads/Images/WhiteBeadChoiceCorrect.png","","","","","","","","","",""
"image-keyboard-response","265","1000971","0.0-3.0-6.0-1.0-0.43","65f0bee41d562a50feaab429","6662009ae78f21dd82fcd179","6662044439f9c1be10ab0234","1042","","j","","","","","","","","./tasks/HMM-beads/Images/NewTrialWC.png","lowH","1","43","1","1","1","1","true","",""
"image-keyboard-response","266","1001287","0.0-3.0-6.0-1.0-1.43","65f0bee41d562a50feaab429","6662009ae78f21dd82fcd179","6662044439f9c1be10ab0234","null","","null","","","","","","","","./tasks/HMM-beads/Images/WhiteBeadChoice.png","","","","","","","","","",""
"image-keyboard-response","267","1001798","0.0-3.0-6.0-1.0-2.43","65f0bee41d562a50feaab429","6662009ae78f21dd82fcd179","6662044439f9c1be10ab0234","null","","null","","","","","","","","./tasks/HMM-beads/Images/WhiteBeadChoiceCorrect.png","","","","","","","","","",""
"image-keyboard-response","268","1003948","0.0-3.0-6.0-1.0-0.44","65f0bee41d562a50feaab429","6662009ae78f21dd82fcd179","6662044439f9c1be10ab0234","2150","","j","","","","","","","","./tasks/HMM-beads/Images/NewTrialWC.png","lowH","1","44","1","1","1","1","true","",""
"image-keyboard-response","269","1004264","0.0-3.0-6.0-1.0-1.44","65f0bee41d562a50feaab429","6662009ae78f21dd82fcd179","6662044439f9c1be10ab0234","null","","null","","","","","","","","./tasks/HMM-beads/Images/WhiteBeadChoice.png","","","","","","","","","",""
"image-keyboard-response","270","1004770","0.0-3.0-6.0-1.0-2.44","65f0bee41d562a50feaab429","6662009ae78f21dd82fcd179","6662044439f9c1be10ab0234","null","","null","","","","","","","","./tasks/HMM-beads/Images/WhiteBeadChoiceCorrect.png","","","","","","","","","",""
"image-keyboard-response","271","1006315","0.0-3.0-6.0-1.0-0.45","65f0bee41d562a50feaab429","6662009ae78f21dd82fcd179","6662044439f9c1be10ab0234","1544","","j","","","","","","","","./tasks/HMM-beads/Images/NewTrialWC.png","lowH","1","45","1","1","1","1","true","",""
"image-keyboard-response","272","1006628","0.0-3.0-6.0-1.0-1.45","65f0bee41d562a50feaab429","6662009ae78f21dd82fcd179","6662044439f9c1be10ab0234","null","","null","","","","","","","","./tasks/HMM-beads/Images/WhiteBeadChoice.png","","","","","","","","","",""
"image-keyboard-response","273","1007130","0.0-3.0-6.0-1.0-2.45","65f0bee41d562a50feaab429","6662009ae78f21dd82fcd179","6662044439f9c1be10ab0234","null","","null","","","","","","","","./tasks/HMM-beads/Images/WhiteBeadChoiceCorrect.png","","","","","","","","","",""
"image-keyboard-response","274","1009461","0.0-3.0-6.0-1.0-0.46","65f0bee41d562a50feaab429","6662009ae78f21dd82fcd179","6662044439f9c1be10ab0234","2330","","j","","","","","","","","./tasks/HMM-beads/Images/NewTrialWC.png","lowH","1","46","1","1","1","1","true","",""
"image-keyboard-response","275","1009768","0.0-3.0-6.0-1.0-1.46","65f0bee41d562a50feaab429","6662009ae78f21dd82fcd179","6662044439f9c1be10ab0234","null","","null","","","","","","","","./tasks/HMM-beads/Images/WhiteBeadChoice.png","","","","","","","","","",""
"image-keyboard-response","276","1010272","0.0-3.0-6.0-1.0-2.46","65f0bee41d562a50feaab429","6662009ae78f21dd82fcd179","6662044439f9c1be10ab0234","null","","null","","","","","","","","./tasks/HMM-beads/Images/WhiteBeadChoiceCorrect.png","","","","","","","","","",""
"image-keyboard-response","277","1011077","0.0-3.0-6.0-1.0-0.47","65f0bee41d562a50feaab429","6662009ae78f21dd82fcd179","6662044439f9c1be10ab0234","801","","j","","","","","","","","./tasks/HMM-beads/Images/NewTrialWC.png","lowH","1","47","1","0","1","1","false","",""
"image-keyboard-response","278","1011381","0.0-3.0-6.0-1.0-1.47","65f0bee41d562a50feaab429","6662009ae78f21dd82fcd179","6662044439f9c1be10ab0234","null","","null","","","","","","","","./tasks/HMM-beads/Images/WhiteBeadChoice.png","","","","","","","","","",""
"image-keyboard-response","279","1011887","0.0-3.0-6.0-1.0-2.47","65f0bee41d562a50feaab429","6662009ae78f21dd82fcd179","6662044439f9c1be10ab0234","null","","null","","","","","","","","./tasks/HMM-beads/Images/WhiteBeadChoiceWrong.png","","","","","","","","","",""
"image-keyboard-response","280","1019709","0.0-3.0-6.0-1.0-0.48","65f0bee41d562a50feaab429","6662009ae78f21dd82fcd179","6662044439f9c1be10ab0234","7821","","j","","","","","","","","./tasks/HMM-beads/Images/NewTrialBC.png","lowH","1","48","1","0","0","1","false","",""
"image-keyboard-response","281","1020016","0.0-3.0-6.0-1.0-1.48","65f0bee41d562a50feaab429","6662009ae78f21dd82fcd179","6662044439f9c1be10ab0234","null","","null","","","","","","","","./tasks/HMM-beads/Images/WhiteBeadChoice.png","","","","","","","","","",""
"image-keyboard-response","282","1020527","0.0-3.0-6.0-1.0-2.48","65f0bee41d562a50feaab429","6662009ae78f21dd82fcd179","6662044439f9c1be10ab0234","null","","null","","","","","","","","./tasks/HMM-beads/Images/WhiteBeadChoiceWrong.png","","","","","","","","","",""
"image-keyboard-response","283","1021533","0.0-3.0-6.0-1.0-0.49","65f0bee41d562a50feaab429","6662009ae78f21dd82fcd179","6662044439f9c1be10ab0234","1005","","j","","","","","","","","./tasks/HMM-beads/Images/NewTrialBC.png","lowH","1","49","1","0","0","1","false","",""
"image-keyboard-response","284","1021834","0.0-3.0-6.0-1.0-1.49","65f0bee41d562a50feaab429","6662009ae78f21dd82fcd179","6662044439f9c1be10ab0234","null","","null","","","","","","","","./tasks/HMM-beads/Images/WhiteBeadChoice.png","","","","","","","","","",""
"image-keyboard-response","285","1022338","0.0-3.0-6.0-1.0-2.49","65f0bee41d562a50feaab429","6662009ae78f21dd82fcd179","6662044439f9c1be10ab0234","null","","null","","","","","","","","./tasks/HMM-beads/Images/WhiteBeadChoiceWrong.png","","","","","","","","","",""
"image-keyboard-response","286","1022877","0.0-3.0-6.0-1.0-0.50","65f0bee41d562a50feaab429","6662009ae78f21dd82fcd179","6662044439f9c1be10ab0234","537","","f","","","","","","","","./tasks/HMM-beads/Images/NewTrialBC.png","lowH","1","50","1","1","0","0","false","",""
"image-keyboard-response","287","1023182","0.0-3.0-6.0-1.0-1.50","65f0bee41d562a50feaab429","6662009ae78f21dd82fcd179","6662044439f9c1be10ab0234","null","","null","","","","","","","","./tasks/HMM-beads/Images/BlackBeadChoice.png","","","","","","","","","",""
"image-keyboard-response","288","1023688","0.0-3.0-6.0-1.0-2.50","65f0bee41d562a50feaab429","6662009ae78f21dd82fcd179","6662044439f9c1be10ab0234","null","","null","","","","","","","","./tasks/HMM-beads/Images/BlackBeadChoiceWrong.png","","","","","","","","","",""
"image-keyboard-response","289","1025404","0.0-3.0-6.0-1.0-0.51","65f0bee41d562a50feaab429","6662009ae78f21dd82fcd179","6662044439f9c1be10ab0234","1716","","j","","","","","","","","./tasks/HMM-beads/Images/NewTrialWC.png","lowH","1","51","1","1","1","1","true","",""
"image-keyboard-response","290","1025719","0.0-3.0-6.0-1.0-1.51","65f0bee41d562a50feaab429","6662009ae78f21dd82fcd179","6662044439f9c1be10ab0234","null","","null","","","","","","","","./tasks/HMM-beads/Images/WhiteBeadChoice.png","","","","","","","","","",""
"image-keyboard-response","291","1026222","0.0-3.0-6.0-1.0-2.51","65f0bee41d562a50feaab429","6662009ae78f21dd82fcd179","6662044439f9c1be10ab0234","null","","null","","","","","","","","./tasks/HMM-beads/Images/WhiteBeadChoiceCorrect.png","","","","","","","","","",""
"image-keyboard-response","292","1026508","0.0-3.0-6.0-1.0-0.52","65f0bee41d562a50feaab429","6662009ae78f21dd82fcd179","6662044439f9c1be10ab0234","285","","j","","","","","","","","./tasks/HMM-beads/Images/NewTrialWC.png","lowH","1","52","1","1","1","1","true","",""
"image-keyboard-response","293","1026820","0.0-3.0-6.0-1.0-1.52","65f0bee41d562a50feaab429","6662009ae78f21dd82fcd179","6662044439f9c1be10ab0234","null","","null","","","","","","","","./tasks/HMM-beads/Images/WhiteBeadChoice.png","","","","","","","","","",""
"image-keyboard-response","294","1027331","0.0-3.0-6.0-1.0-2.52","65f0bee41d562a50feaab429","6662009ae78f21dd82fcd179","6662044439f9c1be10ab0234","null","","null","","","","","","","","./tasks/HMM-beads/Images/WhiteBeadChoiceCorrect.png","","","","","","","","","",""
"image-keyboard-response","295","1027877","0.0-3.0-6.0-1.0-0.53","65f0bee41d562a50feaab429","6662009ae78f21dd82fcd179","6662044439f9c1be10ab0234","544","","j","","","","","","","","./tasks/HMM-beads/Images/NewTrialWC.png","lowH","1","53","1","1","1","1","true","",""
"image-keyboard-response","296","1028187","0.0-3.0-6.0-1.0-1.53","65f0bee41d562a50feaab429","6662009ae78f21dd82fcd179","6662044439f9c1be10ab0234","null","","null","","","","","","","","./tasks/HMM-beads/Images/WhiteBeadChoice.png","","","","","","","","","",""
"image-keyboard-response","297","1028692","0.0-3.0-6.0-1.0-2.53","65f0bee41d562a50feaab429","6662009ae78f21dd82fcd179","6662044439f9c1be10ab0234","null","","null","","","","","","","","./tasks/HMM-beads/Images/WhiteBeadChoiceCorrect.png","","","","","","","","","",""
"image-keyboard-response","298","1028980","0.0-3.0-6.0-1.0-0.54","65f0bee41d562a50feaab429","6662009ae78f21dd82fcd179","6662044439f9c1be10ab0234","287","","j","","","","","","","","./tasks/HMM-beads/Images/NewTrialWC.png","lowH","1","54","1","1","1","1","true","",""
"image-keyboard-response","299","1029295","0.0-3.0-6.0-1.0-1.54","65f0bee41d562a50feaab429","6662009ae78f21dd82fcd179","6662044439f9c1be10ab0234","null","","null","","","","","","","","./tasks/HMM-beads/Images/WhiteBeadChoice.png","","","","","","","","","",""
"image-keyboard-response","300","1029809","0.0-3.0-6.0-1.0-2.54","65f0bee41d562a50feaab429","6662009ae78f21dd82fcd179","6662044439f9c1be10ab0234","null","","null","","","","","","","","./tasks/HMM-beads/Images/WhiteBeadChoiceCorrect.png","","","","","","","","","",""
"image-keyboard-response","301","1029939","0.0-3.0-6.0-1.0-0.55","65f0bee41d562a50feaab429","6662009ae78f21dd82fcd179","6662044439f9c1be10ab0234","130","","j","","","","","","","","./tasks/HMM-beads/Images/NewTrialWC.png","lowH","1","55","1","1","1","1","true","",""
"image-keyboard-response","302","1030251","0.0-3.0-6.0-1.0-1.55","65f0bee41d562a50feaab429","6662009ae78f21dd82fcd179","6662044439f9c1be10ab0234","null","","null","","","","","","","","./tasks/HMM-beads/Images/WhiteBeadChoice.png","","","","","","","","","",""
"image-keyboard-response","303","1030764","0.0-3.0-6.0-1.0-2.55","65f0bee41d562a50feaab429","6662009ae78f21dd82fcd179","6662044439f9c1be10ab0234","null","","null","","","","","","","","./tasks/HMM-beads/Images/WhiteBeadChoiceCorrect.png","","","","","","","","","",""
"image-keyboard-response","304","1030980","0.0-3.0-6.0-1.0-0.56","65f0bee41d562a50feaab429","6662009ae78f21dd82fcd179","6662044439f9c1be10ab0234","215","","j","","","","","","","","./tasks/HMM-beads/Images/NewTrialWC.png","lowH","1","56","1","1","1","1","true","",""
"image-keyboard-response","305","1031285","0.0-3.0-6.0-1.0-1.56","65f0bee41d562a50feaab429","6662009ae78f21dd82fcd179","6662044439f9c1be10ab0234","null","","null","","","","","","","","./tasks/HMM-beads/Images/WhiteBeadChoice.png","","","","","","","","","",""
"image-keyboard-response","306","1031789","0.0-3.0-6.0-1.0-2.56","65f0bee41d562a50feaab429","6662009ae78f21dd82fcd179","6662044439f9c1be10ab0234","null","","null","","","","","","","","./tasks/HMM-beads/Images/WhiteBeadChoiceCorrect.png","","","","","","","","","",""
"image-keyboard-response","307","1031949","0.0-3.0-6.0-1.0-0.57","65f0bee41d562a50feaab429","6662009ae78f21dd82fcd179","6662044439f9c1be10ab0234","158","","j","","","","","","","","./tasks/HMM-beads/Images/NewTrialWC.png","lowH","1","57","1","1","1","1","true","",""
"image-keyboard-response","308","1032261","0.0-3.0-6.0-1.0-1.57","65f0bee41d562a50feaab429","6662009ae78f21dd82fcd179","6662044439f9c1be10ab0234","null","","null","","","","","","","","./tasks/HMM-beads/Images/WhiteBeadChoice.png","","","","","","","","","",""
"image-keyboard-response","309","1032762","0.0-3.0-6.0-1.0-2.57","65f0bee41d562a50feaab429","6662009ae78f21dd82fcd179","6662044439f9c1be10ab0234","null","","null","","","","","","","","./tasks/HMM-beads/Images/WhiteBeadChoiceCorrect.png","","","","","","","","","",""
"image-keyboard-response","310","1033093","0.0-3.0-6.0-1.0-0.58","65f0bee41d562a50feaab429","6662009ae78f21dd82fcd179","6662044439f9c1be10ab0234","330","","j","","","","","","","","./tasks/HMM-beads/Images/NewTrialWC.png","lowH","1","58","1","1","1","1","true","",""
"image-keyboard-response","311","1033402","0.0-3.0-6.0-1.0-1.58","65f0bee41d562a50feaab429","6662009ae78f21dd82fcd179","6662044439f9c1be10ab0234","null","","null","","","","","","","","./tasks/HMM-beads/Images/WhiteBeadChoice.png","","","","","","","","","",""
"image-keyboard-response","312","1033917","0.0-3.0-6.0-1.0-2.58","65f0bee41d562a50feaab429","6662009ae78f21dd82fcd179","6662044439f9c1be10ab0234","null","","null","","","","","","","","./tasks/HMM-beads/Images/WhiteBeadChoiceCorrect.png","","","","","","","","","",""
"image-keyboard-response","313","1034068","0.0-3.0-6.0-1.0-0.59","65f0bee41d562a50feaab429","6662009ae78f21dd82fcd179","6662044439f9c1be10ab0234","150","","j","","","","","","","","./tasks/HMM-beads/Images/NewTrialWC.png","lowH","1","59","1","0","1","1","false","",""
"image-keyboard-response","314","1034384","0.0-3.0-6.0-1.0-1.59","65f0bee41d562a50feaab429","6662009ae78f21dd82fcd179","6662044439f9c1be10ab0234","null","","null","","","","","","","","./tasks/HMM-beads/Images/WhiteBeadChoice.png","","","","","","","","","",""
"image-keyboard-response","315","1034895","0.0-3.0-6.0-1.0-2.59","65f0bee41d562a50feaab429","6662009ae78f21dd82fcd179","6662044439f9c1be10ab0234","null","","null","","","","","","","","./tasks/HMM-beads/Images/WhiteBeadChoiceWrong.png","","","","","","","","","",""
"image-keyboard-response","316","1035757","0.0-3.0-6.0-1.0-0.60","65f0bee41d562a50feaab429","6662009ae78f21dd82fcd179","6662044439f9c1be10ab0234","861","","f","","","","","","","","./tasks/HMM-beads/Images/NewTrialBC.png","lowH","1","60","1","1","0","0","false","",""
"image-keyboard-response","317","1036070","0.0-3.0-6.0-1.0-1.60","65f0bee41d562a50feaab429","6662009ae78f21dd82fcd179","6662044439f9c1be10ab0234","null","","null","","","","","","","","./tasks/HMM-beads/Images/BlackBeadChoice.png","","","","","","","","","",""
"image-keyboard-response","318","1036580","0.0-3.0-6.0-1.0-2.60","65f0bee41d562a50feaab429","6662009ae78f21dd82fcd179","6662044439f9c1be10ab0234","null","","null","","","","","","","","./tasks/HMM-beads/Images/BlackBeadChoiceWrong.png","","","","","","","","","",""
"image-keyboard-response","319","1037901","0.0-3.0-6.0-1.0-0.61","65f0bee41d562a50feaab429","6662009ae78f21dd82fcd179","6662044439f9c1be10ab0234","1320","","f","","","","","","","","./tasks/HMM-beads/Images/NewTrialWC.png","lowH","1","61","1","1","1","0","false","",""
"image-keyboard-response","320","1038205","0.0-3.0-6.0-1.0-1.61","65f0bee41d562a50feaab429","6662009ae78f21dd82fcd179","6662044439f9c1be10ab0234","null","","null","","","","","","","","./tasks/HMM-beads/Images/BlackBeadChoice.png","","","","","","","","","",""
"image-keyboard-response","321","1038716","0.0-3.0-6.0-1.0-2.61","65f0bee41d562a50feaab429","6662009ae78f21dd82fcd179","6662044439f9c1be10ab0234","null","","null","","","","","","","","./tasks/HMM-beads/Images/BlackBeadChoiceWrong.png","","","","","","","","","",""
"image-keyboard-response","322","1038917","0.0-3.0-6.0-1.0-0.62","65f0bee41d562a50feaab429","6662009ae78f21dd82fcd179","6662044439f9c1be10ab0234","199","","j","","","","","","","","./tasks/HMM-beads/Images/NewTrialWC.png","lowH","1","62","1","0","1","1","false","",""
"image-keyboard-response","323","1039225","0.0-3.0-6.0-1.0-1.62","65f0bee41d562a50feaab429","6662009ae78f21dd82fcd179","6662044439f9c1be10ab0234","null","","null","","","","","","","","./tasks/HMM-beads/Images/WhiteBeadChoice.png","","","","","","","","","",""
"image-keyboard-response","324","1039730","0.0-3.0-6.0-1.0-2.62","65f0bee41d562a50feaab429","6662009ae78f21dd82fcd179","6662044439f9c1be10ab0234","null","","null","","","","","","","","./tasks/HMM-beads/Images/WhiteBeadChoiceWrong.png","","","","","","","","","",""
"image-keyboard-response","325","1039861","0.0-3.0-6.0-1.0-0.63","65f0bee41d562a50feaab429","6662009ae78f21dd82fcd179","6662044439f9c1be10ab0234","130","","f","","","","","","","","./tasks/HMM-beads/Images/NewTrialBC.png","lowH","1","63","1","1","0","0","false","",""
"image-keyboard-response","326","1040175","0.0-3.0-6.0-1.0-1.63","65f0bee41d562a50feaab429","6662009ae78f21dd82fcd179","6662044439f9c1be10ab0234","null","","null","","","","","","","","./tasks/HMM-beads/Images/BlackBeadChoice.png","","","","","","","","","",""
"image-keyboard-response","327","1040687","0.0-3.0-6.0-1.0-2.63","65f0bee41d562a50feaab429","6662009ae78f21dd82fcd179","6662044439f9c1be10ab0234","null","","null","","","","","","","","./tasks/HMM-beads/Images/BlackBeadChoiceWrong.png","","","","","","","","","",""
"image-keyboard-response","328","1041605","0.0-3.0-6.0-1.0-0.64","65f0bee41d562a50feaab429","6662009ae78f21dd82fcd179","6662044439f9c1be10ab0234","917","","j","","","","","","","","./tasks/HMM-beads/Images/NewTrialWC.png","lowH","1","64","1","1","1","1","true","",""
"image-keyboard-response","329","1041923","0.0-3.0-6.0-1.0-1.64","65f0bee41d562a50feaab429","6662009ae78f21dd82fcd179","6662044439f9c1be10ab0234","null","","null","","","","","","","","./tasks/HMM-beads/Images/WhiteBeadChoice.png","","","","","","","","","",""
"image-keyboard-response","330","1042435","0.0-3.0-6.0-1.0-2.64","65f0bee41d562a50feaab429","6662009ae78f21dd82fcd179","6662044439f9c1be10ab0234","null","","null","","","","","","","","./tasks/HMM-beads/Images/WhiteBeadChoiceCorrect.png","","","","","","","","","",""
"image-keyboard-response","331","1042620","0.0-3.0-6.0-1.0-0.65","65f0bee41d562a50feaab429","6662009ae78f21dd82fcd179","6662044439f9c1be10ab0234","184","","j","","","","","","","","./tasks/HMM-beads/Images/NewTrialWC.png","lowH","1","65","1","1","1","1","true","",""
"image-keyboard-response","332","1042932","0.0-3.0-6.0-1.0-1.65","65f0bee41d562a50feaab429","6662009ae78f21dd82fcd179","6662044439f9c1be10ab0234","null","","null","","","","","","","","./tasks/HMM-beads/Images/WhiteBeadChoice.png","","","","","","","","","",""
"image-keyboard-response","333","1043444","0.0-3.0-6.0-1.0-2.65","65f0bee41d562a50feaab429","6662009ae78f21dd82fcd179","6662044439f9c1be10ab0234","null","","null","","","","","","","","./tasks/HMM-beads/Images/WhiteBeadChoiceCorrect.png","","","","","","","","","",""
"image-keyboard-response","334","1043556","0.0-3.0-6.0-1.0-0.66","65f0bee41d562a50feaab429","6662009ae78f21dd82fcd179","6662044439f9c1be10ab0234","111","","j","","","","","","","","./tasks/HMM-beads/Images/NewTrialWC.png","lowH","1","66","1","1","1","1","true","",""
"image-keyboard-response","335","1043868","0.0-3.0-6.0-1.0-1.66","65f0bee41d562a50feaab429","6662009ae78f21dd82fcd179","6662044439f9c1be10ab0234","null","","null","","","","","","","","./tasks/HMM-beads/Images/WhiteBeadChoice.png","","","","","","","","","",""
"image-keyboard-response","336","1044383","0.0-3.0-6.0-1.0-2.66","65f0bee41d562a50feaab429","6662009ae78f21dd82fcd179","6662044439f9c1be10ab0234","null","","null","","","","","","","","./tasks/HMM-beads/Images/WhiteBeadChoiceCorrect.png","","","","","","","","","",""
"image-keyboard-response","337","1044507","0.0-3.0-6.0-1.0-0.67","65f0bee41d562a50feaab429","6662009ae78f21dd82fcd179","6662044439f9c1be10ab0234","124","","j","","","","","","","","./tasks/HMM-beads/Images/NewTrialWC.png","lowH","1","67","1","0","1","1","false","",""
"image-keyboard-response","338","1044817","0.0-3.0-6.0-1.0-1.67","65f0bee41d562a50feaab429","6662009ae78f21dd82fcd179","6662044439f9c1be10ab0234","null","","null","","","","","","","","./tasks/HMM-beads/Images/WhiteBeadChoice.png","","","","","","","","","",""
"image-keyboard-response","339","1045330","0.0-3.0-6.0-1.0-2.67","65f0bee41d562a50feaab429","6662009ae78f21dd82fcd179","6662044439f9c1be10ab0234","null","","null","","","","","","","","./tasks/HMM-beads/Images/WhiteBeadChoiceWrong.png","","","","","","","","","",""
"image-keyboard-response","340","1047045","0.0-3.0-6.0-1.0-0.68","65f0bee41d562a50feaab429","6662009ae78f21dd82fcd179","6662044439f9c1be10ab0234","1714","","j","","","","","","","","./tasks/HMM-beads/Images/NewTrialBC.png","lowH","1","68","1","1","0","1","true","",""
"image-keyboard-response","341","1047357","0.0-3.0-6.0-1.0-1.68","65f0bee41d562a50feaab429","6662009ae78f21dd82fcd179","6662044439f9c1be10ab0234","null","","null","","","","","","","","./tasks/HMM-beads/Images/WhiteBeadChoice.png","","","","","","","","","",""
"image-keyboard-response","342","1047871","0.0-3.0-6.0-1.0-2.68","65f0bee41d562a50feaab429","6662009ae78f21dd82fcd179","6662044439f9c1be10ab0234","null","","null","","","","","","","","./tasks/HMM-beads/Images/WhiteBeadChoiceCorrect.png","","","","","","","","","",""
"image-keyboard-response","343","1049021","0.0-3.0-6.0-1.0-0.69","65f0bee41d562a50feaab429","6662009ae78f21dd82fcd179","6662044439f9c1be10ab0234","1149","","f","","","","","","","","./tasks/HMM-beads/Images/NewTrialWC.png","lowH","1","69","0","1","1","0","false","",""
"image-keyboard-response","344","1049330","0.0-3.0-6.0-1.0-1.69","65f0bee41d562a50feaab429","6662009ae78f21dd82fcd179","6662044439f9c1be10ab0234","null","","null","","","","","","","","./tasks/HMM-beads/Images/BlackBeadChoice.png","","","","","","","","","",""
"image-keyboard-response","345","1049836","0.0-3.0-6.0-1.0-2.69","65f0bee41d562a50feaab429","6662009ae78f21dd82fcd179","6662044439f9c1be10ab0234","null","","null","","","","","","","","./tasks/HMM-beads/Images/BlackBeadChoiceWrong.png","","","","","","","","","",""
"image-keyboard-response","346","1050549","0.0-3.0-6.0-1.0-0.70","65f0bee41d562a50feaab429","6662009ae78f21dd82fcd179","6662044439f9c1be10ab0234","712","","j","","","","","","","","./tasks/HMM-beads/Images/NewTrialWC.png","lowH","1","70","0","1","1","1","true","",""
"image-keyboard-response","347","1050860","0.0-3.0-6.0-1.0-1.70","65f0bee41d562a50feaab429","6662009ae78f21dd82fcd179","6662044439f9c1be10ab0234","null","","null","","","","","","","","./tasks/HMM-beads/Images/WhiteBeadChoice.png","","","","","","","","","",""
"image-keyboard-response","348","1051373","0.0-3.0-6.0-1.0-2.70","65f0bee41d562a50feaab429","6662009ae78f21dd82fcd179","6662044439f9c1be10ab0234","null","","null","","","","","","","","./tasks/HMM-beads/Images/WhiteBeadChoiceCorrect.png","","","","","","","","","",""
"image-keyboard-response","349","1051748","0.0-3.0-6.0-1.0-0.71","65f0bee41d562a50feaab429","6662009ae78f21dd82fcd179","6662044439f9c1be10ab0234","375","","j","","","","","","","","./tasks/HMM-beads/Images/NewTrialWC.png","lowH","1","71","0","0","1","1","false","",""
"image-keyboard-response","350","1052061","0.0-3.0-6.0-1.0-1.71","65f0bee41d562a50feaab429","6662009ae78f21dd82fcd179","6662044439f9c1be10ab0234","null","","null","","","","","","","","./tasks/HMM-beads/Images/WhiteBeadChoice.png","","","","","","","","","",""
"image-keyboard-response","351","1052574","0.0-3.0-6.0-1.0-2.71","65f0bee41d562a50feaab429","6662009ae78f21dd82fcd179","6662044439f9c1be10ab0234","null","","null","","","","","","","","./tasks/HMM-beads/Images/WhiteBeadChoiceWrong.png","","","","","","","","","",""
"image-keyboard-response","352","1053461","0.0-3.0-6.0-1.0-0.72","65f0bee41d562a50feaab429","6662009ae78f21dd82fcd179","6662044439f9c1be10ab0234","886","","f","","","","","","","","./tasks/HMM-beads/Images/NewTrialBC.png","lowH","1","72","0","0","0","0","true","",""
"image-keyboard-response","353","1053776","0.0-3.0-6.0-1.0-1.72","65f0bee41d562a50feaab429","6662009ae78f21dd82fcd179","6662044439f9c1be10ab0234","null","","null","","","","","","","","./tasks/HMM-beads/Images/BlackBeadChoice.png","","","","","","","","","",""
"image-keyboard-response","354","1054282","0.0-3.0-6.0-1.0-2.72","65f0bee41d562a50feaab429","6662009ae78f21dd82fcd179","6662044439f9c1be10ab0234","null","","null","","","","","","","","./tasks/HMM-beads/Images/BlackBeadChoiceCorrect.png","","","","","","","","","",""
"image-keyboard-response","355","1054788","0.0-3.0-6.0-1.0-0.73","65f0bee41d562a50feaab429","6662009ae78f21dd82fcd179","6662044439f9c1be10ab0234","502","","f","","","","","","","","./tasks/HMM-beads/Images/NewTrialBC.png","lowH","1","73","0","1","0","0","false","",""
"image-keyboard-response","356","1055101","0.0-3.0-6.0-1.0-1.73","65f0bee41d562a50feaab429","6662009ae78f21dd82fcd179","6662044439f9c1be10ab0234","null","","null","","","","","","","","./tasks/HMM-beads/Images/BlackBeadChoice.png","","","","","","","","","",""
"image-keyboard-response","357","1055617","0.0-3.0-6.0-1.0-2.73","65f0bee41d562a50feaab429","6662009ae78f21dd82fcd179","6662044439f9c1be10ab0234","null","","null","","","","","","","","./tasks/HMM-beads/Images/BlackBeadChoiceWrong.png","","","","","","","","","",""
"image-keyboard-response","358","1055764","0.0-3.0-6.0-1.0-0.74","65f0bee41d562a50feaab429","6662009ae78f21dd82fcd179","6662044439f9c1be10ab0234","146","","j","","","","","","","","./tasks/HMM-beads/Images/NewTrialWC.png","lowH","1","74","0","0","1","1","false","",""
"image-keyboard-response","359","1056071","0.0-3.0-6.0-1.0-1.74","65f0bee41d562a50feaab429","6662009ae78f21dd82fcd179","6662044439f9c1be10ab0234","null","","null","","","","","","","","./tasks/HMM-beads/Images/WhiteBeadChoice.png","","","","","","","","","",""
"image-keyboard-response","360","1056579","0.0-3.0-6.0-1.0-2.74","65f0bee41d562a50feaab429","6662009ae78f21dd82fcd179","6662044439f9c1be10ab0234","null","","null","","","","","","","","./tasks/HMM-beads/Images/WhiteBeadChoiceWrong.png","","","","","","","","","",""
"image-keyboard-response","361","1056876","0.0-3.0-6.0-1.0-0.75","65f0bee41d562a50feaab429","6662009ae78f21dd82fcd179","6662044439f9c1be10ab0234","297","","f","","","","","","","","./tasks/HMM-beads/Images/NewTrialBC.png","lowH","1","75","0","1","0","0","false","",""
"image-keyboard-response","362","1057191","0.0-3.0-6.0-1.0-1.75","65f0bee41d562a50feaab429","6662009ae78f21dd82fcd179","6662044439f9c1be10ab0234","null","","null","","","","","","","","./tasks/HMM-beads/Images/BlackBeadChoice.png","","","","","","","","","",""
"image-keyboard-response","363","1057708","0.0-3.0-6.0-1.0-2.75","65f0bee41d562a50feaab429","6662009ae78f21dd82fcd179","6662044439f9c1be10ab0234","null","","null","","","","","","","","./tasks/HMM-beads/Images/BlackBeadChoiceWrong.png","","","","","","","","","",""
"image-keyboard-response","364","1057725","0.0-3.0-6.0-1.0-0.76","65f0bee41d562a50feaab429","6662009ae78f21dd82fcd179","6662044439f9c1be10ab0234","16","","j","","","","","","","","./tasks/HMM-beads/Images/NewTrialWC.png","lowH","1","76","0","1","1","1","true","",""
"image-keyboard-response","365","1058032","0.0-3.0-6.0-1.0-1.76","65f0bee41d562a50feaab429","6662009ae78f21dd82fcd179","6662044439f9c1be10ab0234","null","","null","","","","","","","","./tasks/HMM-beads/Images/WhiteBeadChoice.png","","","","","","","","","",""
"image-keyboard-response","366","1058538","0.0-3.0-6.0-1.0-2.76","65f0bee41d562a50feaab429","6662009ae78f21dd82fcd179","6662044439f9c1be10ab0234","null","","null","","","","","","","","./tasks/HMM-beads/Images/WhiteBeadChoiceCorrect.png","","","","","","","","","",""
"image-keyboard-response","367","1058676","0.0-3.0-6.0-1.0-0.77","65f0bee41d562a50feaab429","6662009ae78f21dd82fcd179","6662044439f9c1be10ab0234","137","","j","","","","","","","","./tasks/HMM-beads/Images/NewTrialWC.png","lowH","1","77","0","0","1","1","false","",""
"image-keyboard-response","368","1058992","0.0-3.0-6.0-1.0-1.77","65f0bee41d562a50feaab429","6662009ae78f21dd82fcd179","6662044439f9c1be10ab0234","null","","null","","","","","","","","./tasks/HMM-beads/Images/WhiteBeadChoice.png","","","","","","","","","",""
"image-keyboard-response","369","1059498","0.0-3.0-6.0-1.0-2.77","65f0bee41d562a50feaab429","6662009ae78f21dd82fcd179","6662044439f9c1be10ab0234","null","","null","","","","","","","","./tasks/HMM-beads/Images/WhiteBeadChoiceWrong.png","","","","","","","","","",""
"image-keyboard-response","370","1059708","0.0-3.0-6.0-1.0-0.78","65f0bee41d562a50feaab429","6662009ae78f21dd82fcd179","6662044439f9c1be10ab0234","209","","f","","","","","","","","./tasks/HMM-beads/Images/NewTrialBC.png","lowH","1","78","0","0","0","0","true","",""
"image-keyboard-response","371","1060014","0.0-3.0-6.0-1.0-1.78","65f0bee41d562a50feaab429","6662009ae78f21dd82fcd179","6662044439f9c1be10ab0234","null","","null","","","","","","","","./tasks/HMM-beads/Images/BlackBeadChoice.png","","","","","","","","","",""
"image-keyboard-response","372","1060530","0.0-3.0-6.0-1.0-2.78","65f0bee41d562a50feaab429","6662009ae78f21dd82fcd179","6662044439f9c1be10ab0234","null","","null","","","","","","","","./tasks/HMM-beads/Images/BlackBeadChoiceCorrect.png","","","","","","","","","",""
"image-keyboard-response","373","1061285","0.0-3.0-6.0-1.0-0.79","65f0bee41d562a50feaab429","6662009ae78f21dd82fcd179","6662044439f9c1be10ab0234","755","","j","","","","","","","","./tasks/HMM-beads/Images/NewTrialBC.png","lowH","1","79","0","0","0","1","false","",""
