"trial_type","trial_index","time_elapsed","internal_node_id","subject_id","study_id","session_id","rt","url","response","question_order","view_history","success","timeout","failed_images","failed_audio","failed_video","stimulus","block","block_rep","trial_number","jar","bead","previous_bead","choice","correct","lowH_score","total_bonus"
"pavlovia","0","1886","0.0-0.0","6642864514779d1334695e65","6662009ae78f21dd82fcd179","66620466df6da65f4762d95d","","","","","","","","","","","","","","","","","","","","",""
"external-html","1","13151","0.0-1.0-0.0","6642864514779d1334695e65","6662009ae78f21dd82fcd179","66620466df6da65f4762d95d","11132","new_consent.html","","","","","","","","","","","","","","","","","","",""
"survey-multi-choice","2","19653","0.0-1.0-1.0","6642864514779d1334695e65","6662009ae78f21dd82fcd179","66620466df6da65f4762d95d","6497","","{""Q0"":""Female"",""Q1"":""White""}","[0,1]","","","","","","","","","","","","","","","","",""
"survey-text","3","21964","0.0-1.0-2.0","6642864514779d1334695e65","6662009ae78f21dd82fcd179","66620466df6da65f4762d95d","2295","","{""Q0"":""23""}","","","","","","","","","","","","","","","","","",""
"instructions","4","24945","0.0-2.0","6642864514779d1334695e65","6662009ae78f21dd82fcd179","66620466df6da65f4762d95d","2880","","","","[{""page_index"":0,""viewing_time"":2880}]","","","","","","","","","","","","","","","",""
"preload","5","28736","0.0-3.0-0.0","6642864514779d1334695e65","6662009ae78f21dd82fcd179","66620466df6da65f4762d95d","","","","","","true","false","[]","[]","[]","","","","","","","","","","",""
"instructions","6","140254","0.0-3.0-1.0","6642864514779d1334695e65","6662009ae78f21dd82fcd179","66620466df6da65f4762d95d","111514","","","","[{""page_index"":0,""viewing_time"":16125},{""page_index"":1,""viewing_time"":5891},{""page_index"":2,""viewing_time"":3268},{""page_index"":3,""viewing_time"":1950},{""page_index"":4,""viewing_time"":13747},{""page_index"":5,""viewing_time"":19615},{""page_index"":6,""viewing_time"":6362},{""page_index"":7,""viewing_time"":7160},{""page_index"":8,""viewing_time"":6992},{""page_index"":9,""viewing_time"":5968},{""page_index"":10,""viewing_time"":22091},{""page_index"":11,""viewing_time"":2345}]","","","","","","","","","","","","","","","",""
"html-button-response","7","143049","0.0-3.0-2.0-0.0-0.0","6642864514779d1334695e65","6662009ae78f21dd82fcd179","66620466df6da65f4762d95d","2793","","1","","","","","","","","<div align=center>Your goal is to predict…?<br><br></div>","","","","","","","","","",""
"html-button-response","8","148309","0.0-3.0-2.0-1.0-0.0","6642864514779d1334695e65","6662009ae78f21dd82fcd179","66620466df6da65f4762d95d","3676","","2","","","","","","","","<div align=center>In the jar with mostly white beads, there are ___% white beads and ___% black beads?<br><br></div>","","","","","","","","","",""
"html-button-response","9","154969","0.0-3.0-2.0-2.0-0.0","6642864514779d1334695e65","6662009ae78f21dd82fcd179","66620466df6da65f4762d95d","5355","","0","","","","","","","","<div align=center>When there is a 1% probability that the jars will switch, the next bead will most likely be drawn from the…<br><br></div>","","","","","","","","","",""
"html-button-response","10","158094","0.0-3.0-2.0-3.0-0.0","6642864514779d1334695e65","6662009ae78f21dd82fcd179","66620466df6da65f4762d95d","1745","","1","","","","","","","","<div align=center>When there is a 99% probability that the jars will switch, the next bead will most likely be drawn from the…<br><br></div>","","","","","","","","","",""
"instructions","11","171208","0.0-3.0-3.0","6642864514779d1334695e65","6662009ae78f21dd82fcd179","66620466df6da65f4762d95d","11822","","","","[{""page_index"":0,""viewing_time"":11822}]","","","","","","","","","","","","","","","",""
"html-keyboard-response","12","176965","0.0-3.0-4.0-0.0","6642864514779d1334695e65","6662009ae78f21dd82fcd179","66620466df6da65f4762d95d","5755",""," ","","","","","","","","<div align=center>In this practice block, there will be a <b>1% chance</b> that the jar on the next trial will be different from the jar on the current trial.<br><br></div>","","","","","","","","","",""
"image-keyboard-response","13","179448","0.0-3.0-4.0-1.0-0.0","6642864514779d1334695e65","6662009ae78f21dd82fcd179","66620466df6da65f4762d95d","2466","","f","","","","","","","","./tasks/HMM-beads/Images/NoChoice.png","practice","0","0","0","0","9","0","true","",""
"image-keyboard-response","14","179763","0.0-3.0-4.0-1.0-1.0","6642864514779d1334695e65","6662009ae78f21dd82fcd179","66620466df6da65f4762d95d","null","","null","","","","","","","","./tasks/HMM-beads/Images/BlackBeadChoice.png","","","","","","","","","",""
"image-keyboard-response","15","180277","0.0-3.0-4.0-1.0-2.0","6642864514779d1334695e65","6662009ae78f21dd82fcd179","66620466df6da65f4762d95d","null","","null","","","","","","","","./tasks/HMM-beads/Images/BlackBeadChoiceCorrect.png","","","","","","","","","",""
"image-keyboard-response","16","183227","0.0-3.0-4.0-1.0-0.1","6642864514779d1334695e65","6662009ae78f21dd82fcd179","66620466df6da65f4762d95d","2937","","f","","","","","","","","./tasks/HMM-beads/Images/NewTrialBC.png","practice","0","1","0","0","0","0","true","",""
"image-keyboard-response","17","183532","0.0-3.0-4.0-1.0-1.1","6642864514779d1334695e65","6662009ae78f21dd82fcd179","66620466df6da65f4762d95d","null","","null","","","","","","","","./tasks/HMM-beads/Images/BlackBeadChoice.png","","","","","","","","","",""
"image-keyboard-response","18","184036","0.0-3.0-4.0-1.0-2.1","6642864514779d1334695e65","6662009ae78f21dd82fcd179","66620466df6da65f4762d95d","null","","null","","","","","","","","./tasks/HMM-beads/Images/BlackBeadChoiceCorrect.png","","","","","","","","","",""
"image-keyboard-response","19","185551","0.0-3.0-4.0-1.0-0.2","6642864514779d1334695e65","6662009ae78f21dd82fcd179","66620466df6da65f4762d95d","1510","","f","","","","","","","","./tasks/HMM-beads/Images/NewTrialBC.png","practice","0","2","0","1","0","0","false","",""
"image-keyboard-response","20","185854","0.0-3.0-4.0-1.0-1.2","6642864514779d1334695e65","6662009ae78f21dd82fcd179","66620466df6da65f4762d95d","null","","null","","","","","","","","./tasks/HMM-beads/Images/BlackBeadChoice.png","","","","","","","","","",""
"image-keyboard-response","21","186369","0.0-3.0-4.0-1.0-2.2","6642864514779d1334695e65","6662009ae78f21dd82fcd179","66620466df6da65f4762d95d","null","","null","","","","","","","","./tasks/HMM-beads/Images/BlackBeadChoiceWrong.png","","","","","","","","","",""
"image-keyboard-response","22","187777","0.0-3.0-4.0-1.0-0.3","6642864514779d1334695e65","6662009ae78f21dd82fcd179","66620466df6da65f4762d95d","1388","","f","","","","","","","","./tasks/HMM-beads/Images/NewTrialWC.png","practice","0","3","0","0","1","0","true","",""
"image-keyboard-response","23","188082","0.0-3.0-4.0-1.0-1.3","6642864514779d1334695e65","6662009ae78f21dd82fcd179","66620466df6da65f4762d95d","null","","null","","","","","","","","./tasks/HMM-beads/Images/BlackBeadChoice.png","","","","","","","","","",""
"image-keyboard-response","24","188586","0.0-3.0-4.0-1.0-2.3","6642864514779d1334695e65","6662009ae78f21dd82fcd179","66620466df6da65f4762d95d","null","","null","","","","","","","","./tasks/HMM-beads/Images/BlackBeadChoiceCorrect.png","","","","","","","","","",""
"image-keyboard-response","25","190720","0.0-3.0-4.0-1.0-0.4","6642864514779d1334695e65","6662009ae78f21dd82fcd179","66620466df6da65f4762d95d","2131","","f","","","","","","","","./tasks/HMM-beads/Images/NewTrialBC.png","practice","0","4","0","0","0","0","true","",""
"image-keyboard-response","26","191027","0.0-3.0-4.0-1.0-1.4","6642864514779d1334695e65","6662009ae78f21dd82fcd179","66620466df6da65f4762d95d","null","","null","","","","","","","","./tasks/HMM-beads/Images/BlackBeadChoice.png","","","","","","","","","",""
"image-keyboard-response","27","191530","0.0-3.0-4.0-1.0-2.4","6642864514779d1334695e65","6662009ae78f21dd82fcd179","66620466df6da65f4762d95d","null","","null","","","","","","","","./tasks/HMM-beads/Images/BlackBeadChoiceCorrect.png","","","","","","","","","",""
"image-keyboard-response","28","192940","0.0-3.0-4.0-1.0-0.5","6642864514779d1334695e65","6662009ae78f21dd82fcd179","66620466df6da65f4762d95d","1407","","f","","","","","","","","./tasks/HMM-beads/Images/NewTrialBC.png","practice","0","5","0","1","0","0","false","",""
"image-keyboard-response","29","193244","0.0-3.0-4.0-1.0-1.5","6642864514779d1334695e65","6662009ae78f21dd82fcd179","66620466df6da65f4762d95d","null","","null","","","","","","","","./tasks/HMM-beads/Images/BlackBeadChoice.png","","","","","","","","","",""
"image-keyboard-response","30","193748","0.0-3.0-4.0-1.0-2.5","6642864514779d1334695e65","6662009ae78f21dd82fcd179","66620466df6da65f4762d95d","null","","null","","","","","","","","./tasks/HMM-beads/Images/BlackBeadChoiceWrong.png","","","","","","","","","",""
"image-keyboard-response","31","195088","0.0-3.0-4.0-1.0-0.6","6642864514779d1334695e65","6662009ae78f21dd82fcd179","66620466df6da65f4762d95d","1337","","f","","","","","","","","./tasks/HMM-beads/Images/NewTrialWC.png","practice","0","6","0","0","1","0","true","",""
"image-keyboard-response","32","195394","0.0-3.0-4.0-1.0-1.6","6642864514779d1334695e65","6662009ae78f21dd82fcd179","66620466df6da65f4762d95d","null","","null","","","","","","","","./tasks/HMM-beads/Images/BlackBeadChoice.png","","","","","","","","","",""
"image-keyboard-response","33","195898","0.0-3.0-4.0-1.0-2.6","6642864514779d1334695e65","6662009ae78f21dd82fcd179","66620466df6da65f4762d95d","null","","null","","","","","","","","./tasks/HMM-beads/Images/BlackBeadChoiceCorrect.png","","","","","","","","","",""
"image-keyboard-response","34","197096","0.0-3.0-4.0-1.0-0.7","6642864514779d1334695e65","6662009ae78f21dd82fcd179","66620466df6da65f4762d95d","1194","","f","","","","","","","","./tasks/HMM-beads/Images/NewTrialBC.png","practice","0","7","0","0","0","0","true","",""
"image-keyboard-response","35","197401","0.0-3.0-4.0-1.0-1.7","6642864514779d1334695e65","6662009ae78f21dd82fcd179","66620466df6da65f4762d95d","null","","null","","","","","","","","./tasks/HMM-beads/Images/BlackBeadChoice.png","","","","","","","","","",""
"image-keyboard-response","36","197905","0.0-3.0-4.0-1.0-2.7","6642864514779d1334695e65","6662009ae78f21dd82fcd179","66620466df6da65f4762d95d","null","","null","","","","","","","","./tasks/HMM-beads/Images/BlackBeadChoiceCorrect.png","","","","","","","","","",""
"image-keyboard-response","37","198821","0.0-3.0-4.0-1.0-0.8","6642864514779d1334695e65","6662009ae78f21dd82fcd179","66620466df6da65f4762d95d","913","","f","","","","","","","","./tasks/HMM-beads/Images/NewTrialBC.png","practice","0","8","0","0","0","0","true","",""
"image-keyboard-response","38","199127","0.0-3.0-4.0-1.0-1.8","6642864514779d1334695e65","6662009ae78f21dd82fcd179","66620466df6da65f4762d95d","null","","null","","","","","","","","./tasks/HMM-beads/Images/BlackBeadChoice.png","","","","","","","","","",""
"image-keyboard-response","39","199630","0.0-3.0-4.0-1.0-2.8","6642864514779d1334695e65","6662009ae78f21dd82fcd179","66620466df6da65f4762d95d","null","","null","","","","","","","","./tasks/HMM-beads/Images/BlackBeadChoiceCorrect.png","","","","","","","","","",""
"image-keyboard-response","40","200397","0.0-3.0-4.0-1.0-0.9","6642864514779d1334695e65","6662009ae78f21dd82fcd179","66620466df6da65f4762d95d","763","","f","","","","","","","","./tasks/HMM-beads/Images/NewTrialBC.png","practice","0","9","0","1","0","0","false","",""
"image-keyboard-response","41","200702","0.0-3.0-4.0-1.0-1.9","6642864514779d1334695e65","6662009ae78f21dd82fcd179","66620466df6da65f4762d95d","null","","null","","","","","","","","./tasks/HMM-beads/Images/BlackBeadChoice.png","","","","","","","","","",""
"image-keyboard-response","42","201205","0.0-3.0-4.0-1.0-2.9","6642864514779d1334695e65","6662009ae78f21dd82fcd179","66620466df6da65f4762d95d","null","","null","","","","","","","","./tasks/HMM-beads/Images/BlackBeadChoiceWrong.png","","","","","","","","","",""
"image-keyboard-response","43","202683","0.0-3.0-4.0-1.0-0.10","6642864514779d1334695e65","6662009ae78f21dd82fcd179","66620466df6da65f4762d95d","1475","","f","","","","","","","","./tasks/HMM-beads/Images/NewTrialWC.png","practice","0","10","0","0","1","0","true","",""
"image-keyboard-response","44","202990","0.0-3.0-4.0-1.0-1.10","6642864514779d1334695e65","6662009ae78f21dd82fcd179","66620466df6da65f4762d95d","null","","null","","","","","","","","./tasks/HMM-beads/Images/BlackBeadChoice.png","","","","","","","","","",""
"image-keyboard-response","45","203494","0.0-3.0-4.0-1.0-2.10","6642864514779d1334695e65","6662009ae78f21dd82fcd179","66620466df6da65f4762d95d","null","","null","","","","","","","","./tasks/HMM-beads/Images/BlackBeadChoiceCorrect.png","","","","","","","","","",""
"image-keyboard-response","46","204863","0.0-3.0-4.0-1.0-0.11","6642864514779d1334695e65","6662009ae78f21dd82fcd179","66620466df6da65f4762d95d","1365","","f","","","","","","","","./tasks/HMM-beads/Images/NewTrialBC.png","practice","0","11","0","1","0","0","false","",""
"image-keyboard-response","47","205168","0.0-3.0-4.0-1.0-1.11","6642864514779d1334695e65","6662009ae78f21dd82fcd179","66620466df6da65f4762d95d","null","","null","","","","","","","","./tasks/HMM-beads/Images/BlackBeadChoice.png","","","","","","","","","",""
"image-keyboard-response","48","205675","0.0-3.0-4.0-1.0-2.11","6642864514779d1334695e65","6662009ae78f21dd82fcd179","66620466df6da65f4762d95d","null","","null","","","","","","","","./tasks/HMM-beads/Images/BlackBeadChoiceWrong.png","","","","","","","","","",""
"image-keyboard-response","49","206805","0.0-3.0-4.0-1.0-0.12","6642864514779d1334695e65","6662009ae78f21dd82fcd179","66620466df6da65f4762d95d","1127","","f","","","","","","","","./tasks/HMM-beads/Images/NewTrialWC.png","practice","0","12","0","0","1","0","true","",""
"image-keyboard-response","50","207108","0.0-3.0-4.0-1.0-1.12","6642864514779d1334695e65","6662009ae78f21dd82fcd179","66620466df6da65f4762d95d","null","","null","","","","","","","","./tasks/HMM-beads/Images/BlackBeadChoice.png","","","","","","","","","",""
"image-keyboard-response","51","207611","0.0-3.0-4.0-1.0-2.12","6642864514779d1334695e65","6662009ae78f21dd82fcd179","66620466df6da65f4762d95d","null","","null","","","","","","","","./tasks/HMM-beads/Images/BlackBeadChoiceCorrect.png","","","","","","","","","",""
"image-keyboard-response","52","208564","0.0-3.0-4.0-1.0-0.13","6642864514779d1334695e65","6662009ae78f21dd82fcd179","66620466df6da65f4762d95d","950","","j","","","","","","","","./tasks/HMM-beads/Images/NewTrialBC.png","practice","0","13","0","0","0","1","false","",""
"image-keyboard-response","53","208879","0.0-3.0-4.0-1.0-1.13","6642864514779d1334695e65","6662009ae78f21dd82fcd179","66620466df6da65f4762d95d","null","","null","","","","","","","","./tasks/HMM-beads/Images/WhiteBeadChoice.png","","","","","","","","","",""
"image-keyboard-response","54","209393","0.0-3.0-4.0-1.0-2.13","6642864514779d1334695e65","6662009ae78f21dd82fcd179","66620466df6da65f4762d95d","null","","null","","","","","","","","./tasks/HMM-beads/Images/WhiteBeadChoiceWrong.png","","","","","","","","","",""
"image-keyboard-response","55","210366","0.0-3.0-4.0-1.0-0.14","6642864514779d1334695e65","6662009ae78f21dd82fcd179","66620466df6da65f4762d95d","965","","j","","","","","","","","./tasks/HMM-beads/Images/NewTrialBC.png","practice","0","14","0","0","0","1","false","",""
"image-keyboard-response","56","210670","0.0-3.0-4.0-1.0-1.14","6642864514779d1334695e65","6662009ae78f21dd82fcd179","66620466df6da65f4762d95d","null","","null","","","","","","","","./tasks/HMM-beads/Images/WhiteBeadChoice.png","","","","","","","","","",""
"image-keyboard-response","57","211174","0.0-3.0-4.0-1.0-2.14","6642864514779d1334695e65","6662009ae78f21dd82fcd179","66620466df6da65f4762d95d","null","","null","","","","","","","","./tasks/HMM-beads/Images/WhiteBeadChoiceWrong.png","","","","","","","","","",""
"image-keyboard-response","58","211772","0.0-3.0-4.0-1.0-0.15","6642864514779d1334695e65","6662009ae78f21dd82fcd179","66620466df6da65f4762d95d","595","","f","","","","","","","","./tasks/HMM-beads/Images/NewTrialBC.png","practice","0","15","0","0","0","0","true","",""
"image-keyboard-response","59","212076","0.0-3.0-4.0-1.0-1.15","6642864514779d1334695e65","6662009ae78f21dd82fcd179","66620466df6da65f4762d95d","null","","null","","","","","","","","./tasks/HMM-beads/Images/BlackBeadChoice.png","","","","","","","","","",""
"image-keyboard-response","60","212580","0.0-3.0-4.0-1.0-2.15","6642864514779d1334695e65","6662009ae78f21dd82fcd179","66620466df6da65f4762d95d","null","","null","","","","","","","","./tasks/HMM-beads/Images/BlackBeadChoiceCorrect.png","","","","","","","","","",""
"image-keyboard-response","61","213172","0.0-3.0-4.0-1.0-0.16","6642864514779d1334695e65","6662009ae78f21dd82fcd179","66620466df6da65f4762d95d","589","","j","","","","","","","","./tasks/HMM-beads/Images/NewTrialBC.png","practice","0","16","0","0","0","1","false","",""
"image-keyboard-response","62","213478","0.0-3.0-4.0-1.0-1.16","6642864514779d1334695e65","6662009ae78f21dd82fcd179","66620466df6da65f4762d95d","null","","null","","","","","","","","./tasks/HMM-beads/Images/WhiteBeadChoice.png","","","","","","","","","",""
"image-keyboard-response","63","213981","0.0-3.0-4.0-1.0-2.16","6642864514779d1334695e65","6662009ae78f21dd82fcd179","66620466df6da65f4762d95d","null","","null","","","","","","","","./tasks/HMM-beads/Images/WhiteBeadChoiceWrong.png","","","","","","","","","",""
"image-keyboard-response","64","214569","0.0-3.0-4.0-1.0-0.17","6642864514779d1334695e65","6662009ae78f21dd82fcd179","66620466df6da65f4762d95d","584","","f","","","","","","","","./tasks/HMM-beads/Images/NewTrialBC.png","practice","0","17","0","0","0","0","true","",""
"image-keyboard-response","65","214874","0.0-3.0-4.0-1.0-1.17","6642864514779d1334695e65","6662009ae78f21dd82fcd179","66620466df6da65f4762d95d","null","","null","","","","","","","","./tasks/HMM-beads/Images/BlackBeadChoice.png","","","","","","","","","",""
"image-keyboard-response","66","215377","0.0-3.0-4.0-1.0-2.17","6642864514779d1334695e65","6662009ae78f21dd82fcd179","66620466df6da65f4762d95d","null","","null","","","","","","","","./tasks/HMM-beads/Images/BlackBeadChoiceCorrect.png","","","","","","","","","",""
"image-keyboard-response","67","216193","0.0-3.0-4.0-1.0-0.18","6642864514779d1334695e65","6662009ae78f21dd82fcd179","66620466df6da65f4762d95d","813","","f","","","","","","","","./tasks/HMM-beads/Images/NewTrialBC.png","practice","0","18","0","1","0","0","false","",""
"image-keyboard-response","68","216496","0.0-3.0-4.0-1.0-1.18","6642864514779d1334695e65","6662009ae78f21dd82fcd179","66620466df6da65f4762d95d","null","","null","","","","","","","","./tasks/HMM-beads/Images/BlackBeadChoice.png","","","","","","","","","",""
"image-keyboard-response","69","217000","0.0-3.0-4.0-1.0-2.18","6642864514779d1334695e65","6662009ae78f21dd82fcd179","66620466df6da65f4762d95d","null","","null","","","","","","","","./tasks/HMM-beads/Images/BlackBeadChoiceWrong.png","","","","","","","","","",""
"image-keyboard-response","70","217657","0.0-3.0-4.0-1.0-0.19","6642864514779d1334695e65","6662009ae78f21dd82fcd179","66620466df6da65f4762d95d","652","","j","","","","","","","","./tasks/HMM-beads/Images/NewTrialWC.png","practice","0","19","0","0","1","1","false","",""
"image-keyboard-response","71","217961","0.0-3.0-4.0-1.0-1.19","6642864514779d1334695e65","6662009ae78f21dd82fcd179","66620466df6da65f4762d95d","null","","null","","","","","","","","./tasks/HMM-beads/Images/WhiteBeadChoice.png","","","","","","","","","",""
"image-keyboard-response","72","218465","0.0-3.0-4.0-1.0-2.19","6642864514779d1334695e65","6662009ae78f21dd82fcd179","66620466df6da65f4762d95d","null","","null","","","","","","","","./tasks/HMM-beads/Images/WhiteBeadChoiceWrong.png","","","","","","","","","",""
"image-keyboard-response","73","218828","0.0-3.0-4.0-1.0-0.20","6642864514779d1334695e65","6662009ae78f21dd82fcd179","66620466df6da65f4762d95d","360","","f","","","","","","","","./tasks/HMM-beads/Images/NewTrialBC.png","practice","0","20","0","0","0","0","true","",""
"image-keyboard-response","74","219132","0.0-3.0-4.0-1.0-1.20","6642864514779d1334695e65","6662009ae78f21dd82fcd179","66620466df6da65f4762d95d","null","","null","","","","","","","","./tasks/HMM-beads/Images/BlackBeadChoice.png","","","","","","","","","",""
"image-keyboard-response","75","219635","0.0-3.0-4.0-1.0-2.20","6642864514779d1334695e65","6662009ae78f21dd82fcd179","66620466df6da65f4762d95d","null","","null","","","","","","","","./tasks/HMM-beads/Images/BlackBeadChoiceCorrect.png","","","","","","","","","",""
"image-keyboard-response","76","220027","0.0-3.0-4.0-1.0-0.21","6642864514779d1334695e65","6662009ae78f21dd82fcd179","66620466df6da65f4762d95d","386","","f","","","","","","","","./tasks/HMM-beads/Images/NewTrialBC.png","practice","0","21","0","1","0","0","false","",""
"image-keyboard-response","77","220330","0.0-3.0-4.0-1.0-1.21","6642864514779d1334695e65","6662009ae78f21dd82fcd179","66620466df6da65f4762d95d","null","","null","","","","","","","","./tasks/HMM-beads/Images/BlackBeadChoice.png","","","","","","","","","",""
"image-keyboard-response","78","220834","0.0-3.0-4.0-1.0-2.21","6642864514779d1334695e65","6662009ae78f21dd82fcd179","66620466df6da65f4762d95d","null","","null","","","","","","","","./tasks/HMM-beads/Images/BlackBeadChoiceWrong.png","","","","","","","","","",""
"image-keyboard-response","79","221226","0.0-3.0-4.0-1.0-0.22","6642864514779d1334695e65","6662009ae78f21dd82fcd179","66620466df6da65f4762d95d","389","","f","","","","","","","","./tasks/HMM-beads/Images/NewTrialWC.png","practice","0","22","1","1","1","0","false","",""
"image-keyboard-response","80","221530","0.0-3.0-4.0-1.0-1.22","6642864514779d1334695e65","6662009ae78f21dd82fcd179","66620466df6da65f4762d95d","null","","null","","","","","","","","./tasks/HMM-beads/Images/BlackBeadChoice.png","","","","","","","","","",""
"image-keyboard-response","81","222034","0.0-3.0-4.0-1.0-2.22","6642864514779d1334695e65","6662009ae78f21dd82fcd179","66620466df6da65f4762d95d","null","","null","","","","","","","","./tasks/HMM-beads/Images/BlackBeadChoiceWrong.png","","","","","","","","","",""
"image-keyboard-response","82","222318","0.0-3.0-4.0-1.0-0.23","6642864514779d1334695e65","6662009ae78f21dd82fcd179","66620466df6da65f4762d95d","281","","f","","","","","","","","./tasks/HMM-beads/Images/NewTrialWC.png","practice","0","23","1","0","1","0","true","",""
"image-keyboard-response","83","222625","0.0-3.0-4.0-1.0-1.23","6642864514779d1334695e65","6662009ae78f21dd82fcd179","66620466df6da65f4762d95d","null","","null","","","","","","","","./tasks/HMM-beads/Images/BlackBeadChoice.png","","","","","","","","","",""
"image-keyboard-response","84","223128","0.0-3.0-4.0-1.0-2.23","6642864514779d1334695e65","6662009ae78f21dd82fcd179","66620466df6da65f4762d95d","null","","null","","","","","","","","./tasks/HMM-beads/Images/BlackBeadChoiceCorrect.png","","","","","","","","","",""
"image-keyboard-response","85","223175","0.0-3.0-4.0-1.0-0.24","6642864514779d1334695e65","6662009ae78f21dd82fcd179","66620466df6da65f4762d95d","44","","f","","","","","","","","./tasks/HMM-beads/Images/NewTrialBC.png","practice","0","24","1","1","0","0","false","",""
"image-keyboard-response","86","223479","0.0-3.0-4.0-1.0-1.24","6642864514779d1334695e65","6662009ae78f21dd82fcd179","66620466df6da65f4762d95d","null","","null","","","","","","","","./tasks/HMM-beads/Images/BlackBeadChoice.png","","","","","","","","","",""
"image-keyboard-response","87","223983","0.0-3.0-4.0-1.0-2.24","6642864514779d1334695e65","6662009ae78f21dd82fcd179","66620466df6da65f4762d95d","null","","null","","","","","","","","./tasks/HMM-beads/Images/BlackBeadChoiceWrong.png","","","","","","","","","",""
"image-keyboard-response","88","224159","0.0-3.0-4.0-1.0-0.25","6642864514779d1334695e65","6662009ae78f21dd82fcd179","66620466df6da65f4762d95d","174","","j","","","","","","","","./tasks/HMM-beads/Images/NewTrialWC.png","practice","0","25","1","1","1","1","true","",""
"image-keyboard-response","89","224462","0.0-3.0-4.0-1.0-1.25","6642864514779d1334695e65","6662009ae78f21dd82fcd179","66620466df6da65f4762d95d","null","","null","","","","","","","","./tasks/HMM-beads/Images/WhiteBeadChoice.png","","","","","","","","","",""
"image-keyboard-response","90","224976","0.0-3.0-4.0-1.0-2.25","6642864514779d1334695e65","6662009ae78f21dd82fcd179","66620466df6da65f4762d95d","null","","null","","","","","","","","./tasks/HMM-beads/Images/WhiteBeadChoiceCorrect.png","","","","","","","","","",""
"image-keyboard-response","91","225160","0.0-3.0-4.0-1.0-0.26","6642864514779d1334695e65","6662009ae78f21dd82fcd179","66620466df6da65f4762d95d","182","","j","","","","","","","","./tasks/HMM-beads/Images/NewTrialWC.png","practice","0","26","1","1","1","1","true","",""
"image-keyboard-response","92","225465","0.0-3.0-4.0-1.0-1.26","6642864514779d1334695e65","6662009ae78f21dd82fcd179","66620466df6da65f4762d95d","null","","null","","","","","","","","./tasks/HMM-beads/Images/WhiteBeadChoice.png","","","","","","","","","",""
"image-keyboard-response","93","225969","0.0-3.0-4.0-1.0-2.26","6642864514779d1334695e65","6662009ae78f21dd82fcd179","66620466df6da65f4762d95d","null","","null","","","","","","","","./tasks/HMM-beads/Images/WhiteBeadChoiceCorrect.png","","","","","","","","","",""
"image-keyboard-response","94","226152","0.0-3.0-4.0-1.0-0.27","6642864514779d1334695e65","6662009ae78f21dd82fcd179","66620466df6da65f4762d95d","180","","j","","","","","","","","./tasks/HMM-beads/Images/NewTrialWC.png","practice","0","27","1","1","1","1","true","",""
"image-keyboard-response","95","226457","0.0-3.0-4.0-1.0-1.27","6642864514779d1334695e65","6662009ae78f21dd82fcd179","66620466df6da65f4762d95d","null","","null","","","","","","","","./tasks/HMM-beads/Images/WhiteBeadChoice.png","","","","","","","","","",""
"image-keyboard-response","96","226959","0.0-3.0-4.0-1.0-2.27","6642864514779d1334695e65","6662009ae78f21dd82fcd179","66620466df6da65f4762d95d","null","","null","","","","","","","","./tasks/HMM-beads/Images/WhiteBeadChoiceCorrect.png","","","","","","","","","",""
"image-keyboard-response","97","227154","0.0-3.0-4.0-1.0-0.28","6642864514779d1334695e65","6662009ae78f21dd82fcd179","66620466df6da65f4762d95d","192","","j","","","","","","","","./tasks/HMM-beads/Images/NewTrialWC.png","practice","0","28","1","0","1","1","false","",""
"image-keyboard-response","98","227457","0.0-3.0-4.0-1.0-1.28","6642864514779d1334695e65","6662009ae78f21dd82fcd179","66620466df6da65f4762d95d","null","","null","","","","","","","","./tasks/HMM-beads/Images/WhiteBeadChoice.png","","","","","","","","","",""
"image-keyboard-response","99","227961","0.0-3.0-4.0-1.0-2.28","6642864514779d1334695e65","6662009ae78f21dd82fcd179","66620466df6da65f4762d95d","null","","null","","","","","","","","./tasks/HMM-beads/Images/WhiteBeadChoiceWrong.png","","","","","","","","","",""
"image-keyboard-response","100","229261","0.0-3.0-4.0-1.0-0.29","6642864514779d1334695e65","6662009ae78f21dd82fcd179","66620466df6da65f4762d95d","1297","","j","","","","","","","","./tasks/HMM-beads/Images/NewTrialBC.png","practice","0","29","1","1","0","1","true","",""
"image-keyboard-response","101","229568","0.0-3.0-4.0-1.0-1.29","6642864514779d1334695e65","6662009ae78f21dd82fcd179","66620466df6da65f4762d95d","null","","null","","","","","","","","./tasks/HMM-beads/Images/WhiteBeadChoice.png","","","","","","","","","",""
"image-keyboard-response","102","230071","0.0-3.0-4.0-1.0-2.29","6642864514779d1334695e65","6662009ae78f21dd82fcd179","66620466df6da65f4762d95d","null","","null","","","","","","","","./tasks/HMM-beads/Images/WhiteBeadChoiceCorrect.png","","","","","","","","","",""
"image-keyboard-response","103","230554","0.0-3.0-4.0-1.0-0.30","6642864514779d1334695e65","6662009ae78f21dd82fcd179","66620466df6da65f4762d95d","481","","j","","","","","","","","./tasks/HMM-beads/Images/NewTrialWC.png","practice","0","30","1","0","1","1","false","",""
"image-keyboard-response","104","230859","0.0-3.0-4.0-1.0-1.30","6642864514779d1334695e65","6662009ae78f21dd82fcd179","66620466df6da65f4762d95d","null","","null","","","","","","","","./tasks/HMM-beads/Images/WhiteBeadChoice.png","","","","","","","","","",""
"image-keyboard-response","105","231362","0.0-3.0-4.0-1.0-2.30","6642864514779d1334695e65","6662009ae78f21dd82fcd179","66620466df6da65f4762d95d","null","","null","","","","","","","","./tasks/HMM-beads/Images/WhiteBeadChoiceWrong.png","","","","","","","","","",""
"image-keyboard-response","106","231960","0.0-3.0-4.0-1.0-0.31","6642864514779d1334695e65","6662009ae78f21dd82fcd179","66620466df6da65f4762d95d","595","","j","","","","","","","","./tasks/HMM-beads/Images/NewTrialBC.png","practice","0","31","1","1","0","1","true","",""
"image-keyboard-response","107","232265","0.0-3.0-4.0-1.0-1.31","6642864514779d1334695e65","6662009ae78f21dd82fcd179","66620466df6da65f4762d95d","null","","null","","","","","","","","./tasks/HMM-beads/Images/WhiteBeadChoice.png","","","","","","","","","",""
"image-keyboard-response","108","232768","0.0-3.0-4.0-1.0-2.31","6642864514779d1334695e65","6662009ae78f21dd82fcd179","66620466df6da65f4762d95d","null","","null","","","","","","","","./tasks/HMM-beads/Images/WhiteBeadChoiceCorrect.png","","","","","","","","","",""
"image-keyboard-response","109","233501","0.0-3.0-4.0-1.0-0.32","6642864514779d1334695e65","6662009ae78f21dd82fcd179","66620466df6da65f4762d95d","726","","j","","","","","","","","./tasks/HMM-beads/Images/NewTrialWC.png","practice","0","32","1","1","1","1","true","",""
"image-keyboard-response","110","233805","0.0-3.0-4.0-1.0-1.32","6642864514779d1334695e65","6662009ae78f21dd82fcd179","66620466df6da65f4762d95d","null","","null","","","","","","","","./tasks/HMM-beads/Images/WhiteBeadChoice.png","","","","","","","","","",""
"image-keyboard-response","111","234309","0.0-3.0-4.0-1.0-2.32","6642864514779d1334695e65","6662009ae78f21dd82fcd179","66620466df6da65f4762d95d","null","","null","","","","","","","","./tasks/HMM-beads/Images/WhiteBeadChoiceCorrect.png","","","","","","","","","",""
"image-keyboard-response","112","234820","0.0-3.0-4.0-1.0-0.33","6642864514779d1334695e65","6662009ae78f21dd82fcd179","66620466df6da65f4762d95d","509","","j","","","","","","","","./tasks/HMM-beads/Images/NewTrialWC.png","practice","0","33","1","1","1","1","true","",""
"image-keyboard-response","113","235124","0.0-3.0-4.0-1.0-1.33","6642864514779d1334695e65","6662009ae78f21dd82fcd179","66620466df6da65f4762d95d","null","","null","","","","","","","","./tasks/HMM-beads/Images/WhiteBeadChoice.png","","","","","","","","","",""
"image-keyboard-response","114","235627","0.0-3.0-4.0-1.0-2.33","6642864514779d1334695e65","6662009ae78f21dd82fcd179","66620466df6da65f4762d95d","null","","null","","","","","","","","./tasks/HMM-beads/Images/WhiteBeadChoiceCorrect.png","","","","","","","","","",""
"image-keyboard-response","115","235968","0.0-3.0-4.0-1.0-0.34","6642864514779d1334695e65","6662009ae78f21dd82fcd179","66620466df6da65f4762d95d","334","","j","","","","","","","","./tasks/HMM-beads/Images/NewTrialWC.png","practice","0","34","1","1","1","1","true","",""
"image-keyboard-response","116","236271","0.0-3.0-4.0-1.0-1.34","6642864514779d1334695e65","6662009ae78f21dd82fcd179","66620466df6da65f4762d95d","null","","null","","","","","","","","./tasks/HMM-beads/Images/WhiteBeadChoice.png","","","","","","","","","",""
"image-keyboard-response","117","236774","0.0-3.0-4.0-1.0-2.34","6642864514779d1334695e65","6662009ae78f21dd82fcd179","66620466df6da65f4762d95d","null","","null","","","","","","","","./tasks/HMM-beads/Images/WhiteBeadChoiceCorrect.png","","","","","","","","","",""
"image-keyboard-response","118","237103","0.0-3.0-4.0-1.0-0.35","6642864514779d1334695e65","6662009ae78f21dd82fcd179","66620466df6da65f4762d95d","326","","j","","","","","","","","./tasks/HMM-beads/Images/NewTrialWC.png","practice","0","35","1","1","1","1","true","",""
"image-keyboard-response","119","237407","0.0-3.0-4.0-1.0-1.35","6642864514779d1334695e65","6662009ae78f21dd82fcd179","66620466df6da65f4762d95d","null","","null","","","","","","","","./tasks/HMM-beads/Images/WhiteBeadChoice.png","","","","","","","","","",""
"image-keyboard-response","120","237911","0.0-3.0-4.0-1.0-2.35","6642864514779d1334695e65","6662009ae78f21dd82fcd179","66620466df6da65f4762d95d","null","","null","","","","","","","","./tasks/HMM-beads/Images/WhiteBeadChoiceCorrect.png","","","","","","","","","",""
"image-keyboard-response","121","238008","0.0-3.0-4.0-1.0-0.36","6642864514779d1334695e65","6662009ae78f21dd82fcd179","66620466df6da65f4762d95d","94","","j","","","","","","","","./tasks/HMM-beads/Images/NewTrialWC.png","practice","0","36","1","0","1","1","false","",""
"image-keyboard-response","122","238311","0.0-3.0-4.0-1.0-1.36","6642864514779d1334695e65","6662009ae78f21dd82fcd179","66620466df6da65f4762d95d","null","","null","","","","","","","","./tasks/HMM-beads/Images/WhiteBeadChoice.png","","","","","","","","","",""
"image-keyboard-response","123","238815","0.0-3.0-4.0-1.0-2.36","6642864514779d1334695e65","6662009ae78f21dd82fcd179","66620466df6da65f4762d95d","null","","null","","","","","","","","./tasks/HMM-beads/Images/WhiteBeadChoiceWrong.png","","","","","","","","","",""
"image-keyboard-response","124","239078","0.0-3.0-4.0-1.0-0.37","6642864514779d1334695e65","6662009ae78f21dd82fcd179","66620466df6da65f4762d95d","260","","j","","","","","","","","./tasks/HMM-beads/Images/NewTrialBC.png","practice","0","37","1","1","0","1","true","",""
"image-keyboard-response","125","239382","0.0-3.0-4.0-1.0-1.37","6642864514779d1334695e65","6662009ae78f21dd82fcd179","66620466df6da65f4762d95d","null","","null","","","","","","","","./tasks/HMM-beads/Images/WhiteBeadChoice.png","","","","","","","","","",""
"image-keyboard-response","126","239886","0.0-3.0-4.0-1.0-2.37","6642864514779d1334695e65","6662009ae78f21dd82fcd179","66620466df6da65f4762d95d","null","","null","","","","","","","","./tasks/HMM-beads/Images/WhiteBeadChoiceCorrect.png","","","","","","","","","",""
"image-keyboard-response","127","240115","0.0-3.0-4.0-1.0-0.38","6642864514779d1334695e65","6662009ae78f21dd82fcd179","66620466df6da65f4762d95d","226","","j","","","","","","","","./tasks/HMM-beads/Images/NewTrialWC.png","practice","0","38","1","1","1","1","true","",""
"image-keyboard-response","128","240421","0.0-3.0-4.0-1.0-1.38","6642864514779d1334695e65","6662009ae78f21dd82fcd179","66620466df6da65f4762d95d","null","","null","","","","","","","","./tasks/HMM-beads/Images/WhiteBeadChoice.png","","","","","","","","","",""
"image-keyboard-response","129","240924","0.0-3.0-4.0-1.0-2.38","6642864514779d1334695e65","6662009ae78f21dd82fcd179","66620466df6da65f4762d95d","null","","null","","","","","","","","./tasks/HMM-beads/Images/WhiteBeadChoiceCorrect.png","","","","","","","","","",""
"image-keyboard-response","130","241110","0.0-3.0-4.0-1.0-0.39","6642864514779d1334695e65","6662009ae78f21dd82fcd179","66620466df6da65f4762d95d","183","","j","","","","","","","","./tasks/HMM-beads/Images/NewTrialWC.png","practice","0","39","1","1","1","1","true","",""
"image-keyboard-response","131","241413","0.0-3.0-4.0-1.0-1.39","6642864514779d1334695e65","6662009ae78f21dd82fcd179","66620466df6da65f4762d95d","null","","null","","","","","","","","./tasks/HMM-beads/Images/WhiteBeadChoice.png","","","","","","","","","",""
"image-keyboard-response","132","241916","0.0-3.0-4.0-1.0-2.39","6642864514779d1334695e65","6662009ae78f21dd82fcd179","66620466df6da65f4762d95d","null","","null","","","","","","","","./tasks/HMM-beads/Images/WhiteBeadChoiceCorrect.png","","","","","","","","","",""
"html-keyboard-response","133","245470","0.0-3.0-4.0-2.0","6642864514779d1334695e65","6662009ae78f21dd82fcd179","66620466df6da65f4762d95d","3552",""," ","","","","","","","","","","","","","","","","","",""
"instructions","134","260858","0.0-3.0-5.0","6642864514779d1334695e65","6662009ae78f21dd82fcd179","66620466df6da65f4762d95d","15386","","","","[{""page_index"":0,""viewing_time"":9358},{""page_index"":1,""viewing_time"":6028}]","","","","","","","","","","","","","","","",""
"html-keyboard-response","135","263905","0.0-3.0-6.0-0.0","6642864514779d1334695e65","6662009ae78f21dd82fcd179","66620466df6da65f4762d95d","3047",""," ","","","","","","","","<div align=center>In this block, there will be a <b>1% chance</b> that the jar on the next trial will be different from the jar on the current trial.<br><br></div>","","","","","","","","","",""
"image-keyboard-response","136","265089","0.0-3.0-6.0-1.0-0.0","6642864514779d1334695e65","6662009ae78f21dd82fcd179","66620466df6da65f4762d95d","1180","","j","","","","","","","","./tasks/HMM-beads/Images/NoChoice.png","lowH","1","0","1","0","9","1","false","",""
"image-keyboard-response","137","265394","0.0-3.0-6.0-1.0-1.0","6642864514779d1334695e65","6662009ae78f21dd82fcd179","66620466df6da65f4762d95d","null","","null","","","","","","","","./tasks/HMM-beads/Images/WhiteBeadChoice.png","","","","","","","","","",""
"image-keyboard-response","138","265899","0.0-3.0-6.0-1.0-2.0","6642864514779d1334695e65","6662009ae78f21dd82fcd179","66620466df6da65f4762d95d","null","","null","","","","","","","","./tasks/HMM-beads/Images/WhiteBeadChoiceWrong.png","","","","","","","","","",""
"image-keyboard-response","139","266425","0.0-3.0-6.0-1.0-0.1","6642864514779d1334695e65","6662009ae78f21dd82fcd179","66620466df6da65f4762d95d","523","","f","","","","","","","","./tasks/HMM-beads/Images/NewTrialBC.png","lowH","1","1","1","1","0","0","false","",""
"image-keyboard-response","140","266730","0.0-3.0-6.0-1.0-1.1","6642864514779d1334695e65","6662009ae78f21dd82fcd179","66620466df6da65f4762d95d","null","","null","","","","","","","","./tasks/HMM-beads/Images/BlackBeadChoice.png","","","","","","","","","",""
"image-keyboard-response","141","267233","0.0-3.0-6.0-1.0-2.1","6642864514779d1334695e65","6662009ae78f21dd82fcd179","66620466df6da65f4762d95d","null","","null","","","","","","","","./tasks/HMM-beads/Images/BlackBeadChoiceWrong.png","","","","","","","","","",""
"image-keyboard-response","142","267943","0.0-3.0-6.0-1.0-0.2","6642864514779d1334695e65","6662009ae78f21dd82fcd179","66620466df6da65f4762d95d","707","","j","","","","","","","","./tasks/HMM-beads/Images/NewTrialWC.png","lowH","1","2","1","1","1","1","true","",""
"image-keyboard-response","143","268247","0.0-3.0-6.0-1.0-1.2","6642864514779d1334695e65","6662009ae78f21dd82fcd179","66620466df6da65f4762d95d","null","","null","","","","","","","","./tasks/HMM-beads/Images/WhiteBeadChoice.png","","","","","","","","","",""
"image-keyboard-response","144","268751","0.0-3.0-6.0-1.0-2.2","6642864514779d1334695e65","6662009ae78f21dd82fcd179","66620466df6da65f4762d95d","null","","null","","","","","","","","./tasks/HMM-beads/Images/WhiteBeadChoiceCorrect.png","","","","","","","","","",""
"image-keyboard-response","145","269220","0.0-3.0-6.0-1.0-0.3","6642864514779d1334695e65","6662009ae78f21dd82fcd179","66620466df6da65f4762d95d","466","","j","","","","","","","","./tasks/HMM-beads/Images/NewTrialWC.png","lowH","1","3","1","1","1","1","true","",""
"image-keyboard-response","146","269525","0.0-3.0-6.0-1.0-1.3","6642864514779d1334695e65","6662009ae78f21dd82fcd179","66620466df6da65f4762d95d","null","","null","","","","","","","","./tasks/HMM-beads/Images/WhiteBeadChoice.png","","","","","","","","","",""
"image-keyboard-response","147","270029","0.0-3.0-6.0-1.0-2.3","6642864514779d1334695e65","6662009ae78f21dd82fcd179","66620466df6da65f4762d95d","null","","null","","","","","","","","./tasks/HMM-beads/Images/WhiteBeadChoiceCorrect.png","","","","","","","","","",""
"image-keyboard-response","148","270595","0.0-3.0-6.0-1.0-0.4","6642864514779d1334695e65","6662009ae78f21dd82fcd179","66620466df6da65f4762d95d","562","","j","","","","","","","","./tasks/HMM-beads/Images/NewTrialWC.png","lowH","1","4","1","1","1","1","true","",""
"image-keyboard-response","149","270900","0.0-3.0-6.0-1.0-1.4","6642864514779d1334695e65","6662009ae78f21dd82fcd179","66620466df6da65f4762d95d","null","","null","","","","","","","","./tasks/HMM-beads/Images/WhiteBeadChoice.png","","","","","","","","","",""
"image-keyboard-response","150","271404","0.0-3.0-6.0-1.0-2.4","6642864514779d1334695e65","6662009ae78f21dd82fcd179","66620466df6da65f4762d95d","null","","null","","","","","","","","./tasks/HMM-beads/Images/WhiteBeadChoiceCorrect.png","","","","","","","","","",""
"image-keyboard-response","151","271826","0.0-3.0-6.0-1.0-0.5","6642864514779d1334695e65","6662009ae78f21dd82fcd179","66620466df6da65f4762d95d","418","","j","","","","","","","","./tasks/HMM-beads/Images/NewTrialWC.png","lowH","1","5","1","1","1","1","true","",""
"image-keyboard-response","152","272129","0.0-3.0-6.0-1.0-1.5","6642864514779d1334695e65","6662009ae78f21dd82fcd179","66620466df6da65f4762d95d","null","","null","","","","","","","","./tasks/HMM-beads/Images/WhiteBeadChoice.png","","","","","","","","","",""
"image-keyboard-response","153","272633","0.0-3.0-6.0-1.0-2.5","6642864514779d1334695e65","6662009ae78f21dd82fcd179","66620466df6da65f4762d95d","null","","null","","","","","","","","./tasks/HMM-beads/Images/WhiteBeadChoiceCorrect.png","","","","","","","","","",""
"image-keyboard-response","154","272995","0.0-3.0-6.0-1.0-0.6","6642864514779d1334695e65","6662009ae78f21dd82fcd179","66620466df6da65f4762d95d","357","","j","","","","","","","","./tasks/HMM-beads/Images/NewTrialWC.png","lowH","1","6","1","0","1","1","false","",""
"image-keyboard-response","155","273299","0.0-3.0-6.0-1.0-1.6","6642864514779d1334695e65","6662009ae78f21dd82fcd179","66620466df6da65f4762d95d","null","","null","","","","","","","","./tasks/HMM-beads/Images/WhiteBeadChoice.png","","","","","","","","","",""
"image-keyboard-response","156","273803","0.0-3.0-6.0-1.0-2.6","6642864514779d1334695e65","6662009ae78f21dd82fcd179","66620466df6da65f4762d95d","null","","null","","","","","","","","./tasks/HMM-beads/Images/WhiteBeadChoiceWrong.png","","","","","","","","","",""
"image-keyboard-response","157","274117","0.0-3.0-6.0-1.0-0.7","6642864514779d1334695e65","6662009ae78f21dd82fcd179","66620466df6da65f4762d95d","310","","j","","","","","","","","./tasks/HMM-beads/Images/NewTrialBC.png","lowH","1","7","1","1","0","1","true","",""
"image-keyboard-response","158","274421","0.0-3.0-6.0-1.0-1.7","6642864514779d1334695e65","6662009ae78f21dd82fcd179","66620466df6da65f4762d95d","null","","null","","","","","","","","./tasks/HMM-beads/Images/WhiteBeadChoice.png","","","","","","","","","",""
"image-keyboard-response","159","274926","0.0-3.0-6.0-1.0-2.7","6642864514779d1334695e65","6662009ae78f21dd82fcd179","66620466df6da65f4762d95d","null","","null","","","","","","","","./tasks/HMM-beads/Images/WhiteBeadChoiceCorrect.png","","","","","","","","","",""
"image-keyboard-response","160","275241","0.0-3.0-6.0-1.0-0.8","6642864514779d1334695e65","6662009ae78f21dd82fcd179","66620466df6da65f4762d95d","312","","j","","","","","","","","./tasks/HMM-beads/Images/NewTrialWC.png","lowH","1","8","1","1","1","1","true","",""
"image-keyboard-response","161","275544","0.0-3.0-6.0-1.0-1.8","6642864514779d1334695e65","6662009ae78f21dd82fcd179","66620466df6da65f4762d95d","null","","null","","","","","","","","./tasks/HMM-beads/Images/WhiteBeadChoice.png","","","","","","","","","",""
"image-keyboard-response","162","276048","0.0-3.0-6.0-1.0-2.8","6642864514779d1334695e65","6662009ae78f21dd82fcd179","66620466df6da65f4762d95d","null","","null","","","","","","","","./tasks/HMM-beads/Images/WhiteBeadChoiceCorrect.png","","","","","","","","","",""
"image-keyboard-response","163","276349","0.0-3.0-6.0-1.0-0.9","6642864514779d1334695e65","6662009ae78f21dd82fcd179","66620466df6da65f4762d95d","297","","j","","","","","","","","./tasks/HMM-beads/Images/NewTrialWC.png","lowH","1","9","1","1","1","1","true","",""
"image-keyboard-response","164","276655","0.0-3.0-6.0-1.0-1.9","6642864514779d1334695e65","6662009ae78f21dd82fcd179","66620466df6da65f4762d95d","null","","null","","","","","","","","./tasks/HMM-beads/Images/WhiteBeadChoice.png","","","","","","","","","",""
"image-keyboard-response","165","277159","0.0-3.0-6.0-1.0-2.9","6642864514779d1334695e65","6662009ae78f21dd82fcd179","66620466df6da65f4762d95d","null","","null","","","","","","","","./tasks/HMM-beads/Images/WhiteBeadChoiceCorrect.png","","","","","","","","","",""
"image-keyboard-response","166","277557","0.0-3.0-6.0-1.0-0.10","6642864514779d1334695e65","6662009ae78f21dd82fcd179","66620466df6da65f4762d95d","395","","j","","","","","","","","./tasks/HMM-beads/Images/NewTrialWC.png","lowH","1","10","1","1","1","1","true","",""
"image-keyboard-response","167","277861","0.0-3.0-6.0-1.0-1.10","6642864514779d1334695e65","6662009ae78f21dd82fcd179","66620466df6da65f4762d95d","null","","null","","","","","","","","./tasks/HMM-beads/Images/WhiteBeadChoice.png","","","","","","","","","",""
"image-keyboard-response","168","278364","0.0-3.0-6.0-1.0-2.10","6642864514779d1334695e65","6662009ae78f21dd82fcd179","66620466df6da65f4762d95d","null","","null","","","","","","","","./tasks/HMM-beads/Images/WhiteBeadChoiceCorrect.png","","","","","","","","","",""
"image-keyboard-response","169","278667","0.0-3.0-6.0-1.0-0.11","6642864514779d1334695e65","6662009ae78f21dd82fcd179","66620466df6da65f4762d95d","299","","j","","","","","","","","./tasks/HMM-beads/Images/NewTrialWC.png","lowH","1","11","1","1","1","1","true","",""
"image-keyboard-response","170","278971","0.0-3.0-6.0-1.0-1.11","6642864514779d1334695e65","6662009ae78f21dd82fcd179","66620466df6da65f4762d95d","null","","null","","","","","","","","./tasks/HMM-beads/Images/WhiteBeadChoice.png","","","","","","","","","",""
"image-keyboard-response","171","279474","0.0-3.0-6.0-1.0-2.11","6642864514779d1334695e65","6662009ae78f21dd82fcd179","66620466df6da65f4762d95d","null","","null","","","","","","","","./tasks/HMM-beads/Images/WhiteBeadChoiceCorrect.png","","","","","","","","","",""
"image-keyboard-response","172","279821","0.0-3.0-6.0-1.0-0.12","6642864514779d1334695e65","6662009ae78f21dd82fcd179","66620466df6da65f4762d95d","343","","j","","","","","","","","./tasks/HMM-beads/Images/NewTrialWC.png","lowH","1","12","1","1","1","1","true","",""
"image-keyboard-response","173","280124","0.0-3.0-6.0-1.0-1.12","6642864514779d1334695e65","6662009ae78f21dd82fcd179","66620466df6da65f4762d95d","null","","null","","","","","","","","./tasks/HMM-beads/Images/WhiteBeadChoice.png","","","","","","","","","",""
"image-keyboard-response","174","280630","0.0-3.0-6.0-1.0-2.12","6642864514779d1334695e65","6662009ae78f21dd82fcd179","66620466df6da65f4762d95d","null","","null","","","","","","","","./tasks/HMM-beads/Images/WhiteBeadChoiceCorrect.png","","","","","","","","","",""
"image-keyboard-response","175","281047","0.0-3.0-6.0-1.0-0.13","6642864514779d1334695e65","6662009ae78f21dd82fcd179","66620466df6da65f4762d95d","414","","j","","","","","","","","./tasks/HMM-beads/Images/NewTrialWC.png","lowH","1","13","1","0","1","1","false","",""
"image-keyboard-response","176","281351","0.0-3.0-6.0-1.0-1.13","6642864514779d1334695e65","6662009ae78f21dd82fcd179","66620466df6da65f4762d95d","null","","null","","","","","","","","./tasks/HMM-beads/Images/WhiteBeadChoice.png","","","","","","","","","",""
"image-keyboard-response","177","281855","0.0-3.0-6.0-1.0-2.13","6642864514779d1334695e65","6662009ae78f21dd82fcd179","66620466df6da65f4762d95d","null","","null","","","","","","","","./tasks/HMM-beads/Images/WhiteBeadChoiceWrong.png","","","","","","","","","",""
"image-keyboard-response","178","282218","0.0-3.0-6.0-1.0-0.14","6642864514779d1334695e65","6662009ae78f21dd82fcd179","66620466df6da65f4762d95d","359","","j","","","","","","","","./tasks/HMM-beads/Images/NewTrialBC.png","lowH","1","14","1","0","0","1","false","",""
"image-keyboard-response","179","282522","0.0-3.0-6.0-1.0-1.14","6642864514779d1334695e65","6662009ae78f21dd82fcd179","66620466df6da65f4762d95d","null","","null","","","","","","","","./tasks/HMM-beads/Images/WhiteBeadChoice.png","","","","","","","","","",""
"image-keyboard-response","180","283026","0.0-3.0-6.0-1.0-2.14","6642864514779d1334695e65","6662009ae78f21dd82fcd179","66620466df6da65f4762d95d","null","","null","","","","","","","","./tasks/HMM-beads/Images/WhiteBeadChoiceWrong.png","","","","","","","","","",""
"image-keyboard-response","181","283625","0.0-3.0-6.0-1.0-0.15","6642864514779d1334695e65","6662009ae78f21dd82fcd179","66620466df6da65f4762d95d","596","","j","","","","","","","","./tasks/HMM-beads/Images/NewTrialBC.png","lowH","1","15","1","1","0","1","true","",""
"image-keyboard-response","182","283929","0.0-3.0-6.0-1.0-1.15","6642864514779d1334695e65","6662009ae78f21dd82fcd179","66620466df6da65f4762d95d","null","","null","","","","","","","","./tasks/HMM-beads/Images/WhiteBeadChoice.png","","","","","","","","","",""
"image-keyboard-response","183","284431","0.0-3.0-6.0-1.0-2.15","6642864514779d1334695e65","6662009ae78f21dd82fcd179","66620466df6da65f4762d95d","null","","null","","","","","","","","./tasks/HMM-beads/Images/WhiteBeadChoiceCorrect.png","","","","","","","","","",""
"image-keyboard-response","184","284880","0.0-3.0-6.0-1.0-0.16","6642864514779d1334695e65","6662009ae78f21dd82fcd179","66620466df6da65f4762d95d","446","","j","","","","","","","","./tasks/HMM-beads/Images/NewTrialWC.png","lowH","1","16","1","1","1","1","true","",""
"image-keyboard-response","185","285184","0.0-3.0-6.0-1.0-1.16","6642864514779d1334695e65","6662009ae78f21dd82fcd179","66620466df6da65f4762d95d","null","","null","","","","","","","","./tasks/HMM-beads/Images/WhiteBeadChoice.png","","","","","","","","","",""
"image-keyboard-response","186","285691","0.0-3.0-6.0-1.0-2.16","6642864514779d1334695e65","6662009ae78f21dd82fcd179","66620466df6da65f4762d95d","null","","null","","","","","","","","./tasks/HMM-beads/Images/WhiteBeadChoiceCorrect.png","","","","","","","","","",""
"image-keyboard-response","187","286025","0.0-3.0-6.0-1.0-0.17","6642864514779d1334695e65","6662009ae78f21dd82fcd179","66620466df6da65f4762d95d","329","","j","","","","","","","","./tasks/HMM-beads/Images/NewTrialWC.png","lowH","1","17","1","1","1","1","true","",""
"image-keyboard-response","188","286328","0.0-3.0-6.0-1.0-1.17","6642864514779d1334695e65","6662009ae78f21dd82fcd179","66620466df6da65f4762d95d","null","","null","","","","","","","","./tasks/HMM-beads/Images/WhiteBeadChoice.png","","","","","","","","","",""
"image-keyboard-response","189","286832","0.0-3.0-6.0-1.0-2.17","6642864514779d1334695e65","6662009ae78f21dd82fcd179","66620466df6da65f4762d95d","null","","null","","","","","","","","./tasks/HMM-beads/Images/WhiteBeadChoiceCorrect.png","","","","","","","","","",""
"image-keyboard-response","190","287096","0.0-3.0-6.0-1.0-0.18","6642864514779d1334695e65","6662009ae78f21dd82fcd179","66620466df6da65f4762d95d","261","","j","","","","","","","","./tasks/HMM-beads/Images/NewTrialWC.png","lowH","1","18","1","1","1","1","true","",""
"image-keyboard-response","191","287400","0.0-3.0-6.0-1.0-1.18","6642864514779d1334695e65","6662009ae78f21dd82fcd179","66620466df6da65f4762d95d","null","","null","","","","","","","","./tasks/HMM-beads/Images/WhiteBeadChoice.png","","","","","","","","","",""
"image-keyboard-response","192","287904","0.0-3.0-6.0-1.0-2.18","6642864514779d1334695e65","6662009ae78f21dd82fcd179","66620466df6da65f4762d95d","null","","null","","","","","","","","./tasks/HMM-beads/Images/WhiteBeadChoiceCorrect.png","","","","","","","","","",""
"image-keyboard-response","193","288341","0.0-3.0-6.0-1.0-0.19","6642864514779d1334695e65","6662009ae78f21dd82fcd179","66620466df6da65f4762d95d","434","","j","","","","","","","","./tasks/HMM-beads/Images/NewTrialWC.png","lowH","1","19","1","1","1","1","true","",""
"image-keyboard-response","194","288648","0.0-3.0-6.0-1.0-1.19","6642864514779d1334695e65","6662009ae78f21dd82fcd179","66620466df6da65f4762d95d","null","","null","","","","","","","","./tasks/HMM-beads/Images/WhiteBeadChoice.png","","","","","","","","","",""
"image-keyboard-response","195","289153","0.0-3.0-6.0-1.0-2.19","6642864514779d1334695e65","6662009ae78f21dd82fcd179","66620466df6da65f4762d95d","null","","null","","","","","","","","./tasks/HMM-beads/Images/WhiteBeadChoiceCorrect.png","","","","","","","","","",""
"image-keyboard-response","196","289639","0.0-3.0-6.0-1.0-0.20","6642864514779d1334695e65","6662009ae78f21dd82fcd179","66620466df6da65f4762d95d","482","","j","","","","","","","","./tasks/HMM-beads/Images/NewTrialWC.png","lowH","1","20","1","1","1","1","true","",""
"image-keyboard-response","197","289942","0.0-3.0-6.0-1.0-1.20","6642864514779d1334695e65","6662009ae78f21dd82fcd179","66620466df6da65f4762d95d","null","","null","","","","","","","","./tasks/HMM-beads/Images/WhiteBeadChoice.png","","","","","","","","","",""
"image-keyboard-response","198","290448","0.0-3.0-6.0-1.0-2.20","6642864514779d1334695e65","6662009ae78f21dd82fcd179","66620466df6da65f4762d95d","null","","null","","","","","","","","./tasks/HMM-beads/Images/WhiteBeadChoiceCorrect.png","","","","","","","","","",""
"image-keyboard-response","199","290831","0.0-3.0-6.0-1.0-0.21","6642864514779d1334695e65","6662009ae78f21dd82fcd179","66620466df6da65f4762d95d","380","","j","","","","","","","","./tasks/HMM-beads/Images/NewTrialWC.png","lowH","1","21","1","1","1","1","true","",""
"image-keyboard-response","200","291135","0.0-3.0-6.0-1.0-1.21","6642864514779d1334695e65","6662009ae78f21dd82fcd179","66620466df6da65f4762d95d","null","","null","","","","","","","","./tasks/HMM-beads/Images/WhiteBeadChoice.png","","","","","","","","","",""
"image-keyboard-response","201","291639","0.0-3.0-6.0-1.0-2.21","6642864514779d1334695e65","6662009ae78f21dd82fcd179","66620466df6da65f4762d95d","null","","null","","","","","","","","./tasks/HMM-beads/Images/WhiteBeadChoiceCorrect.png","","","","","","","","","",""
"image-keyboard-response","202","291875","0.0-3.0-6.0-1.0-0.22","6642864514779d1334695e65","6662009ae78f21dd82fcd179","66620466df6da65f4762d95d","230","","j","","","","","","","","./tasks/HMM-beads/Images/NewTrialWC.png","lowH","1","22","1","1","1","1","true","",""
"image-keyboard-response","203","292178","0.0-3.0-6.0-1.0-1.22","6642864514779d1334695e65","6662009ae78f21dd82fcd179","66620466df6da65f4762d95d","null","","null","","","","","","","","./tasks/HMM-beads/Images/WhiteBeadChoice.png","","","","","","","","","",""
"image-keyboard-response","204","292683","0.0-3.0-6.0-1.0-2.22","6642864514779d1334695e65","6662009ae78f21dd82fcd179","66620466df6da65f4762d95d","null","","null","","","","","","","","./tasks/HMM-beads/Images/WhiteBeadChoiceCorrect.png","","","","","","","","","",""
"image-keyboard-response","205","293019","0.0-3.0-6.0-1.0-0.23","6642864514779d1334695e65","6662009ae78f21dd82fcd179","66620466df6da65f4762d95d","332","","j","","","","","","","","./tasks/HMM-beads/Images/NewTrialWC.png","lowH","1","23","1","1","1","1","true","",""
"image-keyboard-response","206","293323","0.0-3.0-6.0-1.0-1.23","6642864514779d1334695e65","6662009ae78f21dd82fcd179","66620466df6da65f4762d95d","null","","null","","","","","","","","./tasks/HMM-beads/Images/WhiteBeadChoice.png","","","","","","","","","",""
"image-keyboard-response","207","293827","0.0-3.0-6.0-1.0-2.23","6642864514779d1334695e65","6662009ae78f21dd82fcd179","66620466df6da65f4762d95d","null","","null","","","","","","","","./tasks/HMM-beads/Images/WhiteBeadChoiceCorrect.png","","","","","","","","","",""
"image-keyboard-response","208","294135","0.0-3.0-6.0-1.0-0.24","6642864514779d1334695e65","6662009ae78f21dd82fcd179","66620466df6da65f4762d95d","305","","j","","","","","","","","./tasks/HMM-beads/Images/NewTrialWC.png","lowH","1","24","1","0","1","1","false","",""
"image-keyboard-response","209","294439","0.0-3.0-6.0-1.0-1.24","6642864514779d1334695e65","6662009ae78f21dd82fcd179","66620466df6da65f4762d95d","null","","null","","","","","","","","./tasks/HMM-beads/Images/WhiteBeadChoice.png","","","","","","","","","",""
"image-keyboard-response","210","294944","0.0-3.0-6.0-1.0-2.24","6642864514779d1334695e65","6662009ae78f21dd82fcd179","66620466df6da65f4762d95d","null","","null","","","","","","","","./tasks/HMM-beads/Images/WhiteBeadChoiceWrong.png","","","","","","","","","",""
"image-keyboard-response","211","295250","0.0-3.0-6.0-1.0-0.25","6642864514779d1334695e65","6662009ae78f21dd82fcd179","66620466df6da65f4762d95d","297","","j","","","","","","","","./tasks/HMM-beads/Images/NewTrialBC.png","lowH","1","25","1","1","0","1","true","",""
"image-keyboard-response","212","295554","0.0-3.0-6.0-1.0-1.25","6642864514779d1334695e65","6662009ae78f21dd82fcd179","66620466df6da65f4762d95d","null","","null","","","","","","","","./tasks/HMM-beads/Images/WhiteBeadChoice.png","","","","","","","","","",""
"image-keyboard-response","213","296059","0.0-3.0-6.0-1.0-2.25","6642864514779d1334695e65","6662009ae78f21dd82fcd179","66620466df6da65f4762d95d","null","","null","","","","","","","","./tasks/HMM-beads/Images/WhiteBeadChoiceCorrect.png","","","","","","","","","",""
"image-keyboard-response","214","296359","0.0-3.0-6.0-1.0-0.26","6642864514779d1334695e65","6662009ae78f21dd82fcd179","66620466df6da65f4762d95d","297","","j","","","","","","","","./tasks/HMM-beads/Images/NewTrialWC.png","lowH","1","26","1","0","1","1","false","",""
"image-keyboard-response","215","296662","0.0-3.0-6.0-1.0-1.26","6642864514779d1334695e65","6662009ae78f21dd82fcd179","66620466df6da65f4762d95d","null","","null","","","","","","","","./tasks/HMM-beads/Images/WhiteBeadChoice.png","","","","","","","","","",""
"image-keyboard-response","216","297166","0.0-3.0-6.0-1.0-2.26","6642864514779d1334695e65","6662009ae78f21dd82fcd179","66620466df6da65f4762d95d","null","","null","","","","","","","","./tasks/HMM-beads/Images/WhiteBeadChoiceWrong.png","","","","","","","","","",""
"image-keyboard-response","217","297399","0.0-3.0-6.0-1.0-0.27","6642864514779d1334695e65","6662009ae78f21dd82fcd179","66620466df6da65f4762d95d","231","","j","","","","","","","","./tasks/HMM-beads/Images/NewTrialBC.png","lowH","1","27","1","1","0","1","true","",""
"image-keyboard-response","218","297704","0.0-3.0-6.0-1.0-1.27","6642864514779d1334695e65","6662009ae78f21dd82fcd179","66620466df6da65f4762d95d","null","","null","","","","","","","","./tasks/HMM-beads/Images/WhiteBeadChoice.png","","","","","","","","","",""
"image-keyboard-response","219","298208","0.0-3.0-6.0-1.0-2.27","6642864514779d1334695e65","6662009ae78f21dd82fcd179","66620466df6da65f4762d95d","null","","null","","","","","","","","./tasks/HMM-beads/Images/WhiteBeadChoiceCorrect.png","","","","","","","","","",""
"image-keyboard-response","220","298535","0.0-3.0-6.0-1.0-0.28","6642864514779d1334695e65","6662009ae78f21dd82fcd179","66620466df6da65f4762d95d","321","","j","","","","","","","","./tasks/HMM-beads/Images/NewTrialWC.png","lowH","1","28","1","1","1","1","true","",""
"image-keyboard-response","221","298839","0.0-3.0-6.0-1.0-1.28","6642864514779d1334695e65","6662009ae78f21dd82fcd179","66620466df6da65f4762d95d","null","","null","","","","","","","","./tasks/HMM-beads/Images/WhiteBeadChoice.png","","","","","","","","","",""
"image-keyboard-response","222","299343","0.0-3.0-6.0-1.0-2.28","6642864514779d1334695e65","6662009ae78f21dd82fcd179","66620466df6da65f4762d95d","null","","null","","","","","","","","./tasks/HMM-beads/Images/WhiteBeadChoiceCorrect.png","","","","","","","","","",""
"image-keyboard-response","223","299596","0.0-3.0-6.0-1.0-0.29","6642864514779d1334695e65","6662009ae78f21dd82fcd179","66620466df6da65f4762d95d","249","","j","","","","","","","","./tasks/HMM-beads/Images/NewTrialWC.png","lowH","1","29","1","1","1","1","true","",""
"image-keyboard-response","224","299900","0.0-3.0-6.0-1.0-1.29","6642864514779d1334695e65","6662009ae78f21dd82fcd179","66620466df6da65f4762d95d","null","","null","","","","","","","","./tasks/HMM-beads/Images/WhiteBeadChoice.png","","","","","","","","","",""
"image-keyboard-response","225","300403","0.0-3.0-6.0-1.0-2.29","6642864514779d1334695e65","6662009ae78f21dd82fcd179","66620466df6da65f4762d95d","null","","null","","","","","","","","./tasks/HMM-beads/Images/WhiteBeadChoiceCorrect.png","","","","","","","","","",""
"image-keyboard-response","226","300692","0.0-3.0-6.0-1.0-0.30","6642864514779d1334695e65","6662009ae78f21dd82fcd179","66620466df6da65f4762d95d","280","","j","","","","","","","","./tasks/HMM-beads/Images/NewTrialWC.png","lowH","1","30","1","1","1","1","true","",""
"image-keyboard-response","227","300996","0.0-3.0-6.0-1.0-1.30","6642864514779d1334695e65","6662009ae78f21dd82fcd179","66620466df6da65f4762d95d","null","","null","","","","","","","","./tasks/HMM-beads/Images/WhiteBeadChoice.png","","","","","","","","","",""
"image-keyboard-response","228","301500","0.0-3.0-6.0-1.0-2.30","6642864514779d1334695e65","6662009ae78f21dd82fcd179","66620466df6da65f4762d95d","null","","null","","","","","","","","./tasks/HMM-beads/Images/WhiteBeadChoiceCorrect.png","","","","","","","","","",""
"image-keyboard-response","229","301598","0.0-3.0-6.0-1.0-0.31","6642864514779d1334695e65","6662009ae78f21dd82fcd179","66620466df6da65f4762d95d","95","","j","","","","","","","","./tasks/HMM-beads/Images/NewTrialWC.png","lowH","1","31","1","1","1","1","true","",""
"image-keyboard-response","230","301902","0.0-3.0-6.0-1.0-1.31","6642864514779d1334695e65","6662009ae78f21dd82fcd179","66620466df6da65f4762d95d","null","","null","","","","","","","","./tasks/HMM-beads/Images/WhiteBeadChoice.png","","","","","","","","","",""
"image-keyboard-response","231","302406","0.0-3.0-6.0-1.0-2.31","6642864514779d1334695e65","6662009ae78f21dd82fcd179","66620466df6da65f4762d95d","null","","null","","","","","","","","./tasks/HMM-beads/Images/WhiteBeadChoiceCorrect.png","","","","","","","","","",""
"image-keyboard-response","232","302542","0.0-3.0-6.0-1.0-0.32","6642864514779d1334695e65","6662009ae78f21dd82fcd179","66620466df6da65f4762d95d","133","","j","","","","","","","","./tasks/HMM-beads/Images/NewTrialWC.png","lowH","1","32","1","1","1","1","true","",""
"image-keyboard-response","233","302845","0.0-3.0-6.0-1.0-1.32","6642864514779d1334695e65","6662009ae78f21dd82fcd179","66620466df6da65f4762d95d","null","","null","","","","","","","","./tasks/HMM-beads/Images/WhiteBeadChoice.png","","","","","","","","","",""
"image-keyboard-response","234","303350","0.0-3.0-6.0-1.0-2.32","6642864514779d1334695e65","6662009ae78f21dd82fcd179","66620466df6da65f4762d95d","null","","null","","","","","","","","./tasks/HMM-beads/Images/WhiteBeadChoiceCorrect.png","","","","","","","","","",""
"image-keyboard-response","235","303411","0.0-3.0-6.0-1.0-0.33","6642864514779d1334695e65","6662009ae78f21dd82fcd179","66620466df6da65f4762d95d","57","","j","","","","","","","","./tasks/HMM-beads/Images/NewTrialWC.png","lowH","1","33","1","1","1","1","true","",""
"image-keyboard-response","236","303714","0.0-3.0-6.0-1.0-1.33","6642864514779d1334695e65","6662009ae78f21dd82fcd179","66620466df6da65f4762d95d","null","","null","","","","","","","","./tasks/HMM-beads/Images/WhiteBeadChoice.png","","","","","","","","","",""
"image-keyboard-response","237","304219","0.0-3.0-6.0-1.0-2.33","6642864514779d1334695e65","6662009ae78f21dd82fcd179","66620466df6da65f4762d95d","null","","null","","","","","","","","./tasks/HMM-beads/Images/WhiteBeadChoiceCorrect.png","","","","","","","","","",""
"image-keyboard-response","238","305388","0.0-3.0-6.0-1.0-0.34","6642864514779d1334695e65","6662009ae78f21dd82fcd179","66620466df6da65f4762d95d","1166","","j","","","","","","","","./tasks/HMM-beads/Images/NewTrialWC.png","lowH","1","34","1","1","1","1","true","",""
"image-keyboard-response","239","305692","0.0-3.0-6.0-1.0-1.34","6642864514779d1334695e65","6662009ae78f21dd82fcd179","66620466df6da65f4762d95d","null","","null","","","","","","","","./tasks/HMM-beads/Images/WhiteBeadChoice.png","","","","","","","","","",""
"image-keyboard-response","240","306197","0.0-3.0-6.0-1.0-2.34","6642864514779d1334695e65","6662009ae78f21dd82fcd179","66620466df6da65f4762d95d","null","","null","","","","","","","","./tasks/HMM-beads/Images/WhiteBeadChoiceCorrect.png","","","","","","","","","",""
"image-keyboard-response","241","306636","0.0-3.0-6.0-1.0-0.35","6642864514779d1334695e65","6662009ae78f21dd82fcd179","66620466df6da65f4762d95d","435","","j","","","","","","","","./tasks/HMM-beads/Images/NewTrialWC.png","lowH","1","35","1","1","1","1","true","",""
"image-keyboard-response","242","306940","0.0-3.0-6.0-1.0-1.35","6642864514779d1334695e65","6662009ae78f21dd82fcd179","66620466df6da65f4762d95d","null","","null","","","","","","","","./tasks/HMM-beads/Images/WhiteBeadChoice.png","","","","","","","","","",""
"image-keyboard-response","243","307445","0.0-3.0-6.0-1.0-2.35","6642864514779d1334695e65","6662009ae78f21dd82fcd179","66620466df6da65f4762d95d","null","","null","","","","","","","","./tasks/HMM-beads/Images/WhiteBeadChoiceCorrect.png","","","","","","","","","",""
"image-keyboard-response","244","307857","0.0-3.0-6.0-1.0-0.36","6642864514779d1334695e65","6662009ae78f21dd82fcd179","66620466df6da65f4762d95d","405","","j","","","","","","","","./tasks/HMM-beads/Images/NewTrialWC.png","lowH","1","36","1","1","1","1","true","",""
"image-keyboard-response","245","308162","0.0-3.0-6.0-1.0-1.36","6642864514779d1334695e65","6662009ae78f21dd82fcd179","66620466df6da65f4762d95d","null","","null","","","","","","","","./tasks/HMM-beads/Images/WhiteBeadChoice.png","","","","","","","","","",""
"image-keyboard-response","246","308668","0.0-3.0-6.0-1.0-2.36","6642864514779d1334695e65","6662009ae78f21dd82fcd179","66620466df6da65f4762d95d","null","","null","","","","","","","","./tasks/HMM-beads/Images/WhiteBeadChoiceCorrect.png","","","","","","","","","",""
"image-keyboard-response","247","309099","0.0-3.0-6.0-1.0-0.37","6642864514779d1334695e65","6662009ae78f21dd82fcd179","66620466df6da65f4762d95d","427","","j","","","","","","","","./tasks/HMM-beads/Images/NewTrialWC.png","lowH","1","37","1","1","1","1","true","",""
"image-keyboard-response","248","309404","0.0-3.0-6.0-1.0-1.37","6642864514779d1334695e65","6662009ae78f21dd82fcd179","66620466df6da65f4762d95d","null","","null","","","","","","","","./tasks/HMM-beads/Images/WhiteBeadChoice.png","","","","","","","","","",""
"image-keyboard-response","249","309907","0.0-3.0-6.0-1.0-2.37","6642864514779d1334695e65","6662009ae78f21dd82fcd179","66620466df6da65f4762d95d","null","","null","","","","","","","","./tasks/HMM-beads/Images/WhiteBeadChoiceCorrect.png","","","","","","","","","",""
"image-keyboard-response","250","310319","0.0-3.0-6.0-1.0-0.38","6642864514779d1334695e65","6662009ae78f21dd82fcd179","66620466df6da65f4762d95d","408","","j","","","","","","","","./tasks/HMM-beads/Images/NewTrialWC.png","lowH","1","38","1","1","1","1","true","",""
"image-keyboard-response","251","310623","0.0-3.0-6.0-1.0-1.38","6642864514779d1334695e65","6662009ae78f21dd82fcd179","66620466df6da65f4762d95d","null","","null","","","","","","","","./tasks/HMM-beads/Images/WhiteBeadChoice.png","","","","","","","","","",""
"image-keyboard-response","252","311128","0.0-3.0-6.0-1.0-2.38","6642864514779d1334695e65","6662009ae78f21dd82fcd179","66620466df6da65f4762d95d","null","","null","","","","","","","","./tasks/HMM-beads/Images/WhiteBeadChoiceCorrect.png","","","","","","","","","",""
"image-keyboard-response","253","311507","0.0-3.0-6.0-1.0-0.39","6642864514779d1334695e65","6662009ae78f21dd82fcd179","66620466df6da65f4762d95d","374","","j","","","","","","","","./tasks/HMM-beads/Images/NewTrialWC.png","lowH","1","39","1","1","1","1","true","",""
"image-keyboard-response","254","311811","0.0-3.0-6.0-1.0-1.39","6642864514779d1334695e65","6662009ae78f21dd82fcd179","66620466df6da65f4762d95d","null","","null","","","","","","","","./tasks/HMM-beads/Images/WhiteBeadChoice.png","","","","","","","","","",""
"image-keyboard-response","255","312316","0.0-3.0-6.0-1.0-2.39","6642864514779d1334695e65","6662009ae78f21dd82fcd179","66620466df6da65f4762d95d","null","","null","","","","","","","","./tasks/HMM-beads/Images/WhiteBeadChoiceCorrect.png","","","","","","","","","",""
"image-keyboard-response","256","312748","0.0-3.0-6.0-1.0-0.40","6642864514779d1334695e65","6662009ae78f21dd82fcd179","66620466df6da65f4762d95d","429","","j","","","","","","","","./tasks/HMM-beads/Images/NewTrialWC.png","lowH","1","40","1","1","1","1","true","",""
"image-keyboard-response","257","313052","0.0-3.0-6.0-1.0-1.40","6642864514779d1334695e65","6662009ae78f21dd82fcd179","66620466df6da65f4762d95d","null","","null","","","","","","","","./tasks/HMM-beads/Images/WhiteBeadChoice.png","","","","","","","","","",""
"image-keyboard-response","258","313555","0.0-3.0-6.0-1.0-2.40","6642864514779d1334695e65","6662009ae78f21dd82fcd179","66620466df6da65f4762d95d","null","","null","","","","","","","","./tasks/HMM-beads/Images/WhiteBeadChoiceCorrect.png","","","","","","","","","",""
"image-keyboard-response","259","313915","0.0-3.0-6.0-1.0-0.41","6642864514779d1334695e65","6662009ae78f21dd82fcd179","66620466df6da65f4762d95d","355","","j","","","","","","","","./tasks/HMM-beads/Images/NewTrialWC.png","lowH","1","41","1","1","1","1","true","",""
"image-keyboard-response","260","314219","0.0-3.0-6.0-1.0-1.41","6642864514779d1334695e65","6662009ae78f21dd82fcd179","66620466df6da65f4762d95d","null","","null","","","","","","","","./tasks/HMM-beads/Images/WhiteBeadChoice.png","","","","","","","","","",""
"image-keyboard-response","261","314722","0.0-3.0-6.0-1.0-2.41","6642864514779d1334695e65","6662009ae78f21dd82fcd179","66620466df6da65f4762d95d","null","","null","","","","","","","","./tasks/HMM-beads/Images/WhiteBeadChoiceCorrect.png","","","","","","","","","",""
"image-keyboard-response","262","315033","0.0-3.0-6.0-1.0-0.42","6642864514779d1334695e65","6662009ae78f21dd82fcd179","66620466df6da65f4762d95d","307","","j","","","","","","","","./tasks/HMM-beads/Images/NewTrialWC.png","lowH","1","42","1","1","1","1","true","",""
"image-keyboard-response","263","315337","0.0-3.0-6.0-1.0-1.42","6642864514779d1334695e65","6662009ae78f21dd82fcd179","66620466df6da65f4762d95d","null","","null","","","","","","","","./tasks/HMM-beads/Images/WhiteBeadChoice.png","","","","","","","","","",""
"image-keyboard-response","264","315844","0.0-3.0-6.0-1.0-2.42","6642864514779d1334695e65","6662009ae78f21dd82fcd179","66620466df6da65f4762d95d","null","","null","","","","","","","","./tasks/HMM-beads/Images/WhiteBeadChoiceCorrect.png","","","","","","","","","",""
"image-keyboard-response","265","316118","0.0-3.0-6.0-1.0-0.43","6642864514779d1334695e65","6662009ae78f21dd82fcd179","66620466df6da65f4762d95d","269","","j","","","","","","","","./tasks/HMM-beads/Images/NewTrialWC.png","lowH","1","43","1","1","1","1","true","",""
"image-keyboard-response","266","316423","0.0-3.0-6.0-1.0-1.43","6642864514779d1334695e65","6662009ae78f21dd82fcd179","66620466df6da65f4762d95d","null","","null","","","","","","","","./tasks/HMM-beads/Images/WhiteBeadChoice.png","","","","","","","","","",""
"image-keyboard-response","267","316926","0.0-3.0-6.0-1.0-2.43","6642864514779d1334695e65","6662009ae78f21dd82fcd179","66620466df6da65f4762d95d","null","","null","","","","","","","","./tasks/HMM-beads/Images/WhiteBeadChoiceCorrect.png","","","","","","","","","",""
"image-keyboard-response","268","317228","0.0-3.0-6.0-1.0-0.44","6642864514779d1334695e65","6662009ae78f21dd82fcd179","66620466df6da65f4762d95d","298","","j","","","","","","","","./tasks/HMM-beads/Images/NewTrialWC.png","lowH","1","44","1","1","1","1","true","",""
"image-keyboard-response","269","317531","0.0-3.0-6.0-1.0-1.44","6642864514779d1334695e65","6662009ae78f21dd82fcd179","66620466df6da65f4762d95d","null","","null","","","","","","","","./tasks/HMM-beads/Images/WhiteBeadChoice.png","","","","","","","","","",""
"image-keyboard-response","270","318034","0.0-3.0-6.0-1.0-2.44","6642864514779d1334695e65","6662009ae78f21dd82fcd179","66620466df6da65f4762d95d","null","","null","","","","","","","","./tasks/HMM-beads/Images/WhiteBeadChoiceCorrect.png","","","","","","","","","",""
"image-keyboard-response","271","318323","0.0-3.0-6.0-1.0-0.45","6642864514779d1334695e65","6662009ae78f21dd82fcd179","66620466df6da65f4762d95d","284","","j","","","","","","","","./tasks/HMM-beads/Images/NewTrialWC.png","lowH","1","45","1","1","1","1","true","",""
"image-keyboard-response","272","318626","0.0-3.0-6.0-1.0-1.45","6642864514779d1334695e65","6662009ae78f21dd82fcd179","66620466df6da65f4762d95d","null","","null","","","","","","","","./tasks/HMM-beads/Images/WhiteBeadChoice.png","","","","","","","","","",""
"image-keyboard-response","273","319129","0.0-3.0-6.0-1.0-2.45","6642864514779d1334695e65","6662009ae78f21dd82fcd179","66620466df6da65f4762d95d","null","","null","","","","","","","","./tasks/HMM-beads/Images/WhiteBeadChoiceCorrect.png","","","","","","","","","",""
"image-keyboard-response","274","319521","0.0-3.0-6.0-1.0-0.46","6642864514779d1334695e65","6662009ae78f21dd82fcd179","66620466df6da65f4762d95d","385","","j","","","","","","","","./tasks/HMM-beads/Images/NewTrialWC.png","lowH","1","46","1","1","1","1","true","",""
"image-keyboard-response","275","319824","0.0-3.0-6.0-1.0-1.46","6642864514779d1334695e65","6662009ae78f21dd82fcd179","66620466df6da65f4762d95d","null","","null","","","","","","","","./tasks/HMM-beads/Images/WhiteBeadChoice.png","","","","","","","","","",""
"image-keyboard-response","276","320327","0.0-3.0-6.0-1.0-2.46","6642864514779d1334695e65","6662009ae78f21dd82fcd179","66620466df6da65f4762d95d","null","","null","","","","","","","","./tasks/HMM-beads/Images/WhiteBeadChoiceCorrect.png","","","","","","","","","",""
"image-keyboard-response","277","320626","0.0-3.0-6.0-1.0-0.47","6642864514779d1334695e65","6662009ae78f21dd82fcd179","66620466df6da65f4762d95d","294","","j","","","","","","","","./tasks/HMM-beads/Images/NewTrialWC.png","lowH","1","47","1","0","1","1","false","",""
"image-keyboard-response","278","320929","0.0-3.0-6.0-1.0-1.47","6642864514779d1334695e65","6662009ae78f21dd82fcd179","66620466df6da65f4762d95d","null","","null","","","","","","","","./tasks/HMM-beads/Images/WhiteBeadChoice.png","","","","","","","","","",""
"image-keyboard-response","279","321433","0.0-3.0-6.0-1.0-2.47","6642864514779d1334695e65","6662009ae78f21dd82fcd179","66620466df6da65f4762d95d","null","","null","","","","","","","","./tasks/HMM-beads/Images/WhiteBeadChoiceWrong.png","","","","","","","","","",""
"image-keyboard-response","280","321754","0.0-3.0-6.0-1.0-0.48","6642864514779d1334695e65","6662009ae78f21dd82fcd179","66620466df6da65f4762d95d","318","","j","","","","","","","","./tasks/HMM-beads/Images/NewTrialBC.png","lowH","1","48","1","0","0","1","false","",""
"image-keyboard-response","281","322057","0.0-3.0-6.0-1.0-1.48","6642864514779d1334695e65","6662009ae78f21dd82fcd179","66620466df6da65f4762d95d","null","","null","","","","","","","","./tasks/HMM-beads/Images/WhiteBeadChoice.png","","","","","","","","","",""
"image-keyboard-response","282","322561","0.0-3.0-6.0-1.0-2.48","6642864514779d1334695e65","6662009ae78f21dd82fcd179","66620466df6da65f4762d95d","null","","null","","","","","","","","./tasks/HMM-beads/Images/WhiteBeadChoiceWrong.png","","","","","","","","","",""
"image-keyboard-response","283","323090","0.0-3.0-6.0-1.0-0.49","6642864514779d1334695e65","6662009ae78f21dd82fcd179","66620466df6da65f4762d95d","523","","j","","","","","","","","./tasks/HMM-beads/Images/NewTrialBC.png","lowH","1","49","1","0","0","1","false","",""
"image-keyboard-response","284","323394","0.0-3.0-6.0-1.0-1.49","6642864514779d1334695e65","6662009ae78f21dd82fcd179","66620466df6da65f4762d95d","null","","null","","","","","","","","./tasks/HMM-beads/Images/WhiteBeadChoice.png","","","","","","","","","",""
"image-keyboard-response","285","323900","0.0-3.0-6.0-1.0-2.49","6642864514779d1334695e65","6662009ae78f21dd82fcd179","66620466df6da65f4762d95d","null","","null","","","","","","","","./tasks/HMM-beads/Images/WhiteBeadChoiceWrong.png","","","","","","","","","",""
"image-keyboard-response","286","324158","0.0-3.0-6.0-1.0-0.50","6642864514779d1334695e65","6662009ae78f21dd82fcd179","66620466df6da65f4762d95d","254","","f","","","","","","","","./tasks/HMM-beads/Images/NewTrialBC.png","lowH","1","50","1","1","0","0","false","",""
"image-keyboard-response","287","324461","0.0-3.0-6.0-1.0-1.50","6642864514779d1334695e65","6662009ae78f21dd82fcd179","66620466df6da65f4762d95d","null","","null","","","","","","","","./tasks/HMM-beads/Images/BlackBeadChoice.png","","","","","","","","","",""
"image-keyboard-response","288","324964","0.0-3.0-6.0-1.0-2.50","6642864514779d1334695e65","6662009ae78f21dd82fcd179","66620466df6da65f4762d95d","null","","null","","","","","","","","./tasks/HMM-beads/Images/BlackBeadChoiceWrong.png","","","","","","","","","",""
"image-keyboard-response","289","326308","0.0-3.0-6.0-1.0-0.51","6642864514779d1334695e65","6662009ae78f21dd82fcd179","66620466df6da65f4762d95d","1340","","j","","","","","","","","./tasks/HMM-beads/Images/NewTrialWC.png","lowH","1","51","1","1","1","1","true","",""
"image-keyboard-response","290","326613","0.0-3.0-6.0-1.0-1.51","6642864514779d1334695e65","6662009ae78f21dd82fcd179","66620466df6da65f4762d95d","null","","null","","","","","","","","./tasks/HMM-beads/Images/WhiteBeadChoice.png","","","","","","","","","",""
"image-keyboard-response","291","327117","0.0-3.0-6.0-1.0-2.51","6642864514779d1334695e65","6662009ae78f21dd82fcd179","66620466df6da65f4762d95d","null","","null","","","","","","","","./tasks/HMM-beads/Images/WhiteBeadChoiceCorrect.png","","","","","","","","","",""
"image-keyboard-response","292","327533","0.0-3.0-6.0-1.0-0.52","6642864514779d1334695e65","6662009ae78f21dd82fcd179","66620466df6da65f4762d95d","414","","j","","","","","","","","./tasks/HMM-beads/Images/NewTrialWC.png","lowH","1","52","1","1","1","1","true","",""
"image-keyboard-response","293","327840","0.0-3.0-6.0-1.0-1.52","6642864514779d1334695e65","6662009ae78f21dd82fcd179","66620466df6da65f4762d95d","null","","null","","","","","","","","./tasks/HMM-beads/Images/WhiteBeadChoice.png","","","","","","","","","",""
"image-keyboard-response","294","328344","0.0-3.0-6.0-1.0-2.52","6642864514779d1334695e65","6662009ae78f21dd82fcd179","66620466df6da65f4762d95d","null","","null","","","","","","","","./tasks/HMM-beads/Images/WhiteBeadChoiceCorrect.png","","","","","","","","","",""
"image-keyboard-response","295","328832","0.0-3.0-6.0-1.0-0.53","6642864514779d1334695e65","6662009ae78f21dd82fcd179","66620466df6da65f4762d95d","485","","j","","","","","","","","./tasks/HMM-beads/Images/NewTrialWC.png","lowH","1","53","1","1","1","1","true","",""
"image-keyboard-response","296","329135","0.0-3.0-6.0-1.0-1.53","6642864514779d1334695e65","6662009ae78f21dd82fcd179","66620466df6da65f4762d95d","null","","null","","","","","","","","./tasks/HMM-beads/Images/WhiteBeadChoice.png","","","","","","","","","",""
"image-keyboard-response","297","329639","0.0-3.0-6.0-1.0-2.53","6642864514779d1334695e65","6662009ae78f21dd82fcd179","66620466df6da65f4762d95d","null","","null","","","","","","","","./tasks/HMM-beads/Images/WhiteBeadChoiceCorrect.png","","","","","","","","","",""
"image-keyboard-response","298","330073","0.0-3.0-6.0-1.0-0.54","6642864514779d1334695e65","6662009ae78f21dd82fcd179","66620466df6da65f4762d95d","430","","j","","","","","","","","./tasks/HMM-beads/Images/NewTrialWC.png","lowH","1","54","1","1","1","1","true","",""
"image-keyboard-response","299","330376","0.0-3.0-6.0-1.0-1.54","6642864514779d1334695e65","6662009ae78f21dd82fcd179","66620466df6da65f4762d95d","null","","null","","","","","","","","./tasks/HMM-beads/Images/WhiteBeadChoice.png","","","","","","","","","",""
"image-keyboard-response","300","330880","0.0-3.0-6.0-1.0-2.54","6642864514779d1334695e65","6662009ae78f21dd82fcd179","66620466df6da65f4762d95d","null","","null","","","","","","","","./tasks/HMM-beads/Images/WhiteBeadChoiceCorrect.png","","","","","","","","","",""
"image-keyboard-response","301","331206","0.0-3.0-6.0-1.0-0.55","6642864514779d1334695e65","6662009ae78f21dd82fcd179","66620466df6da65f4762d95d","320","","j","","","","","","","","./tasks/HMM-beads/Images/NewTrialWC.png","lowH","1","55","1","1","1","1","true","",""
"image-keyboard-response","302","331509","0.0-3.0-6.0-1.0-1.55","6642864514779d1334695e65","6662009ae78f21dd82fcd179","66620466df6da65f4762d95d","null","","null","","","","","","","","./tasks/HMM-beads/Images/WhiteBeadChoice.png","","","","","","","","","",""
"image-keyboard-response","303","332013","0.0-3.0-6.0-1.0-2.55","6642864514779d1334695e65","6662009ae78f21dd82fcd179","66620466df6da65f4762d95d","null","","null","","","","","","","","./tasks/HMM-beads/Images/WhiteBeadChoiceCorrect.png","","","","","","","","","",""
"image-keyboard-response","304","332337","0.0-3.0-6.0-1.0-0.56","6642864514779d1334695e65","6662009ae78f21dd82fcd179","66620466df6da65f4762d95d","321","","j","","","","","","","","./tasks/HMM-beads/Images/NewTrialWC.png","lowH","1","56","1","1","1","1","true","",""
"image-keyboard-response","305","332641","0.0-3.0-6.0-1.0-1.56","6642864514779d1334695e65","6662009ae78f21dd82fcd179","66620466df6da65f4762d95d","null","","null","","","","","","","","./tasks/HMM-beads/Images/WhiteBeadChoice.png","","","","","","","","","",""
"image-keyboard-response","306","333146","0.0-3.0-6.0-1.0-2.56","6642864514779d1334695e65","6662009ae78f21dd82fcd179","66620466df6da65f4762d95d","null","","null","","","","","","","","./tasks/HMM-beads/Images/WhiteBeadChoiceCorrect.png","","","","","","","","","",""
"image-keyboard-response","307","333340","0.0-3.0-6.0-1.0-0.57","6642864514779d1334695e65","6662009ae78f21dd82fcd179","66620466df6da65f4762d95d","190","","j","","","","","","","","./tasks/HMM-beads/Images/NewTrialWC.png","lowH","1","57","1","1","1","1","true","",""
"image-keyboard-response","308","333645","0.0-3.0-6.0-1.0-1.57","6642864514779d1334695e65","6662009ae78f21dd82fcd179","66620466df6da65f4762d95d","null","","null","","","","","","","","./tasks/HMM-beads/Images/WhiteBeadChoice.png","","","","","","","","","",""
"image-keyboard-response","309","334149","0.0-3.0-6.0-1.0-2.57","6642864514779d1334695e65","6662009ae78f21dd82fcd179","66620466df6da65f4762d95d","null","","null","","","","","","","","./tasks/HMM-beads/Images/WhiteBeadChoiceCorrect.png","","","","","","","","","",""
"image-keyboard-response","310","334380","0.0-3.0-6.0-1.0-0.58","6642864514779d1334695e65","6662009ae78f21dd82fcd179","66620466df6da65f4762d95d","227","","j","","","","","","","","./tasks/HMM-beads/Images/NewTrialWC.png","lowH","1","58","1","1","1","1","true","",""
"image-keyboard-response","311","334684","0.0-3.0-6.0-1.0-1.58","6642864514779d1334695e65","6662009ae78f21dd82fcd179","66620466df6da65f4762d95d","null","","null","","","","","","","","./tasks/HMM-beads/Images/WhiteBeadChoice.png","","","","","","","","","",""
"image-keyboard-response","312","335188","0.0-3.0-6.0-1.0-2.58","6642864514779d1334695e65","6662009ae78f21dd82fcd179","66620466df6da65f4762d95d","null","","null","","","","","","","","./tasks/HMM-beads/Images/WhiteBeadChoiceCorrect.png","","","","","","","","","",""
"image-keyboard-response","313","335554","0.0-3.0-6.0-1.0-0.59","6642864514779d1334695e65","6662009ae78f21dd82fcd179","66620466df6da65f4762d95d","363","","j","","","","","","","","./tasks/HMM-beads/Images/NewTrialWC.png","lowH","1","59","1","0","1","1","false","",""
"image-keyboard-response","314","335859","0.0-3.0-6.0-1.0-1.59","6642864514779d1334695e65","6662009ae78f21dd82fcd179","66620466df6da65f4762d95d","null","","null","","","","","","","","./tasks/HMM-beads/Images/WhiteBeadChoice.png","","","","","","","","","",""
"image-keyboard-response","315","336363","0.0-3.0-6.0-1.0-2.59","6642864514779d1334695e65","6662009ae78f21dd82fcd179","66620466df6da65f4762d95d","null","","null","","","","","","","","./tasks/HMM-beads/Images/WhiteBeadChoiceWrong.png","","","","","","","","","",""
"image-keyboard-response","316","336937","0.0-3.0-6.0-1.0-0.60","6642864514779d1334695e65","6662009ae78f21dd82fcd179","66620466df6da65f4762d95d","571","","j","","","","","","","","./tasks/HMM-beads/Images/NewTrialBC.png","lowH","1","60","1","1","0","1","true","",""
"image-keyboard-response","317","337243","0.0-3.0-6.0-1.0-1.60","6642864514779d1334695e65","6662009ae78f21dd82fcd179","66620466df6da65f4762d95d","null","","null","","","","","","","","./tasks/HMM-beads/Images/WhiteBeadChoice.png","","","","","","","","","",""
"image-keyboard-response","318","337747","0.0-3.0-6.0-1.0-2.60","6642864514779d1334695e65","6662009ae78f21dd82fcd179","66620466df6da65f4762d95d","null","","null","","","","","","","","./tasks/HMM-beads/Images/WhiteBeadChoiceCorrect.png","","","","","","","","","",""
"image-keyboard-response","319","338086","0.0-3.0-6.0-1.0-0.61","6642864514779d1334695e65","6662009ae78f21dd82fcd179","66620466df6da65f4762d95d","334","","j","","","","","","","","./tasks/HMM-beads/Images/NewTrialWC.png","lowH","1","61","1","1","1","1","true","",""
"image-keyboard-response","320","338390","0.0-3.0-6.0-1.0-1.61","6642864514779d1334695e65","6662009ae78f21dd82fcd179","66620466df6da65f4762d95d","null","","null","","","","","","","","./tasks/HMM-beads/Images/WhiteBeadChoice.png","","","","","","","","","",""
"image-keyboard-response","321","338894","0.0-3.0-6.0-1.0-2.61","6642864514779d1334695e65","6662009ae78f21dd82fcd179","66620466df6da65f4762d95d","null","","null","","","","","","","","./tasks/HMM-beads/Images/WhiteBeadChoiceCorrect.png","","","","","","","","","",""
"image-keyboard-response","322","339291","0.0-3.0-6.0-1.0-0.62","6642864514779d1334695e65","6662009ae78f21dd82fcd179","66620466df6da65f4762d95d","393","","j","","","","","","","","./tasks/HMM-beads/Images/NewTrialWC.png","lowH","1","62","1","0","1","1","false","",""
"image-keyboard-response","323","339596","0.0-3.0-6.0-1.0-1.62","6642864514779d1334695e65","6662009ae78f21dd82fcd179","66620466df6da65f4762d95d","null","","null","","","","","","","","./tasks/HMM-beads/Images/WhiteBeadChoice.png","","","","","","","","","",""
"image-keyboard-response","324","340101","0.0-3.0-6.0-1.0-2.62","6642864514779d1334695e65","6662009ae78f21dd82fcd179","66620466df6da65f4762d95d","null","","null","","","","","","","","./tasks/HMM-beads/Images/WhiteBeadChoiceWrong.png","","","","","","","","","",""
"image-keyboard-response","325","340478","0.0-3.0-6.0-1.0-0.63","6642864514779d1334695e65","6662009ae78f21dd82fcd179","66620466df6da65f4762d95d","373","","j","","","","","","","","./tasks/HMM-beads/Images/NewTrialBC.png","lowH","1","63","1","1","0","1","true","",""
"image-keyboard-response","326","340782","0.0-3.0-6.0-1.0-1.63","6642864514779d1334695e65","6662009ae78f21dd82fcd179","66620466df6da65f4762d95d","null","","null","","","","","","","","./tasks/HMM-beads/Images/WhiteBeadChoice.png","","","","","","","","","",""
"image-keyboard-response","327","341285","0.0-3.0-6.0-1.0-2.63","6642864514779d1334695e65","6662009ae78f21dd82fcd179","66620466df6da65f4762d95d","null","","null","","","","","","","","./tasks/HMM-beads/Images/WhiteBeadChoiceCorrect.png","","","","","","","","","",""
"image-keyboard-response","328","341703","0.0-3.0-6.0-1.0-0.64","6642864514779d1334695e65","6662009ae78f21dd82fcd179","66620466df6da65f4762d95d","415","","j","","","","","","","","./tasks/HMM-beads/Images/NewTrialWC.png","lowH","1","64","1","1","1","1","true","",""
"image-keyboard-response","329","342007","0.0-3.0-6.0-1.0-1.64","6642864514779d1334695e65","6662009ae78f21dd82fcd179","66620466df6da65f4762d95d","null","","null","","","","","","","","./tasks/HMM-beads/Images/WhiteBeadChoice.png","","","","","","","","","",""
"image-keyboard-response","330","342511","0.0-3.0-6.0-1.0-2.64","6642864514779d1334695e65","6662009ae78f21dd82fcd179","66620466df6da65f4762d95d","null","","null","","","","","","","","./tasks/HMM-beads/Images/WhiteBeadChoiceCorrect.png","","","","","","","","","",""
"image-keyboard-response","331","342892","0.0-3.0-6.0-1.0-0.65","6642864514779d1334695e65","6662009ae78f21dd82fcd179","66620466df6da65f4762d95d","375","","j","","","","","","","","./tasks/HMM-beads/Images/NewTrialWC.png","lowH","1","65","1","1","1","1","true","",""
"image-keyboard-response","332","343195","0.0-3.0-6.0-1.0-1.65","6642864514779d1334695e65","6662009ae78f21dd82fcd179","66620466df6da65f4762d95d","null","","null","","","","","","","","./tasks/HMM-beads/Images/WhiteBeadChoice.png","","","","","","","","","",""
"image-keyboard-response","333","343700","0.0-3.0-6.0-1.0-2.65","6642864514779d1334695e65","6662009ae78f21dd82fcd179","66620466df6da65f4762d95d","null","","null","","","","","","","","./tasks/HMM-beads/Images/WhiteBeadChoiceCorrect.png","","","","","","","","","",""
"image-keyboard-response","334","344072","0.0-3.0-6.0-1.0-0.66","6642864514779d1334695e65","6662009ae78f21dd82fcd179","66620466df6da65f4762d95d","367","","j","","","","","","","","./tasks/HMM-beads/Images/NewTrialWC.png","lowH","1","66","1","1","1","1","true","",""
"image-keyboard-response","335","344376","0.0-3.0-6.0-1.0-1.66","6642864514779d1334695e65","6662009ae78f21dd82fcd179","66620466df6da65f4762d95d","null","","null","","","","","","","","./tasks/HMM-beads/Images/WhiteBeadChoice.png","","","","","","","","","",""
"image-keyboard-response","336","344880","0.0-3.0-6.0-1.0-2.66","6642864514779d1334695e65","6662009ae78f21dd82fcd179","66620466df6da65f4762d95d","null","","null","","","","","","","","./tasks/HMM-beads/Images/WhiteBeadChoiceCorrect.png","","","","","","","","","",""
"image-keyboard-response","337","345248","0.0-3.0-6.0-1.0-0.67","6642864514779d1334695e65","6662009ae78f21dd82fcd179","66620466df6da65f4762d95d","364","","j","","","","","","","","./tasks/HMM-beads/Images/NewTrialWC.png","lowH","1","67","1","0","1","1","false","",""
"image-keyboard-response","338","345551","0.0-3.0-6.0-1.0-1.67","6642864514779d1334695e65","6662009ae78f21dd82fcd179","66620466df6da65f4762d95d","null","","null","","","","","","","","./tasks/HMM-beads/Images/WhiteBeadChoice.png","","","","","","","","","",""
"image-keyboard-response","339","346055","0.0-3.0-6.0-1.0-2.67","6642864514779d1334695e65","6662009ae78f21dd82fcd179","66620466df6da65f4762d95d","null","","null","","","","","","","","./tasks/HMM-beads/Images/WhiteBeadChoiceWrong.png","","","","","","","","","",""
"image-keyboard-response","340","346368","0.0-3.0-6.0-1.0-0.68","6642864514779d1334695e65","6662009ae78f21dd82fcd179","66620466df6da65f4762d95d","306","","j","","","","","","","","./tasks/HMM-beads/Images/NewTrialBC.png","lowH","1","68","1","1","0","1","true","",""
"image-keyboard-response","341","346671","0.0-3.0-6.0-1.0-1.68","6642864514779d1334695e65","6662009ae78f21dd82fcd179","66620466df6da65f4762d95d","null","","null","","","","","","","","./tasks/HMM-beads/Images/WhiteBeadChoice.png","","","","","","","","","",""
"image-keyboard-response","342","347175","0.0-3.0-6.0-1.0-2.68","6642864514779d1334695e65","6662009ae78f21dd82fcd179","66620466df6da65f4762d95d","null","","null","","","","","","","","./tasks/HMM-beads/Images/WhiteBeadChoiceCorrect.png","","","","","","","","","",""
"image-keyboard-response","343","347541","0.0-3.0-6.0-1.0-0.69","6642864514779d1334695e65","6662009ae78f21dd82fcd179","66620466df6da65f4762d95d","364","","j","","","","","","","","./tasks/HMM-beads/Images/NewTrialWC.png","lowH","1","69","0","1","1","1","true","",""
"image-keyboard-response","344","347844","0.0-3.0-6.0-1.0-1.69","6642864514779d1334695e65","6662009ae78f21dd82fcd179","66620466df6da65f4762d95d","null","","null","","","","","","","","./tasks/HMM-beads/Images/WhiteBeadChoice.png","","","","","","","","","",""
"image-keyboard-response","345","348351","0.0-3.0-6.0-1.0-2.69","6642864514779d1334695e65","6662009ae78f21dd82fcd179","66620466df6da65f4762d95d","null","","null","","","","","","","","./tasks/HMM-beads/Images/WhiteBeadChoiceCorrect.png","","","","","","","","","",""
"image-keyboard-response","346","348715","0.0-3.0-6.0-1.0-0.70","6642864514779d1334695e65","6662009ae78f21dd82fcd179","66620466df6da65f4762d95d","361","","j","","","","","","","","./tasks/HMM-beads/Images/NewTrialWC.png","lowH","1","70","0","1","1","1","true","",""
"image-keyboard-response","347","349021","0.0-3.0-6.0-1.0-1.70","6642864514779d1334695e65","6662009ae78f21dd82fcd179","66620466df6da65f4762d95d","null","","null","","","","","","","","./tasks/HMM-beads/Images/WhiteBeadChoice.png","","","","","","","","","",""
"image-keyboard-response","348","349525","0.0-3.0-6.0-1.0-2.70","6642864514779d1334695e65","6662009ae78f21dd82fcd179","66620466df6da65f4762d95d","null","","null","","","","","","","","./tasks/HMM-beads/Images/WhiteBeadChoiceCorrect.png","","","","","","","","","",""
"image-keyboard-response","349","349863","0.0-3.0-6.0-1.0-0.71","6642864514779d1334695e65","6662009ae78f21dd82fcd179","66620466df6da65f4762d95d","334","","j","","","","","","","","./tasks/HMM-beads/Images/NewTrialWC.png","lowH","1","71","0","0","1","1","false","",""
"image-keyboard-response","350","350167","0.0-3.0-6.0-1.0-1.71","6642864514779d1334695e65","6662009ae78f21dd82fcd179","66620466df6da65f4762d95d","null","","null","","","","","","","","./tasks/HMM-beads/Images/WhiteBeadChoice.png","","","","","","","","","",""
"image-keyboard-response","351","350672","0.0-3.0-6.0-1.0-2.71","6642864514779d1334695e65","6662009ae78f21dd82fcd179","66620466df6da65f4762d95d","null","","null","","","","","","","","./tasks/HMM-beads/Images/WhiteBeadChoiceWrong.png","","","","","","","","","",""
"image-keyboard-response","352","350999","0.0-3.0-6.0-1.0-0.72","6642864514779d1334695e65","6662009ae78f21dd82fcd179","66620466df6da65f4762d95d","324","","j","","","","","","","","./tasks/HMM-beads/Images/NewTrialBC.png","lowH","1","72","0","0","0","1","false","",""
"image-keyboard-response","353","351305","0.0-3.0-6.0-1.0-1.72","6642864514779d1334695e65","6662009ae78f21dd82fcd179","66620466df6da65f4762d95d","null","","null","","","","","","","","./tasks/HMM-beads/Images/WhiteBeadChoice.png","","","","","","","","","",""
"image-keyboard-response","354","351808","0.0-3.0-6.0-1.0-2.72","6642864514779d1334695e65","6662009ae78f21dd82fcd179","66620466df6da65f4762d95d","null","","null","","","","","","","","./tasks/HMM-beads/Images/WhiteBeadChoiceWrong.png","","","","","","","","","",""
"image-keyboard-response","355","352077","0.0-3.0-6.0-1.0-0.73","6642864514779d1334695e65","6662009ae78f21dd82fcd179","66620466df6da65f4762d95d","265","","j","","","","","","","","./tasks/HMM-beads/Images/NewTrialBC.png","lowH","1","73","0","1","0","1","true","",""
"image-keyboard-response","356","352382","0.0-3.0-6.0-1.0-1.73","6642864514779d1334695e65","6662009ae78f21dd82fcd179","66620466df6da65f4762d95d","null","","null","","","","","","","","./tasks/HMM-beads/Images/WhiteBeadChoice.png","","","","","","","","","",""
"image-keyboard-response","357","352885","0.0-3.0-6.0-1.0-2.73","6642864514779d1334695e65","6662009ae78f21dd82fcd179","66620466df6da65f4762d95d","null","","null","","","","","","","","./tasks/HMM-beads/Images/WhiteBeadChoiceCorrect.png","","","","","","","","","",""
"image-keyboard-response","358","353191","0.0-3.0-6.0-1.0-0.74","6642864514779d1334695e65","6662009ae78f21dd82fcd179","66620466df6da65f4762d95d","302","","j","","","","","","","","./tasks/HMM-beads/Images/NewTrialWC.png","lowH","1","74","0","0","1","1","false","",""
"image-keyboard-response","359","353495","0.0-3.0-6.0-1.0-1.74","6642864514779d1334695e65","6662009ae78f21dd82fcd179","66620466df6da65f4762d95d","null","","null","","","","","","","","./tasks/HMM-beads/Images/WhiteBeadChoice.png","","","","","","","","","",""
"image-keyboard-response","360","353999","0.0-3.0-6.0-1.0-2.74","6642864514779d1334695e65","6662009ae78f21dd82fcd179","66620466df6da65f4762d95d","null","","null","","","","","","","","./tasks/HMM-beads/Images/WhiteBeadChoiceWrong.png","","","","","","","","","",""
"image-keyboard-response","361","354327","0.0-3.0-6.0-1.0-0.75","6642864514779d1334695e65","6662009ae78f21dd82fcd179","66620466df6da65f4762d95d","324","","j","","","","","","","","./tasks/HMM-beads/Images/NewTrialBC.png","lowH","1","75","0","1","0","1","true","",""
"image-keyboard-response","362","354631","0.0-3.0-6.0-1.0-1.75","6642864514779d1334695e65","6662009ae78f21dd82fcd179","66620466df6da65f4762d95d","null","","null","","","","","","","","./tasks/HMM-beads/Images/WhiteBeadChoice.png","","","","","","","","","",""
"image-keyboard-response","363","355134","0.0-3.0-6.0-1.0-2.75","6642864514779d1334695e65","6662009ae78f21dd82fcd179","66620466df6da65f4762d95d","null","","null","","","","","","","","./tasks/HMM-beads/Images/WhiteBeadChoiceCorrect.png","","","","","","","","","",""
"image-keyboard-response","364","355443","0.0-3.0-6.0-1.0-0.76","6642864514779d1334695e65","6662009ae78f21dd82fcd179","66620466df6da65f4762d95d","305","","j","","","","","","","","./tasks/HMM-beads/Images/NewTrialWC.png","lowH","1","76","0","1","1","1","true","",""
"image-keyboard-response","365","355747","0.0-3.0-6.0-1.0-1.76","6642864514779d1334695e65","6662009ae78f21dd82fcd179","66620466df6da65f4762d95d","null","","null","","","","","","","","./tasks/HMM-beads/Images/WhiteBeadChoice.png","","","","","","","","","",""
"image-keyboard-response","366","356251","0.0-3.0-6.0-1.0-2.76","6642864514779d1334695e65","6662009ae78f21dd82fcd179","66620466df6da65f4762d95d","null","","null","","","","","","","","./tasks/HMM-beads/Images/WhiteBeadChoiceCorrect.png","","","","","","","","","",""
"image-keyboard-response","367","356574","0.0-3.0-6.0-1.0-0.77","6642864514779d1334695e65","6662009ae78f21dd82fcd179","66620466df6da65f4762d95d","319","","j","","","","","","","","./tasks/HMM-beads/Images/NewTrialWC.png","lowH","1","77","0","0","1","1","false","",""
"image-keyboard-response","368","356878","0.0-3.0-6.0-1.0-1.77","6642864514779d1334695e65","6662009ae78f21dd82fcd179","66620466df6da65f4762d95d","null","","null","","","","","","","","./tasks/HMM-beads/Images/WhiteBeadChoice.png","","","","","","","","","",""
"image-keyboard-response","369","357382","0.0-3.0-6.0-1.0-2.77","6642864514779d1334695e65","6662009ae78f21dd82fcd179","66620466df6da65f4762d95d","null","","null","","","","","","","","./tasks/HMM-beads/Images/WhiteBeadChoiceWrong.png","","","","","","","","","",""
"image-keyboard-response","370","357723","0.0-3.0-6.0-1.0-0.78","6642864514779d1334695e65","6662009ae78f21dd82fcd179","66620466df6da65f4762d95d","338","","j","","","","","","","","./tasks/HMM-beads/Images/NewTrialBC.png","lowH","1","78","0","0","0","1","false","",""
"image-keyboard-response","371","358026","0.0-3.0-6.0-1.0-1.78","6642864514779d1334695e65","6662009ae78f21dd82fcd179","66620466df6da65f4762d95d","null","","null","","","","","","","","./tasks/HMM-beads/Images/WhiteBeadChoice.png","","","","","","","","","",""
"image-keyboard-response","372","358534","0.0-3.0-6.0-1.0-2.78","6642864514779d1334695e65","6662009ae78f21dd82fcd179","66620466df6da65f4762d95d","null","","null","","","","","","","","./tasks/HMM-beads/Images/WhiteBeadChoiceWrong.png","","","","","","","","","",""
"image-keyboard-response","373","358886","0.0-3.0-6.0-1.0-0.79","6642864514779d1334695e65","6662009ae78f21dd82fcd179","66620466df6da65f4762d95d","350","","j","","","","","","","","./tasks/HMM-beads/Images/NewTrialBC.png","lowH","1","79","0","0","0","1","false","",""
"image-keyboard-response","374","359191","0.0-3.0-6.0-1.0-1.79","6642864514779d1334695e65","6662009ae78f21dd82fcd179","66620466df6da65f4762d95d","null","","null","","","","","","","","./tasks/HMM-beads/Images/WhiteBeadChoice.png","","","","","","","","","",""
