"trial_type","trial_index","time_elapsed","internal_node_id","subject_id","study_id","session_id","rt","url","response","question_order","view_history","success","timeout","failed_images","failed_audio","failed_video","stimulus","block","block_rep","trial_number","jar","bead","previous_bead","choice","correct","lowH_score","total_bonus"
"pavlovia","0","1676","0.0-0.0","5a09ebdf087f2e0001eae39f","6662009ae78f21dd82fcd179","666220fd9c87eb233f4182fd","","","","","","","","","","","","","","","","","","","","",""
"external-html","1","7833","0.0-1.0-0.0","5a09ebdf087f2e0001eae39f","6662009ae78f21dd82fcd179","666220fd9c87eb233f4182fd","5920","new_consent.html","","","","","","","","","","","","","","","","","","",""
"survey-multi-choice","2","11846","0.0-1.0-1.0","5a09ebdf087f2e0001eae39f","6662009ae78f21dd82fcd179","666220fd9c87eb233f4182fd","4011","","{""Q0"":""Female"",""Q1"":""White""}","[0,1]","","","","","","","","","","","","","","","","",""
"survey-text","3","14048","0.0-1.0-2.0","5a09ebdf087f2e0001eae39f","6662009ae78f21dd82fcd179","666220fd9c87eb233f4182fd","2198","","{""Q0"":""31""}","","","","","","","","","","","","","","","","","",""
"instructions","4","15460","0.0-2.0","5a09ebdf087f2e0001eae39f","6662009ae78f21dd82fcd179","666220fd9c87eb233f4182fd","1301","","","","[{""page_index"":0,""viewing_time"":1301}]","","","","","","","","","","","","","","","",""
"preload","5","18367","0.0-3.0-0.0","5a09ebdf087f2e0001eae39f","6662009ae78f21dd82fcd179","666220fd9c87eb233f4182fd","","","","","","true","false","[]","[]","[]","","","","","","","","","","",""
"instructions","6","67646","0.0-3.0-1.0","5a09ebdf087f2e0001eae39f","6662009ae78f21dd82fcd179","666220fd9c87eb233f4182fd","49281","","","","[{""page_index"":0,""viewing_time"":6641},{""page_index"":1,""viewing_time"":3949},{""page_index"":2,""viewing_time"":1786},{""page_index"":3,""viewing_time"":1380},{""page_index"":4,""viewing_time"":5909},{""page_index"":5,""viewing_time"":10141},{""page_index"":6,""viewing_time"":3393},{""page_index"":7,""viewing_time"":4359},{""page_index"":8,""viewing_time"":4497},{""page_index"":9,""viewing_time"":2719},{""page_index"":10,""viewing_time"":3341},{""page_index"":11,""viewing_time"":1167}]","","","","","","","","","","","","","","","",""
"html-button-response","7","69952","0.0-3.0-2.0-0.0-0.0","5a09ebdf087f2e0001eae39f","6662009ae78f21dd82fcd179","666220fd9c87eb233f4182fd","2305","","1","","","","","","","","<div align=center>Your goal is to predict…?<br><br></div>","","","","","","","","","",""
"html-button-response","8","73935","0.0-3.0-2.0-1.0-0.0","5a09ebdf087f2e0001eae39f","6662009ae78f21dd82fcd179","666220fd9c87eb233f4182fd","2542","","2","","","","","","","","<div align=center>In the jar with mostly white beads, there are ___% white beads and ___% black beads?<br><br></div>","","","","","","","","","",""
"html-button-response","9","78711","0.0-3.0-2.0-2.0-0.0","5a09ebdf087f2e0001eae39f","6662009ae78f21dd82fcd179","666220fd9c87eb233f4182fd","3511","","1","","","","","","","","<div align=center>When there is a 1% probability that the jars will switch, the next bead will most likely be drawn from the…<br><br></div>","","","","","","","","","",""
"html-button-response","10","82572","0.0-3.0-2.0-2.1-0.1","5a09ebdf087f2e0001eae39f","6662009ae78f21dd82fcd179","666220fd9c87eb233f4182fd","847","","0","","","","","","","","<div align=center>When there is a 1% probability that the jars will switch, the next bead will most likely be drawn from the…<br><br></div>","","","","","","","","","",""
"html-button-response","11","87884","0.0-3.0-2.0-3.0-0.0","5a09ebdf087f2e0001eae39f","6662009ae78f21dd82fcd179","666220fd9c87eb233f4182fd","4142","","1","","","","","","","","<div align=center>When there is a 99% probability that the jars will switch, the next bead will most likely be drawn from the…<br><br></div>","","","","","","","","","",""
"instructions","12","91389","0.0-3.0-3.0","5a09ebdf087f2e0001eae39f","6662009ae78f21dd82fcd179","666220fd9c87eb233f4182fd","2232","","","","[{""page_index"":0,""viewing_time"":2231}]","","","","","","","","","","","","","","","",""
"html-keyboard-response","13","92868","0.0-3.0-4.0-0.0","5a09ebdf087f2e0001eae39f","6662009ae78f21dd82fcd179","666220fd9c87eb233f4182fd","1478",""," ","","","","","","","","<div align=center>In this practice block, there will be a <b>1% chance</b> that the jar on the next trial will be different from the jar on the current trial.<br><br></div>","","","","","","","","","",""
"image-keyboard-response","14","95815","0.0-3.0-4.0-1.0-0.0","5a09ebdf087f2e0001eae39f","6662009ae78f21dd82fcd179","666220fd9c87eb233f4182fd","2944","","f","","","","","","","","./tasks/HMM-beads/Images/NoChoice.png","practice","0","0","0","0","9","0","true","",""
"image-keyboard-response","15","96132","0.0-3.0-4.0-1.0-1.0","5a09ebdf087f2e0001eae39f","6662009ae78f21dd82fcd179","666220fd9c87eb233f4182fd","null","","null","","","","","","","","./tasks/HMM-beads/Images/BlackBeadChoice.png","","","","","","","","","",""
"image-keyboard-response","16","96636","0.0-3.0-4.0-1.0-2.0","5a09ebdf087f2e0001eae39f","6662009ae78f21dd82fcd179","666220fd9c87eb233f4182fd","null","","null","","","","","","","","./tasks/HMM-beads/Images/BlackBeadChoiceCorrect.png","","","","","","","","","",""
"image-keyboard-response","17","97328","0.0-3.0-4.0-1.0-0.1","5a09ebdf087f2e0001eae39f","6662009ae78f21dd82fcd179","666220fd9c87eb233f4182fd","684","","j","","","","","","","","./tasks/HMM-beads/Images/NewTrialBC.png","practice","0","1","0","0","0","1","false","",""
"image-keyboard-response","18","97634","0.0-3.0-4.0-1.0-1.1","5a09ebdf087f2e0001eae39f","6662009ae78f21dd82fcd179","666220fd9c87eb233f4182fd","null","","null","","","","","","","","./tasks/HMM-beads/Images/WhiteBeadChoice.png","","","","","","","","","",""
"image-keyboard-response","19","98141","0.0-3.0-4.0-1.0-2.1","5a09ebdf087f2e0001eae39f","6662009ae78f21dd82fcd179","666220fd9c87eb233f4182fd","null","","null","","","","","","","","./tasks/HMM-beads/Images/WhiteBeadChoiceWrong.png","","","","","","","","","",""
"image-keyboard-response","20","98631","0.0-3.0-4.0-1.0-0.2","5a09ebdf087f2e0001eae39f","6662009ae78f21dd82fcd179","666220fd9c87eb233f4182fd","489","","f","","","","","","","","./tasks/HMM-beads/Images/NewTrialBC.png","practice","0","2","0","1","0","0","false","",""
"image-keyboard-response","21","98945","0.0-3.0-4.0-1.0-1.2","5a09ebdf087f2e0001eae39f","6662009ae78f21dd82fcd179","666220fd9c87eb233f4182fd","null","","null","","","","","","","","./tasks/HMM-beads/Images/BlackBeadChoice.png","","","","","","","","","",""
"image-keyboard-response","22","99456","0.0-3.0-4.0-1.0-2.2","5a09ebdf087f2e0001eae39f","6662009ae78f21dd82fcd179","666220fd9c87eb233f4182fd","null","","null","","","","","","","","./tasks/HMM-beads/Images/BlackBeadChoiceWrong.png","","","","","","","","","",""
"image-keyboard-response","23","100247","0.0-3.0-4.0-1.0-0.3","5a09ebdf087f2e0001eae39f","6662009ae78f21dd82fcd179","666220fd9c87eb233f4182fd","789","","f","","","","","","","","./tasks/HMM-beads/Images/NewTrialWC.png","practice","0","3","0","0","1","0","true","",""
"image-keyboard-response","24","100563","0.0-3.0-4.0-1.0-1.3","5a09ebdf087f2e0001eae39f","6662009ae78f21dd82fcd179","666220fd9c87eb233f4182fd","null","","null","","","","","","","","./tasks/HMM-beads/Images/BlackBeadChoice.png","","","","","","","","","",""
"image-keyboard-response","25","101067","0.0-3.0-4.0-1.0-2.3","5a09ebdf087f2e0001eae39f","6662009ae78f21dd82fcd179","666220fd9c87eb233f4182fd","null","","null","","","","","","","","./tasks/HMM-beads/Images/BlackBeadChoiceCorrect.png","","","","","","","","","",""
"image-keyboard-response","26","101512","0.0-3.0-4.0-1.0-0.4","5a09ebdf087f2e0001eae39f","6662009ae78f21dd82fcd179","666220fd9c87eb233f4182fd","443","","j","","","","","","","","./tasks/HMM-beads/Images/NewTrialBC.png","practice","0","4","0","0","0","1","false","",""
"image-keyboard-response","27","101824","0.0-3.0-4.0-1.0-1.4","5a09ebdf087f2e0001eae39f","6662009ae78f21dd82fcd179","666220fd9c87eb233f4182fd","null","","null","","","","","","","","./tasks/HMM-beads/Images/WhiteBeadChoice.png","","","","","","","","","",""
"image-keyboard-response","28","102330","0.0-3.0-4.0-1.0-2.4","5a09ebdf087f2e0001eae39f","6662009ae78f21dd82fcd179","666220fd9c87eb233f4182fd","null","","null","","","","","","","","./tasks/HMM-beads/Images/WhiteBeadChoiceWrong.png","","","","","","","","","",""
"image-keyboard-response","29","102830","0.0-3.0-4.0-1.0-0.5","5a09ebdf087f2e0001eae39f","6662009ae78f21dd82fcd179","666220fd9c87eb233f4182fd","498","","f","","","","","","","","./tasks/HMM-beads/Images/NewTrialBC.png","practice","0","5","0","1","0","0","false","",""
"image-keyboard-response","30","103141","0.0-3.0-4.0-1.0-1.5","5a09ebdf087f2e0001eae39f","6662009ae78f21dd82fcd179","666220fd9c87eb233f4182fd","null","","null","","","","","","","","./tasks/HMM-beads/Images/BlackBeadChoice.png","","","","","","","","","",""
"image-keyboard-response","31","103653","0.0-3.0-4.0-1.0-2.5","5a09ebdf087f2e0001eae39f","6662009ae78f21dd82fcd179","666220fd9c87eb233f4182fd","null","","null","","","","","","","","./tasks/HMM-beads/Images/BlackBeadChoiceWrong.png","","","","","","","","","",""
"image-keyboard-response","32","103732","0.0-3.0-4.0-1.0-0.6","5a09ebdf087f2e0001eae39f","6662009ae78f21dd82fcd179","666220fd9c87eb233f4182fd","77","","j","","","","","","","","./tasks/HMM-beads/Images/NewTrialWC.png","practice","0","6","0","0","1","1","false","",""
"image-keyboard-response","33","104034","0.0-3.0-4.0-1.0-1.6","5a09ebdf087f2e0001eae39f","6662009ae78f21dd82fcd179","666220fd9c87eb233f4182fd","null","","null","","","","","","","","./tasks/HMM-beads/Images/WhiteBeadChoice.png","","","","","","","","","",""
"image-keyboard-response","34","104550","0.0-3.0-4.0-1.0-2.6","5a09ebdf087f2e0001eae39f","6662009ae78f21dd82fcd179","666220fd9c87eb233f4182fd","null","","null","","","","","","","","./tasks/HMM-beads/Images/WhiteBeadChoiceWrong.png","","","","","","","","","",""
"image-keyboard-response","35","104884","0.0-3.0-4.0-1.0-0.7","5a09ebdf087f2e0001eae39f","6662009ae78f21dd82fcd179","666220fd9c87eb233f4182fd","334","","f","","","","","","","","./tasks/HMM-beads/Images/NewTrialBC.png","practice","0","7","0","0","0","0","true","",""
"image-keyboard-response","36","105191","0.0-3.0-4.0-1.0-1.7","5a09ebdf087f2e0001eae39f","6662009ae78f21dd82fcd179","666220fd9c87eb233f4182fd","null","","null","","","","","","","","./tasks/HMM-beads/Images/BlackBeadChoice.png","","","","","","","","","",""
"image-keyboard-response","37","105696","0.0-3.0-4.0-1.0-2.7","5a09ebdf087f2e0001eae39f","6662009ae78f21dd82fcd179","666220fd9c87eb233f4182fd","null","","null","","","","","","","","./tasks/HMM-beads/Images/BlackBeadChoiceCorrect.png","","","","","","","","","",""
"image-keyboard-response","38","106218","0.0-3.0-4.0-1.0-0.8","5a09ebdf087f2e0001eae39f","6662009ae78f21dd82fcd179","666220fd9c87eb233f4182fd","520","","f","","","","","","","","./tasks/HMM-beads/Images/NewTrialBC.png","practice","0","8","0","0","0","0","true","",""
"image-keyboard-response","39","106525","0.0-3.0-4.0-1.0-1.8","5a09ebdf087f2e0001eae39f","6662009ae78f21dd82fcd179","666220fd9c87eb233f4182fd","null","","null","","","","","","","","./tasks/HMM-beads/Images/BlackBeadChoice.png","","","","","","","","","",""
"image-keyboard-response","40","107028","0.0-3.0-4.0-1.0-2.8","5a09ebdf087f2e0001eae39f","6662009ae78f21dd82fcd179","666220fd9c87eb233f4182fd","null","","null","","","","","","","","./tasks/HMM-beads/Images/BlackBeadChoiceCorrect.png","","","","","","","","","",""
"image-keyboard-response","41","107361","0.0-3.0-4.0-1.0-0.9","5a09ebdf087f2e0001eae39f","6662009ae78f21dd82fcd179","666220fd9c87eb233f4182fd","332","","j","","","","","","","","./tasks/HMM-beads/Images/NewTrialBC.png","practice","0","9","0","1","0","1","true","",""
"image-keyboard-response","42","107665","0.0-3.0-4.0-1.0-1.9","5a09ebdf087f2e0001eae39f","6662009ae78f21dd82fcd179","666220fd9c87eb233f4182fd","null","","null","","","","","","","","./tasks/HMM-beads/Images/WhiteBeadChoice.png","","","","","","","","","",""
"image-keyboard-response","43","108179","0.0-3.0-4.0-1.0-2.9","5a09ebdf087f2e0001eae39f","6662009ae78f21dd82fcd179","666220fd9c87eb233f4182fd","null","","null","","","","","","","","./tasks/HMM-beads/Images/WhiteBeadChoiceCorrect.png","","","","","","","","","",""
"image-keyboard-response","44","108525","0.0-3.0-4.0-1.0-0.10","5a09ebdf087f2e0001eae39f","6662009ae78f21dd82fcd179","666220fd9c87eb233f4182fd","345","","f","","","","","","","","./tasks/HMM-beads/Images/NewTrialWC.png","practice","0","10","0","0","1","0","true","",""
"image-keyboard-response","45","108831","0.0-3.0-4.0-1.0-1.10","5a09ebdf087f2e0001eae39f","6662009ae78f21dd82fcd179","666220fd9c87eb233f4182fd","null","","null","","","","","","","","./tasks/HMM-beads/Images/BlackBeadChoice.png","","","","","","","","","",""
"image-keyboard-response","46","109332","0.0-3.0-4.0-1.0-2.10","5a09ebdf087f2e0001eae39f","6662009ae78f21dd82fcd179","666220fd9c87eb233f4182fd","null","","null","","","","","","","","./tasks/HMM-beads/Images/BlackBeadChoiceCorrect.png","","","","","","","","","",""
"image-keyboard-response","47","109595","0.0-3.0-4.0-1.0-0.11","5a09ebdf087f2e0001eae39f","6662009ae78f21dd82fcd179","666220fd9c87eb233f4182fd","262","","f","","","","","","","","./tasks/HMM-beads/Images/NewTrialBC.png","practice","0","11","0","1","0","0","false","",""
"image-keyboard-response","48","109900","0.0-3.0-4.0-1.0-1.11","5a09ebdf087f2e0001eae39f","6662009ae78f21dd82fcd179","666220fd9c87eb233f4182fd","null","","null","","","","","","","","./tasks/HMM-beads/Images/BlackBeadChoice.png","","","","","","","","","",""
"image-keyboard-response","49","110405","0.0-3.0-4.0-1.0-2.11","5a09ebdf087f2e0001eae39f","6662009ae78f21dd82fcd179","666220fd9c87eb233f4182fd","null","","null","","","","","","","","./tasks/HMM-beads/Images/BlackBeadChoiceWrong.png","","","","","","","","","",""
"image-keyboard-response","50","110565","0.0-3.0-4.0-1.0-0.12","5a09ebdf087f2e0001eae39f","6662009ae78f21dd82fcd179","666220fd9c87eb233f4182fd","159","","j","","","","","","","","./tasks/HMM-beads/Images/NewTrialWC.png","practice","0","12","0","0","1","1","false","",""
"image-keyboard-response","51","110877","0.0-3.0-4.0-1.0-1.12","5a09ebdf087f2e0001eae39f","6662009ae78f21dd82fcd179","666220fd9c87eb233f4182fd","null","","null","","","","","","","","./tasks/HMM-beads/Images/WhiteBeadChoice.png","","","","","","","","","",""
"image-keyboard-response","52","111397","0.0-3.0-4.0-1.0-2.12","5a09ebdf087f2e0001eae39f","6662009ae78f21dd82fcd179","666220fd9c87eb233f4182fd","null","","null","","","","","","","","./tasks/HMM-beads/Images/WhiteBeadChoiceWrong.png","","","","","","","","","",""
"image-keyboard-response","53","112086","0.0-3.0-4.0-1.0-0.13","5a09ebdf087f2e0001eae39f","6662009ae78f21dd82fcd179","666220fd9c87eb233f4182fd","687","","f","","","","","","","","./tasks/HMM-beads/Images/NewTrialBC.png","practice","0","13","0","0","0","0","true","",""
"image-keyboard-response","54","112391","0.0-3.0-4.0-1.0-1.13","5a09ebdf087f2e0001eae39f","6662009ae78f21dd82fcd179","666220fd9c87eb233f4182fd","null","","null","","","","","","","","./tasks/HMM-beads/Images/BlackBeadChoice.png","","","","","","","","","",""
"image-keyboard-response","55","112895","0.0-3.0-4.0-1.0-2.13","5a09ebdf087f2e0001eae39f","6662009ae78f21dd82fcd179","666220fd9c87eb233f4182fd","null","","null","","","","","","","","./tasks/HMM-beads/Images/BlackBeadChoiceCorrect.png","","","","","","","","","",""
"image-keyboard-response","56","113418","0.0-3.0-4.0-1.0-0.14","5a09ebdf087f2e0001eae39f","6662009ae78f21dd82fcd179","666220fd9c87eb233f4182fd","522","","f","","","","","","","","./tasks/HMM-beads/Images/NewTrialBC.png","practice","0","14","0","0","0","0","true","",""
"image-keyboard-response","57","113732","0.0-3.0-4.0-1.0-1.14","5a09ebdf087f2e0001eae39f","6662009ae78f21dd82fcd179","666220fd9c87eb233f4182fd","null","","null","","","","","","","","./tasks/HMM-beads/Images/BlackBeadChoice.png","","","","","","","","","",""
"image-keyboard-response","58","114234","0.0-3.0-4.0-1.0-2.14","5a09ebdf087f2e0001eae39f","6662009ae78f21dd82fcd179","666220fd9c87eb233f4182fd","null","","null","","","","","","","","./tasks/HMM-beads/Images/BlackBeadChoiceCorrect.png","","","","","","","","","",""
"image-keyboard-response","59","114352","0.0-3.0-4.0-1.0-0.15","5a09ebdf087f2e0001eae39f","6662009ae78f21dd82fcd179","666220fd9c87eb233f4182fd","116","","j","","","","","","","","./tasks/HMM-beads/Images/NewTrialBC.png","practice","0","15","0","0","0","1","false","",""
"image-keyboard-response","60","114666","0.0-3.0-4.0-1.0-1.15","5a09ebdf087f2e0001eae39f","6662009ae78f21dd82fcd179","666220fd9c87eb233f4182fd","null","","null","","","","","","","","./tasks/HMM-beads/Images/WhiteBeadChoice.png","","","","","","","","","",""
"image-keyboard-response","61","115179","0.0-3.0-4.0-1.0-2.15","5a09ebdf087f2e0001eae39f","6662009ae78f21dd82fcd179","666220fd9c87eb233f4182fd","null","","null","","","","","","","","./tasks/HMM-beads/Images/WhiteBeadChoiceWrong.png","","","","","","","","","",""
"image-keyboard-response","62","115571","0.0-3.0-4.0-1.0-0.16","5a09ebdf087f2e0001eae39f","6662009ae78f21dd82fcd179","666220fd9c87eb233f4182fd","390","","f","","","","","","","","./tasks/HMM-beads/Images/NewTrialBC.png","practice","0","16","0","0","0","0","true","",""
"image-keyboard-response","63","115889","0.0-3.0-4.0-1.0-1.16","5a09ebdf087f2e0001eae39f","6662009ae78f21dd82fcd179","666220fd9c87eb233f4182fd","null","","null","","","","","","","","./tasks/HMM-beads/Images/BlackBeadChoice.png","","","","","","","","","",""
"image-keyboard-response","64","116397","0.0-3.0-4.0-1.0-2.16","5a09ebdf087f2e0001eae39f","6662009ae78f21dd82fcd179","666220fd9c87eb233f4182fd","null","","null","","","","","","","","./tasks/HMM-beads/Images/BlackBeadChoiceCorrect.png","","","","","","","","","",""
"image-keyboard-response","65","116761","0.0-3.0-4.0-1.0-0.17","5a09ebdf087f2e0001eae39f","6662009ae78f21dd82fcd179","666220fd9c87eb233f4182fd","362","","f","","","","","","","","./tasks/HMM-beads/Images/NewTrialBC.png","practice","0","17","0","0","0","0","true","",""
"image-keyboard-response","66","117070","0.0-3.0-4.0-1.0-1.17","5a09ebdf087f2e0001eae39f","6662009ae78f21dd82fcd179","666220fd9c87eb233f4182fd","null","","null","","","","","","","","./tasks/HMM-beads/Images/BlackBeadChoice.png","","","","","","","","","",""
"image-keyboard-response","67","117585","0.0-3.0-4.0-1.0-2.17","5a09ebdf087f2e0001eae39f","6662009ae78f21dd82fcd179","666220fd9c87eb233f4182fd","null","","null","","","","","","","","./tasks/HMM-beads/Images/BlackBeadChoiceCorrect.png","","","","","","","","","",""
"image-keyboard-response","68","118408","0.0-3.0-4.0-1.0-0.18","5a09ebdf087f2e0001eae39f","6662009ae78f21dd82fcd179","666220fd9c87eb233f4182fd","822","","f","","","","","","","","./tasks/HMM-beads/Images/NewTrialBC.png","practice","0","18","0","1","0","0","false","",""
"image-keyboard-response","69","118718","0.0-3.0-4.0-1.0-1.18","5a09ebdf087f2e0001eae39f","6662009ae78f21dd82fcd179","666220fd9c87eb233f4182fd","null","","null","","","","","","","","./tasks/HMM-beads/Images/BlackBeadChoice.png","","","","","","","","","",""
"image-keyboard-response","70","119219","0.0-3.0-4.0-1.0-2.18","5a09ebdf087f2e0001eae39f","6662009ae78f21dd82fcd179","666220fd9c87eb233f4182fd","null","","null","","","","","","","","./tasks/HMM-beads/Images/BlackBeadChoiceWrong.png","","","","","","","","","",""
"image-keyboard-response","71","119314","0.0-3.0-4.0-1.0-0.19","5a09ebdf087f2e0001eae39f","6662009ae78f21dd82fcd179","666220fd9c87eb233f4182fd","93","","j","","","","","","","","./tasks/HMM-beads/Images/NewTrialWC.png","practice","0","19","0","0","1","1","false","",""
"image-keyboard-response","72","119619","0.0-3.0-4.0-1.0-1.19","5a09ebdf087f2e0001eae39f","6662009ae78f21dd82fcd179","666220fd9c87eb233f4182fd","null","","null","","","","","","","","./tasks/HMM-beads/Images/WhiteBeadChoice.png","","","","","","","","","",""
"image-keyboard-response","73","120124","0.0-3.0-4.0-1.0-2.19","5a09ebdf087f2e0001eae39f","6662009ae78f21dd82fcd179","666220fd9c87eb233f4182fd","null","","null","","","","","","","","./tasks/HMM-beads/Images/WhiteBeadChoiceWrong.png","","","","","","","","","",""
"image-keyboard-response","74","120582","0.0-3.0-4.0-1.0-0.20","5a09ebdf087f2e0001eae39f","6662009ae78f21dd82fcd179","666220fd9c87eb233f4182fd","456","","j","","","","","","","","./tasks/HMM-beads/Images/NewTrialBC.png","practice","0","20","0","0","0","1","false","",""
"image-keyboard-response","75","120894","0.0-3.0-4.0-1.0-1.20","5a09ebdf087f2e0001eae39f","6662009ae78f21dd82fcd179","666220fd9c87eb233f4182fd","null","","null","","","","","","","","./tasks/HMM-beads/Images/WhiteBeadChoice.png","","","","","","","","","",""
"image-keyboard-response","76","121409","0.0-3.0-4.0-1.0-2.20","5a09ebdf087f2e0001eae39f","6662009ae78f21dd82fcd179","666220fd9c87eb233f4182fd","null","","null","","","","","","","","./tasks/HMM-beads/Images/WhiteBeadChoiceWrong.png","","","","","","","","","",""
"image-keyboard-response","77","121756","0.0-3.0-4.0-1.0-0.21","5a09ebdf087f2e0001eae39f","6662009ae78f21dd82fcd179","666220fd9c87eb233f4182fd","346","","f","","","","","","","","./tasks/HMM-beads/Images/NewTrialBC.png","practice","0","21","0","1","0","0","false","",""
"image-keyboard-response","78","122068","0.0-3.0-4.0-1.0-1.21","5a09ebdf087f2e0001eae39f","6662009ae78f21dd82fcd179","666220fd9c87eb233f4182fd","null","","null","","","","","","","","./tasks/HMM-beads/Images/BlackBeadChoice.png","","","","","","","","","",""
"image-keyboard-response","79","122583","0.0-3.0-4.0-1.0-2.21","5a09ebdf087f2e0001eae39f","6662009ae78f21dd82fcd179","666220fd9c87eb233f4182fd","null","","null","","","","","","","","./tasks/HMM-beads/Images/BlackBeadChoiceWrong.png","","","","","","","","","",""
"image-keyboard-response","80","122773","0.0-3.0-4.0-1.0-0.22","5a09ebdf087f2e0001eae39f","6662009ae78f21dd82fcd179","666220fd9c87eb233f4182fd","189","","j","","","","","","","","./tasks/HMM-beads/Images/NewTrialWC.png","practice","0","22","1","1","1","1","true","",""
"image-keyboard-response","81","123090","0.0-3.0-4.0-1.0-1.22","5a09ebdf087f2e0001eae39f","6662009ae78f21dd82fcd179","666220fd9c87eb233f4182fd","null","","null","","","","","","","","./tasks/HMM-beads/Images/WhiteBeadChoice.png","","","","","","","","","",""
"image-keyboard-response","82","123601","0.0-3.0-4.0-1.0-2.22","5a09ebdf087f2e0001eae39f","6662009ae78f21dd82fcd179","666220fd9c87eb233f4182fd","null","","null","","","","","","","","./tasks/HMM-beads/Images/WhiteBeadChoiceCorrect.png","","","","","","","","","",""
"image-keyboard-response","83","123876","0.0-3.0-4.0-1.0-0.23","5a09ebdf087f2e0001eae39f","6662009ae78f21dd82fcd179","666220fd9c87eb233f4182fd","274","","j","","","","","","","","./tasks/HMM-beads/Images/NewTrialWC.png","practice","0","23","1","0","1","1","false","",""
"image-keyboard-response","84","124177","0.0-3.0-4.0-1.0-1.23","5a09ebdf087f2e0001eae39f","6662009ae78f21dd82fcd179","666220fd9c87eb233f4182fd","null","","null","","","","","","","","./tasks/HMM-beads/Images/WhiteBeadChoice.png","","","","","","","","","",""
"image-keyboard-response","85","124692","0.0-3.0-4.0-1.0-2.23","5a09ebdf087f2e0001eae39f","6662009ae78f21dd82fcd179","666220fd9c87eb233f4182fd","null","","null","","","","","","","","./tasks/HMM-beads/Images/WhiteBeadChoiceWrong.png","","","","","","","","","",""
"image-keyboard-response","86","124742","0.0-3.0-4.0-1.0-0.24","5a09ebdf087f2e0001eae39f","6662009ae78f21dd82fcd179","666220fd9c87eb233f4182fd","49","","f","","","","","","","","./tasks/HMM-beads/Images/NewTrialBC.png","practice","0","24","1","1","0","0","false","",""
"image-keyboard-response","87","125044","0.0-3.0-4.0-1.0-1.24","5a09ebdf087f2e0001eae39f","6662009ae78f21dd82fcd179","666220fd9c87eb233f4182fd","null","","null","","","","","","","","./tasks/HMM-beads/Images/BlackBeadChoice.png","","","","","","","","","",""
"image-keyboard-response","88","125552","0.0-3.0-4.0-1.0-2.24","5a09ebdf087f2e0001eae39f","6662009ae78f21dd82fcd179","666220fd9c87eb233f4182fd","null","","null","","","","","","","","./tasks/HMM-beads/Images/BlackBeadChoiceWrong.png","","","","","","","","","",""
"image-keyboard-response","89","126629","0.0-3.0-4.0-1.0-0.25","5a09ebdf087f2e0001eae39f","6662009ae78f21dd82fcd179","666220fd9c87eb233f4182fd","1075","","f","","","","","","","","./tasks/HMM-beads/Images/NewTrialWC.png","practice","0","25","1","1","1","0","false","",""
"image-keyboard-response","90","126939","0.0-3.0-4.0-1.0-1.25","5a09ebdf087f2e0001eae39f","6662009ae78f21dd82fcd179","666220fd9c87eb233f4182fd","null","","null","","","","","","","","./tasks/HMM-beads/Images/BlackBeadChoice.png","","","","","","","","","",""
"image-keyboard-response","91","127456","0.0-3.0-4.0-1.0-2.25","5a09ebdf087f2e0001eae39f","6662009ae78f21dd82fcd179","666220fd9c87eb233f4182fd","null","","null","","","","","","","","./tasks/HMM-beads/Images/BlackBeadChoiceWrong.png","","","","","","","","","",""
"image-keyboard-response","92","127969","0.0-3.0-4.0-1.0-0.26","5a09ebdf087f2e0001eae39f","6662009ae78f21dd82fcd179","666220fd9c87eb233f4182fd","512","","j","","","","","","","","./tasks/HMM-beads/Images/NewTrialWC.png","practice","0","26","1","1","1","1","true","",""
"image-keyboard-response","93","128287","0.0-3.0-4.0-1.0-1.26","5a09ebdf087f2e0001eae39f","6662009ae78f21dd82fcd179","666220fd9c87eb233f4182fd","null","","null","","","","","","","","./tasks/HMM-beads/Images/WhiteBeadChoice.png","","","","","","","","","",""
"image-keyboard-response","94","128791","0.0-3.0-4.0-1.0-2.26","5a09ebdf087f2e0001eae39f","6662009ae78f21dd82fcd179","666220fd9c87eb233f4182fd","null","","null","","","","","","","","./tasks/HMM-beads/Images/WhiteBeadChoiceCorrect.png","","","","","","","","","",""
"image-keyboard-response","95","129431","0.0-3.0-4.0-1.0-0.27","5a09ebdf087f2e0001eae39f","6662009ae78f21dd82fcd179","666220fd9c87eb233f4182fd","638","","f","","","","","","","","./tasks/HMM-beads/Images/NewTrialWC.png","practice","0","27","1","1","1","0","false","",""
"image-keyboard-response","96","129748","0.0-3.0-4.0-1.0-1.27","5a09ebdf087f2e0001eae39f","6662009ae78f21dd82fcd179","666220fd9c87eb233f4182fd","null","","null","","","","","","","","./tasks/HMM-beads/Images/BlackBeadChoice.png","","","","","","","","","",""
"image-keyboard-response","97","130258","0.0-3.0-4.0-1.0-2.27","5a09ebdf087f2e0001eae39f","6662009ae78f21dd82fcd179","666220fd9c87eb233f4182fd","null","","null","","","","","","","","./tasks/HMM-beads/Images/BlackBeadChoiceWrong.png","","","","","","","","","",""
"image-keyboard-response","98","130560","0.0-3.0-4.0-1.0-0.28","5a09ebdf087f2e0001eae39f","6662009ae78f21dd82fcd179","666220fd9c87eb233f4182fd","299","","j","","","","","","","","./tasks/HMM-beads/Images/NewTrialWC.png","practice","0","28","1","0","1","1","false","",""
"image-keyboard-response","99","130870","0.0-3.0-4.0-1.0-1.28","5a09ebdf087f2e0001eae39f","6662009ae78f21dd82fcd179","666220fd9c87eb233f4182fd","null","","null","","","","","","","","./tasks/HMM-beads/Images/WhiteBeadChoice.png","","","","","","","","","",""
"image-keyboard-response","100","131381","0.0-3.0-4.0-1.0-2.28","5a09ebdf087f2e0001eae39f","6662009ae78f21dd82fcd179","666220fd9c87eb233f4182fd","null","","null","","","","","","","","./tasks/HMM-beads/Images/WhiteBeadChoiceWrong.png","","","","","","","","","",""
"image-keyboard-response","101","134691","0.0-3.0-4.0-1.0-0.29","5a09ebdf087f2e0001eae39f","6662009ae78f21dd82fcd179","666220fd9c87eb233f4182fd","3309","","j","","","","","","","","./tasks/HMM-beads/Images/NewTrialBC.png","practice","0","29","1","1","0","1","true","",""
"image-keyboard-response","102","134997","0.0-3.0-4.0-1.0-1.29","5a09ebdf087f2e0001eae39f","6662009ae78f21dd82fcd179","666220fd9c87eb233f4182fd","null","","null","","","","","","","","./tasks/HMM-beads/Images/WhiteBeadChoice.png","","","","","","","","","",""
"image-keyboard-response","103","135503","0.0-3.0-4.0-1.0-2.29","5a09ebdf087f2e0001eae39f","6662009ae78f21dd82fcd179","666220fd9c87eb233f4182fd","null","","null","","","","","","","","./tasks/HMM-beads/Images/WhiteBeadChoiceCorrect.png","","","","","","","","","",""
"image-keyboard-response","104","136089","0.0-3.0-4.0-1.0-0.30","5a09ebdf087f2e0001eae39f","6662009ae78f21dd82fcd179","666220fd9c87eb233f4182fd","584","","j","","","","","","","","./tasks/HMM-beads/Images/NewTrialWC.png","practice","0","30","1","0","1","1","false","",""
"image-keyboard-response","105","136392","0.0-3.0-4.0-1.0-1.30","5a09ebdf087f2e0001eae39f","6662009ae78f21dd82fcd179","666220fd9c87eb233f4182fd","null","","null","","","","","","","","./tasks/HMM-beads/Images/WhiteBeadChoice.png","","","","","","","","","",""
"image-keyboard-response","106","136896","0.0-3.0-4.0-1.0-2.30","5a09ebdf087f2e0001eae39f","6662009ae78f21dd82fcd179","666220fd9c87eb233f4182fd","null","","null","","","","","","","","./tasks/HMM-beads/Images/WhiteBeadChoiceWrong.png","","","","","","","","","",""
"image-keyboard-response","107","137425","0.0-3.0-4.0-1.0-0.31","5a09ebdf087f2e0001eae39f","6662009ae78f21dd82fcd179","666220fd9c87eb233f4182fd","528","","f","","","","","","","","./tasks/HMM-beads/Images/NewTrialBC.png","practice","0","31","1","1","0","0","false","",""
"image-keyboard-response","108","137736","0.0-3.0-4.0-1.0-1.31","5a09ebdf087f2e0001eae39f","6662009ae78f21dd82fcd179","666220fd9c87eb233f4182fd","null","","null","","","","","","","","./tasks/HMM-beads/Images/BlackBeadChoice.png","","","","","","","","","",""
"image-keyboard-response","109","138242","0.0-3.0-4.0-1.0-2.31","5a09ebdf087f2e0001eae39f","6662009ae78f21dd82fcd179","666220fd9c87eb233f4182fd","null","","null","","","","","","","","./tasks/HMM-beads/Images/BlackBeadChoiceWrong.png","","","","","","","","","",""
"image-keyboard-response","110","139514","0.0-3.0-4.0-1.0-0.32","5a09ebdf087f2e0001eae39f","6662009ae78f21dd82fcd179","666220fd9c87eb233f4182fd","1270","","f","","","","","","","","./tasks/HMM-beads/Images/NewTrialWC.png","practice","0","32","1","1","1","0","false","",""
"image-keyboard-response","111","139823","0.0-3.0-4.0-1.0-1.32","5a09ebdf087f2e0001eae39f","6662009ae78f21dd82fcd179","666220fd9c87eb233f4182fd","null","","null","","","","","","","","./tasks/HMM-beads/Images/BlackBeadChoice.png","","","","","","","","","",""
"image-keyboard-response","112","140329","0.0-3.0-4.0-1.0-2.32","5a09ebdf087f2e0001eae39f","6662009ae78f21dd82fcd179","666220fd9c87eb233f4182fd","null","","null","","","","","","","","./tasks/HMM-beads/Images/BlackBeadChoiceWrong.png","","","","","","","","","",""
"image-keyboard-response","113","140624","0.0-3.0-4.0-1.0-0.33","5a09ebdf087f2e0001eae39f","6662009ae78f21dd82fcd179","666220fd9c87eb233f4182fd","294","","j","","","","","","","","./tasks/HMM-beads/Images/NewTrialWC.png","practice","0","33","1","1","1","1","true","",""
"image-keyboard-response","114","140930","0.0-3.0-4.0-1.0-1.33","5a09ebdf087f2e0001eae39f","6662009ae78f21dd82fcd179","666220fd9c87eb233f4182fd","null","","null","","","","","","","","./tasks/HMM-beads/Images/WhiteBeadChoice.png","","","","","","","","","",""
"image-keyboard-response","115","141438","0.0-3.0-4.0-1.0-2.33","5a09ebdf087f2e0001eae39f","6662009ae78f21dd82fcd179","666220fd9c87eb233f4182fd","null","","null","","","","","","","","./tasks/HMM-beads/Images/WhiteBeadChoiceCorrect.png","","","","","","","","","",""
"image-keyboard-response","116","142317","0.0-3.0-4.0-1.0-0.34","5a09ebdf087f2e0001eae39f","6662009ae78f21dd82fcd179","666220fd9c87eb233f4182fd","878","","j","","","","","","","","./tasks/HMM-beads/Images/NewTrialWC.png","practice","0","34","1","1","1","1","true","",""
"image-keyboard-response","117","142638","0.0-3.0-4.0-1.0-1.34","5a09ebdf087f2e0001eae39f","6662009ae78f21dd82fcd179","666220fd9c87eb233f4182fd","null","","null","","","","","","","","./tasks/HMM-beads/Images/WhiteBeadChoice.png","","","","","","","","","",""
"image-keyboard-response","118","143141","0.0-3.0-4.0-1.0-2.34","5a09ebdf087f2e0001eae39f","6662009ae78f21dd82fcd179","666220fd9c87eb233f4182fd","null","","null","","","","","","","","./tasks/HMM-beads/Images/WhiteBeadChoiceCorrect.png","","","","","","","","","",""
"image-keyboard-response","119","144350","0.0-3.0-4.0-1.0-0.35","5a09ebdf087f2e0001eae39f","6662009ae78f21dd82fcd179","666220fd9c87eb233f4182fd","1208","","f","","","","","","","","./tasks/HMM-beads/Images/NewTrialWC.png","practice","0","35","1","1","1","0","false","",""
"image-keyboard-response","120","144653","0.0-3.0-4.0-1.0-1.35","5a09ebdf087f2e0001eae39f","6662009ae78f21dd82fcd179","666220fd9c87eb233f4182fd","null","","null","","","","","","","","./tasks/HMM-beads/Images/BlackBeadChoice.png","","","","","","","","","",""
"image-keyboard-response","121","145157","0.0-3.0-4.0-1.0-2.35","5a09ebdf087f2e0001eae39f","6662009ae78f21dd82fcd179","666220fd9c87eb233f4182fd","null","","null","","","","","","","","./tasks/HMM-beads/Images/BlackBeadChoiceWrong.png","","","","","","","","","",""
"image-keyboard-response","122","146003","0.0-3.0-4.0-1.0-0.36","5a09ebdf087f2e0001eae39f","6662009ae78f21dd82fcd179","666220fd9c87eb233f4182fd","845","","j","","","","","","","","./tasks/HMM-beads/Images/NewTrialWC.png","practice","0","36","1","0","1","1","false","",""
"image-keyboard-response","123","146310","0.0-3.0-4.0-1.0-1.36","5a09ebdf087f2e0001eae39f","6662009ae78f21dd82fcd179","666220fd9c87eb233f4182fd","null","","null","","","","","","","","./tasks/HMM-beads/Images/WhiteBeadChoice.png","","","","","","","","","",""
"image-keyboard-response","124","146820","0.0-3.0-4.0-1.0-2.36","5a09ebdf087f2e0001eae39f","6662009ae78f21dd82fcd179","666220fd9c87eb233f4182fd","null","","null","","","","","","","","./tasks/HMM-beads/Images/WhiteBeadChoiceWrong.png","","","","","","","","","",""
"image-keyboard-response","125","147216","0.0-3.0-4.0-1.0-0.37","5a09ebdf087f2e0001eae39f","6662009ae78f21dd82fcd179","666220fd9c87eb233f4182fd","395","","f","","","","","","","","./tasks/HMM-beads/Images/NewTrialBC.png","practice","0","37","1","1","0","0","false","",""
"image-keyboard-response","126","147520","0.0-3.0-4.0-1.0-1.37","5a09ebdf087f2e0001eae39f","6662009ae78f21dd82fcd179","666220fd9c87eb233f4182fd","null","","null","","","","","","","","./tasks/HMM-beads/Images/BlackBeadChoice.png","","","","","","","","","",""
"image-keyboard-response","127","148036","0.0-3.0-4.0-1.0-2.37","5a09ebdf087f2e0001eae39f","6662009ae78f21dd82fcd179","666220fd9c87eb233f4182fd","null","","null","","","","","","","","./tasks/HMM-beads/Images/BlackBeadChoiceWrong.png","","","","","","","","","",""
"image-keyboard-response","128","149071","0.0-3.0-4.0-1.0-0.38","5a09ebdf087f2e0001eae39f","6662009ae78f21dd82fcd179","666220fd9c87eb233f4182fd","1034","","f","","","","","","","","./tasks/HMM-beads/Images/NewTrialWC.png","practice","0","38","1","1","1","0","false","",""
"image-keyboard-response","129","149374","0.0-3.0-4.0-1.0-1.38","5a09ebdf087f2e0001eae39f","6662009ae78f21dd82fcd179","666220fd9c87eb233f4182fd","null","","null","","","","","","","","./tasks/HMM-beads/Images/BlackBeadChoice.png","","","","","","","","","",""
"image-keyboard-response","130","149893","0.0-3.0-4.0-1.0-2.38","5a09ebdf087f2e0001eae39f","6662009ae78f21dd82fcd179","666220fd9c87eb233f4182fd","null","","null","","","","","","","","./tasks/HMM-beads/Images/BlackBeadChoiceWrong.png","","","","","","","","","",""
"image-keyboard-response","131","150615","0.0-3.0-4.0-1.0-0.39","5a09ebdf087f2e0001eae39f","6662009ae78f21dd82fcd179","666220fd9c87eb233f4182fd","721","","j","","","","","","","","./tasks/HMM-beads/Images/NewTrialWC.png","practice","0","39","1","1","1","1","true","",""
"image-keyboard-response","132","150927","0.0-3.0-4.0-1.0-1.39","5a09ebdf087f2e0001eae39f","6662009ae78f21dd82fcd179","666220fd9c87eb233f4182fd","null","","null","","","","","","","","./tasks/HMM-beads/Images/WhiteBeadChoice.png","","","","","","","","","",""
"image-keyboard-response","133","151435","0.0-3.0-4.0-1.0-2.39","5a09ebdf087f2e0001eae39f","6662009ae78f21dd82fcd179","666220fd9c87eb233f4182fd","null","","null","","","","","","","","./tasks/HMM-beads/Images/WhiteBeadChoiceCorrect.png","","","","","","","","","",""
"html-keyboard-response","134","153706","0.0-3.0-4.0-2.0","5a09ebdf087f2e0001eae39f","6662009ae78f21dd82fcd179","666220fd9c87eb233f4182fd","2268",""," ","","","","","","","","","","","","","","","","","",""
"instructions","135","161046","0.0-3.0-5.0","5a09ebdf087f2e0001eae39f","6662009ae78f21dd82fcd179","666220fd9c87eb233f4182fd","7338","","","","[{""page_index"":0,""viewing_time"":3501},{""page_index"":1,""viewing_time"":3837}]","","","","","","","","","","","","","","","",""
"html-keyboard-response","136","164478","0.0-3.0-6.0-0.0","5a09ebdf087f2e0001eae39f","6662009ae78f21dd82fcd179","666220fd9c87eb233f4182fd","3431",""," ","","","","","","","","<div align=center>In this block, there will be a <b>1% chance</b> that the jar on the next trial will be different from the jar on the current trial.<br><br></div>","","","","","","","","","",""
"image-keyboard-response","137","165110","0.0-3.0-6.0-1.0-0.0","5a09ebdf087f2e0001eae39f","6662009ae78f21dd82fcd179","666220fd9c87eb233f4182fd","630","","j","","","","","","","","./tasks/HMM-beads/Images/NoChoice.png","lowH","1","0","1","0","9","1","false","",""
"image-keyboard-response","138","165414","0.0-3.0-6.0-1.0-1.0","5a09ebdf087f2e0001eae39f","6662009ae78f21dd82fcd179","666220fd9c87eb233f4182fd","null","","null","","","","","","","","./tasks/HMM-beads/Images/WhiteBeadChoice.png","","","","","","","","","",""
"image-keyboard-response","139","165924","0.0-3.0-6.0-1.0-2.0","5a09ebdf087f2e0001eae39f","6662009ae78f21dd82fcd179","666220fd9c87eb233f4182fd","null","","null","","","","","","","","./tasks/HMM-beads/Images/WhiteBeadChoiceWrong.png","","","","","","","","","",""
"image-keyboard-response","140","166206","0.0-3.0-6.0-1.0-0.1","5a09ebdf087f2e0001eae39f","6662009ae78f21dd82fcd179","666220fd9c87eb233f4182fd","282","","f","","","","","","","","./tasks/HMM-beads/Images/NewTrialBC.png","lowH","1","1","1","1","0","0","false","",""
"image-keyboard-response","141","166521","0.0-3.0-6.0-1.0-1.1","5a09ebdf087f2e0001eae39f","6662009ae78f21dd82fcd179","666220fd9c87eb233f4182fd","null","","null","","","","","","","","./tasks/HMM-beads/Images/BlackBeadChoice.png","","","","","","","","","",""
"image-keyboard-response","142","167024","0.0-3.0-6.0-1.0-2.1","5a09ebdf087f2e0001eae39f","6662009ae78f21dd82fcd179","666220fd9c87eb233f4182fd","null","","null","","","","","","","","./tasks/HMM-beads/Images/BlackBeadChoiceWrong.png","","","","","","","","","",""
"image-keyboard-response","143","167166","0.0-3.0-6.0-1.0-0.2","5a09ebdf087f2e0001eae39f","6662009ae78f21dd82fcd179","666220fd9c87eb233f4182fd","141","","j","","","","","","","","./tasks/HMM-beads/Images/NewTrialWC.png","lowH","1","2","1","1","1","1","true","",""
"image-keyboard-response","144","167470","0.0-3.0-6.0-1.0-1.2","5a09ebdf087f2e0001eae39f","6662009ae78f21dd82fcd179","666220fd9c87eb233f4182fd","null","","null","","","","","","","","./tasks/HMM-beads/Images/WhiteBeadChoice.png","","","","","","","","","",""
"image-keyboard-response","145","167977","0.0-3.0-6.0-1.0-2.2","5a09ebdf087f2e0001eae39f","6662009ae78f21dd82fcd179","666220fd9c87eb233f4182fd","null","","null","","","","","","","","./tasks/HMM-beads/Images/WhiteBeadChoiceCorrect.png","","","","","","","","","",""
"image-keyboard-response","146","168227","0.0-3.0-6.0-1.0-0.3","5a09ebdf087f2e0001eae39f","6662009ae78f21dd82fcd179","666220fd9c87eb233f4182fd","248","","j","","","","","","","","./tasks/HMM-beads/Images/NewTrialWC.png","lowH","1","3","1","1","1","1","true","",""
"image-keyboard-response","147","168531","0.0-3.0-6.0-1.0-1.3","5a09ebdf087f2e0001eae39f","6662009ae78f21dd82fcd179","666220fd9c87eb233f4182fd","null","","null","","","","","","","","./tasks/HMM-beads/Images/WhiteBeadChoice.png","","","","","","","","","",""
"image-keyboard-response","148","169045","0.0-3.0-6.0-1.0-2.3","5a09ebdf087f2e0001eae39f","6662009ae78f21dd82fcd179","666220fd9c87eb233f4182fd","null","","null","","","","","","","","./tasks/HMM-beads/Images/WhiteBeadChoiceCorrect.png","","","","","","","","","",""
"image-keyboard-response","149","169492","0.0-3.0-6.0-1.0-0.4","5a09ebdf087f2e0001eae39f","6662009ae78f21dd82fcd179","666220fd9c87eb233f4182fd","446","","j","","","","","","","","./tasks/HMM-beads/Images/NewTrialWC.png","lowH","1","4","1","1","1","1","true","",""
"image-keyboard-response","150","169805","0.0-3.0-6.0-1.0-1.4","5a09ebdf087f2e0001eae39f","6662009ae78f21dd82fcd179","666220fd9c87eb233f4182fd","null","","null","","","","","","","","./tasks/HMM-beads/Images/WhiteBeadChoice.png","","","","","","","","","",""
"image-keyboard-response","151","170310","0.0-3.0-6.0-1.0-2.4","5a09ebdf087f2e0001eae39f","6662009ae78f21dd82fcd179","666220fd9c87eb233f4182fd","null","","null","","","","","","","","./tasks/HMM-beads/Images/WhiteBeadChoiceCorrect.png","","","","","","","","","",""
"image-keyboard-response","152","170622","0.0-3.0-6.0-1.0-0.5","5a09ebdf087f2e0001eae39f","6662009ae78f21dd82fcd179","666220fd9c87eb233f4182fd","310","","j","","","","","","","","./tasks/HMM-beads/Images/NewTrialWC.png","lowH","1","5","1","1","1","1","true","",""
"image-keyboard-response","153","170936","0.0-3.0-6.0-1.0-1.5","5a09ebdf087f2e0001eae39f","6662009ae78f21dd82fcd179","666220fd9c87eb233f4182fd","null","","null","","","","","","","","./tasks/HMM-beads/Images/WhiteBeadChoice.png","","","","","","","","","",""
"image-keyboard-response","154","171446","0.0-3.0-6.0-1.0-2.5","5a09ebdf087f2e0001eae39f","6662009ae78f21dd82fcd179","666220fd9c87eb233f4182fd","null","","null","","","","","","","","./tasks/HMM-beads/Images/WhiteBeadChoiceCorrect.png","","","","","","","","","",""
"image-keyboard-response","155","171731","0.0-3.0-6.0-1.0-0.6","5a09ebdf087f2e0001eae39f","6662009ae78f21dd82fcd179","666220fd9c87eb233f4182fd","284","","j","","","","","","","","./tasks/HMM-beads/Images/NewTrialWC.png","lowH","1","6","1","0","1","1","false","",""
"image-keyboard-response","156","172046","0.0-3.0-6.0-1.0-1.6","5a09ebdf087f2e0001eae39f","6662009ae78f21dd82fcd179","666220fd9c87eb233f4182fd","null","","null","","","","","","","","./tasks/HMM-beads/Images/WhiteBeadChoice.png","","","","","","","","","",""
"image-keyboard-response","157","172559","0.0-3.0-6.0-1.0-2.6","5a09ebdf087f2e0001eae39f","6662009ae78f21dd82fcd179","666220fd9c87eb233f4182fd","null","","null","","","","","","","","./tasks/HMM-beads/Images/WhiteBeadChoiceWrong.png","","","","","","","","","",""
"image-keyboard-response","158","172975","0.0-3.0-6.0-1.0-0.7","5a09ebdf087f2e0001eae39f","6662009ae78f21dd82fcd179","666220fd9c87eb233f4182fd","416","","j","","","","","","","","./tasks/HMM-beads/Images/NewTrialBC.png","lowH","1","7","1","1","0","1","true","",""
"image-keyboard-response","159","173289","0.0-3.0-6.0-1.0-1.7","5a09ebdf087f2e0001eae39f","6662009ae78f21dd82fcd179","666220fd9c87eb233f4182fd","null","","null","","","","","","","","./tasks/HMM-beads/Images/WhiteBeadChoice.png","","","","","","","","","",""
"image-keyboard-response","160","173792","0.0-3.0-6.0-1.0-2.7","5a09ebdf087f2e0001eae39f","6662009ae78f21dd82fcd179","666220fd9c87eb233f4182fd","null","","null","","","","","","","","./tasks/HMM-beads/Images/WhiteBeadChoiceCorrect.png","","","","","","","","","",""
"image-keyboard-response","161","174217","0.0-3.0-6.0-1.0-0.8","5a09ebdf087f2e0001eae39f","6662009ae78f21dd82fcd179","666220fd9c87eb233f4182fd","423","","j","","","","","","","","./tasks/HMM-beads/Images/NewTrialWC.png","lowH","1","8","1","1","1","1","true","",""
"image-keyboard-response","162","174531","0.0-3.0-6.0-1.0-1.8","5a09ebdf087f2e0001eae39f","6662009ae78f21dd82fcd179","666220fd9c87eb233f4182fd","null","","null","","","","","","","","./tasks/HMM-beads/Images/WhiteBeadChoice.png","","","","","","","","","",""
"image-keyboard-response","163","175044","0.0-3.0-6.0-1.0-2.8","5a09ebdf087f2e0001eae39f","6662009ae78f21dd82fcd179","666220fd9c87eb233f4182fd","null","","null","","","","","","","","./tasks/HMM-beads/Images/WhiteBeadChoiceCorrect.png","","","","","","","","","",""
"image-keyboard-response","164","175388","0.0-3.0-6.0-1.0-0.9","5a09ebdf087f2e0001eae39f","6662009ae78f21dd82fcd179","666220fd9c87eb233f4182fd","343","","j","","","","","","","","./tasks/HMM-beads/Images/NewTrialWC.png","lowH","1","9","1","1","1","1","true","",""
"image-keyboard-response","165","175691","0.0-3.0-6.0-1.0-1.9","5a09ebdf087f2e0001eae39f","6662009ae78f21dd82fcd179","666220fd9c87eb233f4182fd","null","","null","","","","","","","","./tasks/HMM-beads/Images/WhiteBeadChoice.png","","","","","","","","","",""
"image-keyboard-response","166","176195","0.0-3.0-6.0-1.0-2.9","5a09ebdf087f2e0001eae39f","6662009ae78f21dd82fcd179","666220fd9c87eb233f4182fd","null","","null","","","","","","","","./tasks/HMM-beads/Images/WhiteBeadChoiceCorrect.png","","","","","","","","","",""
"image-keyboard-response","167","176518","0.0-3.0-6.0-1.0-0.10","5a09ebdf087f2e0001eae39f","6662009ae78f21dd82fcd179","666220fd9c87eb233f4182fd","322","","j","","","","","","","","./tasks/HMM-beads/Images/NewTrialWC.png","lowH","1","10","1","1","1","1","true","",""
"image-keyboard-response","168","176822","0.0-3.0-6.0-1.0-1.10","5a09ebdf087f2e0001eae39f","6662009ae78f21dd82fcd179","666220fd9c87eb233f4182fd","null","","null","","","","","","","","./tasks/HMM-beads/Images/WhiteBeadChoice.png","","","","","","","","","",""
"image-keyboard-response","169","177327","0.0-3.0-6.0-1.0-2.10","5a09ebdf087f2e0001eae39f","6662009ae78f21dd82fcd179","666220fd9c87eb233f4182fd","null","","null","","","","","","","","./tasks/HMM-beads/Images/WhiteBeadChoiceCorrect.png","","","","","","","","","",""
"image-keyboard-response","170","177806","0.0-3.0-6.0-1.0-0.11","5a09ebdf087f2e0001eae39f","6662009ae78f21dd82fcd179","666220fd9c87eb233f4182fd","478","","j","","","","","","","","./tasks/HMM-beads/Images/NewTrialWC.png","lowH","1","11","1","1","1","1","true","",""
"image-keyboard-response","171","178112","0.0-3.0-6.0-1.0-1.11","5a09ebdf087f2e0001eae39f","6662009ae78f21dd82fcd179","666220fd9c87eb233f4182fd","null","","null","","","","","","","","./tasks/HMM-beads/Images/WhiteBeadChoice.png","","","","","","","","","",""
"image-keyboard-response","172","178620","0.0-3.0-6.0-1.0-2.11","5a09ebdf087f2e0001eae39f","6662009ae78f21dd82fcd179","666220fd9c87eb233f4182fd","null","","null","","","","","","","","./tasks/HMM-beads/Images/WhiteBeadChoiceCorrect.png","","","","","","","","","",""
"image-keyboard-response","173","179098","0.0-3.0-6.0-1.0-0.12","5a09ebdf087f2e0001eae39f","6662009ae78f21dd82fcd179","666220fd9c87eb233f4182fd","478","","j","","","","","","","","./tasks/HMM-beads/Images/NewTrialWC.png","lowH","1","12","1","1","1","1","true","",""
"image-keyboard-response","174","179402","0.0-3.0-6.0-1.0-1.12","5a09ebdf087f2e0001eae39f","6662009ae78f21dd82fcd179","666220fd9c87eb233f4182fd","null","","null","","","","","","","","./tasks/HMM-beads/Images/WhiteBeadChoice.png","","","","","","","","","",""
"image-keyboard-response","175","179911","0.0-3.0-6.0-1.0-2.12","5a09ebdf087f2e0001eae39f","6662009ae78f21dd82fcd179","666220fd9c87eb233f4182fd","null","","null","","","","","","","","./tasks/HMM-beads/Images/WhiteBeadChoiceCorrect.png","","","","","","","","","",""
"image-keyboard-response","176","180147","0.0-3.0-6.0-1.0-0.13","5a09ebdf087f2e0001eae39f","6662009ae78f21dd82fcd179","666220fd9c87eb233f4182fd","235","","j","","","","","","","","./tasks/HMM-beads/Images/NewTrialWC.png","lowH","1","13","1","0","1","1","false","",""
"image-keyboard-response","177","180458","0.0-3.0-6.0-1.0-1.13","5a09ebdf087f2e0001eae39f","6662009ae78f21dd82fcd179","666220fd9c87eb233f4182fd","null","","null","","","","","","","","./tasks/HMM-beads/Images/WhiteBeadChoice.png","","","","","","","","","",""
"image-keyboard-response","178","180970","0.0-3.0-6.0-1.0-2.13","5a09ebdf087f2e0001eae39f","6662009ae78f21dd82fcd179","666220fd9c87eb233f4182fd","null","","null","","","","","","","","./tasks/HMM-beads/Images/WhiteBeadChoiceWrong.png","","","","","","","","","",""
"image-keyboard-response","179","181417","0.0-3.0-6.0-1.0-0.14","5a09ebdf087f2e0001eae39f","6662009ae78f21dd82fcd179","666220fd9c87eb233f4182fd","446","","f","","","","","","","","./tasks/HMM-beads/Images/NewTrialBC.png","lowH","1","14","1","0","0","0","true","",""
"image-keyboard-response","180","181719","0.0-3.0-6.0-1.0-1.14","5a09ebdf087f2e0001eae39f","6662009ae78f21dd82fcd179","666220fd9c87eb233f4182fd","null","","null","","","","","","","","./tasks/HMM-beads/Images/BlackBeadChoice.png","","","","","","","","","",""
"image-keyboard-response","181","182228","0.0-3.0-6.0-1.0-2.14","5a09ebdf087f2e0001eae39f","6662009ae78f21dd82fcd179","666220fd9c87eb233f4182fd","null","","null","","","","","","","","./tasks/HMM-beads/Images/BlackBeadChoiceCorrect.png","","","","","","","","","",""
"image-keyboard-response","182","182637","0.0-3.0-6.0-1.0-0.15","5a09ebdf087f2e0001eae39f","6662009ae78f21dd82fcd179","666220fd9c87eb233f4182fd","408","","f","","","","","","","","./tasks/HMM-beads/Images/NewTrialBC.png","lowH","1","15","1","1","0","0","false","",""
"image-keyboard-response","183","182945","0.0-3.0-6.0-1.0-1.15","5a09ebdf087f2e0001eae39f","6662009ae78f21dd82fcd179","666220fd9c87eb233f4182fd","null","","null","","","","","","","","./tasks/HMM-beads/Images/BlackBeadChoice.png","","","","","","","","","",""
"image-keyboard-response","184","183447","0.0-3.0-6.0-1.0-2.15","5a09ebdf087f2e0001eae39f","6662009ae78f21dd82fcd179","666220fd9c87eb233f4182fd","null","","null","","","","","","","","./tasks/HMM-beads/Images/BlackBeadChoiceWrong.png","","","","","","","","","",""
"image-keyboard-response","185","184025","0.0-3.0-6.0-1.0-0.16","5a09ebdf087f2e0001eae39f","6662009ae78f21dd82fcd179","666220fd9c87eb233f4182fd","577","","j","","","","","","","","./tasks/HMM-beads/Images/NewTrialWC.png","lowH","1","16","1","1","1","1","true","",""
"image-keyboard-response","186","184337","0.0-3.0-6.0-1.0-1.16","5a09ebdf087f2e0001eae39f","6662009ae78f21dd82fcd179","666220fd9c87eb233f4182fd","null","","null","","","","","","","","./tasks/HMM-beads/Images/WhiteBeadChoice.png","","","","","","","","","",""
"image-keyboard-response","187","184841","0.0-3.0-6.0-1.0-2.16","5a09ebdf087f2e0001eae39f","6662009ae78f21dd82fcd179","666220fd9c87eb233f4182fd","null","","null","","","","","","","","./tasks/HMM-beads/Images/WhiteBeadChoiceCorrect.png","","","","","","","","","",""
"image-keyboard-response","188","185156","0.0-3.0-6.0-1.0-0.17","5a09ebdf087f2e0001eae39f","6662009ae78f21dd82fcd179","666220fd9c87eb233f4182fd","314","","j","","","","","","","","./tasks/HMM-beads/Images/NewTrialWC.png","lowH","1","17","1","1","1","1","true","",""
"image-keyboard-response","189","185464","0.0-3.0-6.0-1.0-1.17","5a09ebdf087f2e0001eae39f","6662009ae78f21dd82fcd179","666220fd9c87eb233f4182fd","null","","null","","","","","","","","./tasks/HMM-beads/Images/WhiteBeadChoice.png","","","","","","","","","",""
"image-keyboard-response","190","185969","0.0-3.0-6.0-1.0-2.17","5a09ebdf087f2e0001eae39f","6662009ae78f21dd82fcd179","666220fd9c87eb233f4182fd","null","","null","","","","","","","","./tasks/HMM-beads/Images/WhiteBeadChoiceCorrect.png","","","","","","","","","",""
"image-keyboard-response","191","186271","0.0-3.0-6.0-1.0-0.18","5a09ebdf087f2e0001eae39f","6662009ae78f21dd82fcd179","666220fd9c87eb233f4182fd","302","","j","","","","","","","","./tasks/HMM-beads/Images/NewTrialWC.png","lowH","1","18","1","1","1","1","true","",""
"image-keyboard-response","192","186581","0.0-3.0-6.0-1.0-1.18","5a09ebdf087f2e0001eae39f","6662009ae78f21dd82fcd179","666220fd9c87eb233f4182fd","null","","null","","","","","","","","./tasks/HMM-beads/Images/WhiteBeadChoice.png","","","","","","","","","",""
"image-keyboard-response","193","187089","0.0-3.0-6.0-1.0-2.18","5a09ebdf087f2e0001eae39f","6662009ae78f21dd82fcd179","666220fd9c87eb233f4182fd","null","","null","","","","","","","","./tasks/HMM-beads/Images/WhiteBeadChoiceCorrect.png","","","","","","","","","",""
"image-keyboard-response","194","187404","0.0-3.0-6.0-1.0-0.19","5a09ebdf087f2e0001eae39f","6662009ae78f21dd82fcd179","666220fd9c87eb233f4182fd","314","","j","","","","","","","","./tasks/HMM-beads/Images/NewTrialWC.png","lowH","1","19","1","1","1","1","true","",""
"image-keyboard-response","195","187718","0.0-3.0-6.0-1.0-1.19","5a09ebdf087f2e0001eae39f","6662009ae78f21dd82fcd179","666220fd9c87eb233f4182fd","null","","null","","","","","","","","./tasks/HMM-beads/Images/WhiteBeadChoice.png","","","","","","","","","",""
"image-keyboard-response","196","188230","0.0-3.0-6.0-1.0-2.19","5a09ebdf087f2e0001eae39f","6662009ae78f21dd82fcd179","666220fd9c87eb233f4182fd","null","","null","","","","","","","","./tasks/HMM-beads/Images/WhiteBeadChoiceCorrect.png","","","","","","","","","",""
"image-keyboard-response","197","188553","0.0-3.0-6.0-1.0-0.20","5a09ebdf087f2e0001eae39f","6662009ae78f21dd82fcd179","666220fd9c87eb233f4182fd","323","","j","","","","","","","","./tasks/HMM-beads/Images/NewTrialWC.png","lowH","1","20","1","1","1","1","true","",""
"image-keyboard-response","198","188861","0.0-3.0-6.0-1.0-1.20","5a09ebdf087f2e0001eae39f","6662009ae78f21dd82fcd179","666220fd9c87eb233f4182fd","null","","null","","","","","","","","./tasks/HMM-beads/Images/WhiteBeadChoice.png","","","","","","","","","",""
"image-keyboard-response","199","189371","0.0-3.0-6.0-1.0-2.20","5a09ebdf087f2e0001eae39f","6662009ae78f21dd82fcd179","666220fd9c87eb233f4182fd","null","","null","","","","","","","","./tasks/HMM-beads/Images/WhiteBeadChoiceCorrect.png","","","","","","","","","",""
"image-keyboard-response","200","189710","0.0-3.0-6.0-1.0-0.21","5a09ebdf087f2e0001eae39f","6662009ae78f21dd82fcd179","666220fd9c87eb233f4182fd","336","","j","","","","","","","","./tasks/HMM-beads/Images/NewTrialWC.png","lowH","1","21","1","1","1","1","true","",""
"image-keyboard-response","201","190026","0.0-3.0-6.0-1.0-1.21","5a09ebdf087f2e0001eae39f","6662009ae78f21dd82fcd179","666220fd9c87eb233f4182fd","null","","null","","","","","","","","./tasks/HMM-beads/Images/WhiteBeadChoice.png","","","","","","","","","",""
"image-keyboard-response","202","190539","0.0-3.0-6.0-1.0-2.21","5a09ebdf087f2e0001eae39f","6662009ae78f21dd82fcd179","666220fd9c87eb233f4182fd","null","","null","","","","","","","","./tasks/HMM-beads/Images/WhiteBeadChoiceCorrect.png","","","","","","","","","",""
"image-keyboard-response","203","190833","0.0-3.0-6.0-1.0-0.22","5a09ebdf087f2e0001eae39f","6662009ae78f21dd82fcd179","666220fd9c87eb233f4182fd","292","","j","","","","","","","","./tasks/HMM-beads/Images/NewTrialWC.png","lowH","1","22","1","1","1","1","true","",""
"image-keyboard-response","204","191141","0.0-3.0-6.0-1.0-1.22","5a09ebdf087f2e0001eae39f","6662009ae78f21dd82fcd179","666220fd9c87eb233f4182fd","null","","null","","","","","","","","./tasks/HMM-beads/Images/WhiteBeadChoice.png","","","","","","","","","",""
"image-keyboard-response","205","191657","0.0-3.0-6.0-1.0-2.22","5a09ebdf087f2e0001eae39f","6662009ae78f21dd82fcd179","666220fd9c87eb233f4182fd","null","","null","","","","","","","","./tasks/HMM-beads/Images/WhiteBeadChoiceCorrect.png","","","","","","","","","",""
"image-keyboard-response","206","191899","0.0-3.0-6.0-1.0-0.23","5a09ebdf087f2e0001eae39f","6662009ae78f21dd82fcd179","666220fd9c87eb233f4182fd","240","","f","","","","","","","","./tasks/HMM-beads/Images/NewTrialWC.png","lowH","1","23","1","1","1","0","false","",""
"image-keyboard-response","207","192204","0.0-3.0-6.0-1.0-1.23","5a09ebdf087f2e0001eae39f","6662009ae78f21dd82fcd179","666220fd9c87eb233f4182fd","null","","null","","","","","","","","./tasks/HMM-beads/Images/BlackBeadChoice.png","","","","","","","","","",""
"image-keyboard-response","208","192707","0.0-3.0-6.0-1.0-2.23","5a09ebdf087f2e0001eae39f","6662009ae78f21dd82fcd179","666220fd9c87eb233f4182fd","null","","null","","","","","","","","./tasks/HMM-beads/Images/BlackBeadChoiceWrong.png","","","","","","","","","",""
"image-keyboard-response","209","193046","0.0-3.0-6.0-1.0-0.24","5a09ebdf087f2e0001eae39f","6662009ae78f21dd82fcd179","666220fd9c87eb233f4182fd","338","","f","","","","","","","","./tasks/HMM-beads/Images/NewTrialWC.png","lowH","1","24","1","0","1","0","true","",""
"image-keyboard-response","210","193361","0.0-3.0-6.0-1.0-1.24","5a09ebdf087f2e0001eae39f","6662009ae78f21dd82fcd179","666220fd9c87eb233f4182fd","null","","null","","","","","","","","./tasks/HMM-beads/Images/BlackBeadChoice.png","","","","","","","","","",""
"image-keyboard-response","211","193872","0.0-3.0-6.0-1.0-2.24","5a09ebdf087f2e0001eae39f","6662009ae78f21dd82fcd179","666220fd9c87eb233f4182fd","null","","null","","","","","","","","./tasks/HMM-beads/Images/BlackBeadChoiceCorrect.png","","","","","","","","","",""
"image-keyboard-response","212","194380","0.0-3.0-6.0-1.0-0.25","5a09ebdf087f2e0001eae39f","6662009ae78f21dd82fcd179","666220fd9c87eb233f4182fd","506","","f","","","","","","","","./tasks/HMM-beads/Images/NewTrialBC.png","lowH","1","25","1","1","0","0","false","",""
"image-keyboard-response","213","194690","0.0-3.0-6.0-1.0-1.25","5a09ebdf087f2e0001eae39f","6662009ae78f21dd82fcd179","666220fd9c87eb233f4182fd","null","","null","","","","","","","","./tasks/HMM-beads/Images/BlackBeadChoice.png","","","","","","","","","",""
"image-keyboard-response","214","195191","0.0-3.0-6.0-1.0-2.25","5a09ebdf087f2e0001eae39f","6662009ae78f21dd82fcd179","666220fd9c87eb233f4182fd","null","","null","","","","","","","","./tasks/HMM-beads/Images/BlackBeadChoiceWrong.png","","","","","","","","","",""
"image-keyboard-response","215","195679","0.0-3.0-6.0-1.0-0.26","5a09ebdf087f2e0001eae39f","6662009ae78f21dd82fcd179","666220fd9c87eb233f4182fd","487","","j","","","","","","","","./tasks/HMM-beads/Images/NewTrialWC.png","lowH","1","26","1","0","1","1","false","",""
"image-keyboard-response","216","195983","0.0-3.0-6.0-1.0-1.26","5a09ebdf087f2e0001eae39f","6662009ae78f21dd82fcd179","666220fd9c87eb233f4182fd","null","","null","","","","","","","","./tasks/HMM-beads/Images/WhiteBeadChoice.png","","","","","","","","","",""
"image-keyboard-response","217","196486","0.0-3.0-6.0-1.0-2.26","5a09ebdf087f2e0001eae39f","6662009ae78f21dd82fcd179","666220fd9c87eb233f4182fd","null","","null","","","","","","","","./tasks/HMM-beads/Images/WhiteBeadChoiceWrong.png","","","","","","","","","",""
"image-keyboard-response","218","197046","0.0-3.0-6.0-1.0-0.27","5a09ebdf087f2e0001eae39f","6662009ae78f21dd82fcd179","666220fd9c87eb233f4182fd","558","","f","","","","","","","","./tasks/HMM-beads/Images/NewTrialBC.png","lowH","1","27","1","1","0","0","false","",""
"image-keyboard-response","219","197348","0.0-3.0-6.0-1.0-1.27","5a09ebdf087f2e0001eae39f","6662009ae78f21dd82fcd179","666220fd9c87eb233f4182fd","null","","null","","","","","","","","./tasks/HMM-beads/Images/BlackBeadChoice.png","","","","","","","","","",""
"image-keyboard-response","220","197853","0.0-3.0-6.0-1.0-2.27","5a09ebdf087f2e0001eae39f","6662009ae78f21dd82fcd179","666220fd9c87eb233f4182fd","null","","null","","","","","","","","./tasks/HMM-beads/Images/BlackBeadChoiceWrong.png","","","","","","","","","",""
"image-keyboard-response","221","197947","0.0-3.0-6.0-1.0-0.28","5a09ebdf087f2e0001eae39f","6662009ae78f21dd82fcd179","666220fd9c87eb233f4182fd","94","","j","","","","","","","","./tasks/HMM-beads/Images/NewTrialWC.png","lowH","1","28","1","1","1","1","true","",""
"image-keyboard-response","222","198261","0.0-3.0-6.0-1.0-1.28","5a09ebdf087f2e0001eae39f","6662009ae78f21dd82fcd179","666220fd9c87eb233f4182fd","null","","null","","","","","","","","./tasks/HMM-beads/Images/WhiteBeadChoice.png","","","","","","","","","",""
"image-keyboard-response","223","198771","0.0-3.0-6.0-1.0-2.28","5a09ebdf087f2e0001eae39f","6662009ae78f21dd82fcd179","666220fd9c87eb233f4182fd","null","","null","","","","","","","","./tasks/HMM-beads/Images/WhiteBeadChoiceCorrect.png","","","","","","","","","",""
"image-keyboard-response","224","198966","0.0-3.0-6.0-1.0-0.29","5a09ebdf087f2e0001eae39f","6662009ae78f21dd82fcd179","666220fd9c87eb233f4182fd","194","","j","","","","","","","","./tasks/HMM-beads/Images/NewTrialWC.png","lowH","1","29","1","1","1","1","true","",""
"image-keyboard-response","225","199281","0.0-3.0-6.0-1.0-1.29","5a09ebdf087f2e0001eae39f","6662009ae78f21dd82fcd179","666220fd9c87eb233f4182fd","null","","null","","","","","","","","./tasks/HMM-beads/Images/WhiteBeadChoice.png","","","","","","","","","",""
"image-keyboard-response","226","199782","0.0-3.0-6.0-1.0-2.29","5a09ebdf087f2e0001eae39f","6662009ae78f21dd82fcd179","666220fd9c87eb233f4182fd","null","","null","","","","","","","","./tasks/HMM-beads/Images/WhiteBeadChoiceCorrect.png","","","","","","","","","",""
"image-keyboard-response","227","200046","0.0-3.0-6.0-1.0-0.30","5a09ebdf087f2e0001eae39f","6662009ae78f21dd82fcd179","666220fd9c87eb233f4182fd","264","","j","","","","","","","","./tasks/HMM-beads/Images/NewTrialWC.png","lowH","1","30","1","1","1","1","true","",""
"image-keyboard-response","228","200360","0.0-3.0-6.0-1.0-1.30","5a09ebdf087f2e0001eae39f","6662009ae78f21dd82fcd179","666220fd9c87eb233f4182fd","null","","null","","","","","","","","./tasks/HMM-beads/Images/WhiteBeadChoice.png","","","","","","","","","",""
"image-keyboard-response","229","200863","0.0-3.0-6.0-1.0-2.30","5a09ebdf087f2e0001eae39f","6662009ae78f21dd82fcd179","666220fd9c87eb233f4182fd","null","","null","","","","","","","","./tasks/HMM-beads/Images/WhiteBeadChoiceCorrect.png","","","","","","","","","",""
"image-keyboard-response","230","201134","0.0-3.0-6.0-1.0-0.31","5a09ebdf087f2e0001eae39f","6662009ae78f21dd82fcd179","666220fd9c87eb233f4182fd","269","","j","","","","","","","","./tasks/HMM-beads/Images/NewTrialWC.png","lowH","1","31","1","1","1","1","true","",""
"image-keyboard-response","231","201446","0.0-3.0-6.0-1.0-1.31","5a09ebdf087f2e0001eae39f","6662009ae78f21dd82fcd179","666220fd9c87eb233f4182fd","null","","null","","","","","","","","./tasks/HMM-beads/Images/WhiteBeadChoice.png","","","","","","","","","",""
"image-keyboard-response","232","201954","0.0-3.0-6.0-1.0-2.31","5a09ebdf087f2e0001eae39f","6662009ae78f21dd82fcd179","666220fd9c87eb233f4182fd","null","","null","","","","","","","","./tasks/HMM-beads/Images/WhiteBeadChoiceCorrect.png","","","","","","","","","",""
"image-keyboard-response","233","202247","0.0-3.0-6.0-1.0-0.32","5a09ebdf087f2e0001eae39f","6662009ae78f21dd82fcd179","666220fd9c87eb233f4182fd","292","","j","","","","","","","","./tasks/HMM-beads/Images/NewTrialWC.png","lowH","1","32","1","1","1","1","true","",""
"image-keyboard-response","234","202563","0.0-3.0-6.0-1.0-1.32","5a09ebdf087f2e0001eae39f","6662009ae78f21dd82fcd179","666220fd9c87eb233f4182fd","null","","null","","","","","","","","./tasks/HMM-beads/Images/WhiteBeadChoice.png","","","","","","","","","",""
"image-keyboard-response","235","203069","0.0-3.0-6.0-1.0-2.32","5a09ebdf087f2e0001eae39f","6662009ae78f21dd82fcd179","666220fd9c87eb233f4182fd","null","","null","","","","","","","","./tasks/HMM-beads/Images/WhiteBeadChoiceCorrect.png","","","","","","","","","",""
"image-keyboard-response","236","203337","0.0-3.0-6.0-1.0-0.33","5a09ebdf087f2e0001eae39f","6662009ae78f21dd82fcd179","666220fd9c87eb233f4182fd","267","","j","","","","","","","","./tasks/HMM-beads/Images/NewTrialWC.png","lowH","1","33","1","1","1","1","true","",""
"image-keyboard-response","237","203652","0.0-3.0-6.0-1.0-1.33","5a09ebdf087f2e0001eae39f","6662009ae78f21dd82fcd179","666220fd9c87eb233f4182fd","null","","null","","","","","","","","./tasks/HMM-beads/Images/WhiteBeadChoice.png","","","","","","","","","",""
"image-keyboard-response","238","204155","0.0-3.0-6.0-1.0-2.33","5a09ebdf087f2e0001eae39f","6662009ae78f21dd82fcd179","666220fd9c87eb233f4182fd","null","","null","","","","","","","","./tasks/HMM-beads/Images/WhiteBeadChoiceCorrect.png","","","","","","","","","",""
"image-keyboard-response","239","204448","0.0-3.0-6.0-1.0-0.34","5a09ebdf087f2e0001eae39f","6662009ae78f21dd82fcd179","666220fd9c87eb233f4182fd","292","","j","","","","","","","","./tasks/HMM-beads/Images/NewTrialWC.png","lowH","1","34","1","1","1","1","true","",""
"image-keyboard-response","240","204757","0.0-3.0-6.0-1.0-1.34","5a09ebdf087f2e0001eae39f","6662009ae78f21dd82fcd179","666220fd9c87eb233f4182fd","null","","null","","","","","","","","./tasks/HMM-beads/Images/WhiteBeadChoice.png","","","","","","","","","",""
"image-keyboard-response","241","205261","0.0-3.0-6.0-1.0-2.34","5a09ebdf087f2e0001eae39f","6662009ae78f21dd82fcd179","666220fd9c87eb233f4182fd","null","","null","","","","","","","","./tasks/HMM-beads/Images/WhiteBeadChoiceCorrect.png","","","","","","","","","",""
"image-keyboard-response","242","205572","0.0-3.0-6.0-1.0-0.35","5a09ebdf087f2e0001eae39f","6662009ae78f21dd82fcd179","666220fd9c87eb233f4182fd","310","","j","","","","","","","","./tasks/HMM-beads/Images/NewTrialWC.png","lowH","1","35","1","1","1","1","true","",""
"image-keyboard-response","243","205884","0.0-3.0-6.0-1.0-1.35","5a09ebdf087f2e0001eae39f","6662009ae78f21dd82fcd179","666220fd9c87eb233f4182fd","null","","null","","","","","","","","./tasks/HMM-beads/Images/WhiteBeadChoice.png","","","","","","","","","",""
"image-keyboard-response","244","206390","0.0-3.0-6.0-1.0-2.35","5a09ebdf087f2e0001eae39f","6662009ae78f21dd82fcd179","666220fd9c87eb233f4182fd","null","","null","","","","","","","","./tasks/HMM-beads/Images/WhiteBeadChoiceCorrect.png","","","","","","","","","",""
"image-keyboard-response","245","206681","0.0-3.0-6.0-1.0-0.36","5a09ebdf087f2e0001eae39f","6662009ae78f21dd82fcd179","666220fd9c87eb233f4182fd","289","","j","","","","","","","","./tasks/HMM-beads/Images/NewTrialWC.png","lowH","1","36","1","1","1","1","true","",""
"image-keyboard-response","246","206998","0.0-3.0-6.0-1.0-1.36","5a09ebdf087f2e0001eae39f","6662009ae78f21dd82fcd179","666220fd9c87eb233f4182fd","null","","null","","","","","","","","./tasks/HMM-beads/Images/WhiteBeadChoice.png","","","","","","","","","",""
"image-keyboard-response","247","207503","0.0-3.0-6.0-1.0-2.36","5a09ebdf087f2e0001eae39f","6662009ae78f21dd82fcd179","666220fd9c87eb233f4182fd","null","","null","","","","","","","","./tasks/HMM-beads/Images/WhiteBeadChoiceCorrect.png","","","","","","","","","",""
"image-keyboard-response","248","207753","0.0-3.0-6.0-1.0-0.37","5a09ebdf087f2e0001eae39f","6662009ae78f21dd82fcd179","666220fd9c87eb233f4182fd","249","","f","","","","","","","","./tasks/HMM-beads/Images/NewTrialWC.png","lowH","1","37","1","1","1","0","false","",""
"image-keyboard-response","249","208064","0.0-3.0-6.0-1.0-1.37","5a09ebdf087f2e0001eae39f","6662009ae78f21dd82fcd179","666220fd9c87eb233f4182fd","null","","null","","","","","","","","./tasks/HMM-beads/Images/BlackBeadChoice.png","","","","","","","","","",""
"image-keyboard-response","250","208584","0.0-3.0-6.0-1.0-2.37","5a09ebdf087f2e0001eae39f","6662009ae78f21dd82fcd179","666220fd9c87eb233f4182fd","null","","null","","","","","","","","./tasks/HMM-beads/Images/BlackBeadChoiceWrong.png","","","","","","","","","",""
"image-keyboard-response","251","208736","0.0-3.0-6.0-1.0-0.38","5a09ebdf087f2e0001eae39f","6662009ae78f21dd82fcd179","666220fd9c87eb233f4182fd","150","","j","","","","","","","","./tasks/HMM-beads/Images/NewTrialWC.png","lowH","1","38","1","1","1","1","true","",""
"image-keyboard-response","252","209045","0.0-3.0-6.0-1.0-1.38","5a09ebdf087f2e0001eae39f","6662009ae78f21dd82fcd179","666220fd9c87eb233f4182fd","null","","null","","","","","","","","./tasks/HMM-beads/Images/WhiteBeadChoice.png","","","","","","","","","",""
"image-keyboard-response","253","209549","0.0-3.0-6.0-1.0-2.38","5a09ebdf087f2e0001eae39f","6662009ae78f21dd82fcd179","666220fd9c87eb233f4182fd","null","","null","","","","","","","","./tasks/HMM-beads/Images/WhiteBeadChoiceCorrect.png","","","","","","","","","",""
"image-keyboard-response","254","209891","0.0-3.0-6.0-1.0-0.39","5a09ebdf087f2e0001eae39f","6662009ae78f21dd82fcd179","666220fd9c87eb233f4182fd","341","","j","","","","","","","","./tasks/HMM-beads/Images/NewTrialWC.png","lowH","1","39","1","1","1","1","true","",""
"image-keyboard-response","255","210194","0.0-3.0-6.0-1.0-1.39","5a09ebdf087f2e0001eae39f","6662009ae78f21dd82fcd179","666220fd9c87eb233f4182fd","null","","null","","","","","","","","./tasks/HMM-beads/Images/WhiteBeadChoice.png","","","","","","","","","",""
"image-keyboard-response","256","210704","0.0-3.0-6.0-1.0-2.39","5a09ebdf087f2e0001eae39f","6662009ae78f21dd82fcd179","666220fd9c87eb233f4182fd","null","","null","","","","","","","","./tasks/HMM-beads/Images/WhiteBeadChoiceCorrect.png","","","","","","","","","",""
"image-keyboard-response","257","211061","0.0-3.0-6.0-1.0-0.40","5a09ebdf087f2e0001eae39f","6662009ae78f21dd82fcd179","666220fd9c87eb233f4182fd","356","","j","","","","","","","","./tasks/HMM-beads/Images/NewTrialWC.png","lowH","1","40","1","1","1","1","true","",""
"image-keyboard-response","258","211375","0.0-3.0-6.0-1.0-1.40","5a09ebdf087f2e0001eae39f","6662009ae78f21dd82fcd179","666220fd9c87eb233f4182fd","null","","null","","","","","","","","./tasks/HMM-beads/Images/WhiteBeadChoice.png","","","","","","","","","",""
"image-keyboard-response","259","211880","0.0-3.0-6.0-1.0-2.40","5a09ebdf087f2e0001eae39f","6662009ae78f21dd82fcd179","666220fd9c87eb233f4182fd","null","","null","","","","","","","","./tasks/HMM-beads/Images/WhiteBeadChoiceCorrect.png","","","","","","","","","",""
"image-keyboard-response","260","212081","0.0-3.0-6.0-1.0-0.41","5a09ebdf087f2e0001eae39f","6662009ae78f21dd82fcd179","666220fd9c87eb233f4182fd","200","","j","","","","","","","","./tasks/HMM-beads/Images/NewTrialWC.png","lowH","1","41","1","1","1","1","true","",""
"image-keyboard-response","261","212391","0.0-3.0-6.0-1.0-1.41","5a09ebdf087f2e0001eae39f","6662009ae78f21dd82fcd179","666220fd9c87eb233f4182fd","null","","null","","","","","","","","./tasks/HMM-beads/Images/WhiteBeadChoice.png","","","","","","","","","",""
"image-keyboard-response","262","212899","0.0-3.0-6.0-1.0-2.41","5a09ebdf087f2e0001eae39f","6662009ae78f21dd82fcd179","666220fd9c87eb233f4182fd","null","","null","","","","","","","","./tasks/HMM-beads/Images/WhiteBeadChoiceCorrect.png","","","","","","","","","",""
"image-keyboard-response","263","213095","0.0-3.0-6.0-1.0-0.42","5a09ebdf087f2e0001eae39f","6662009ae78f21dd82fcd179","666220fd9c87eb233f4182fd","196","","j","","","","","","","","./tasks/HMM-beads/Images/NewTrialWC.png","lowH","1","42","1","1","1","1","true","",""
"image-keyboard-response","264","213406","0.0-3.0-6.0-1.0-1.42","5a09ebdf087f2e0001eae39f","6662009ae78f21dd82fcd179","666220fd9c87eb233f4182fd","null","","null","","","","","","","","./tasks/HMM-beads/Images/WhiteBeadChoice.png","","","","","","","","","",""
"image-keyboard-response","265","213918","0.0-3.0-6.0-1.0-2.42","5a09ebdf087f2e0001eae39f","6662009ae78f21dd82fcd179","666220fd9c87eb233f4182fd","null","","null","","","","","","","","./tasks/HMM-beads/Images/WhiteBeadChoiceCorrect.png","","","","","","","","","",""
"image-keyboard-response","266","214288","0.0-3.0-6.0-1.0-0.43","5a09ebdf087f2e0001eae39f","6662009ae78f21dd82fcd179","666220fd9c87eb233f4182fd","369","","j","","","","","","","","./tasks/HMM-beads/Images/NewTrialWC.png","lowH","1","43","1","1","1","1","true","",""
"image-keyboard-response","267","214602","0.0-3.0-6.0-1.0-1.43","5a09ebdf087f2e0001eae39f","6662009ae78f21dd82fcd179","666220fd9c87eb233f4182fd","null","","null","","","","","","","","./tasks/HMM-beads/Images/WhiteBeadChoice.png","","","","","","","","","",""
"image-keyboard-response","268","215107","0.0-3.0-6.0-1.0-2.43","5a09ebdf087f2e0001eae39f","6662009ae78f21dd82fcd179","666220fd9c87eb233f4182fd","null","","null","","","","","","","","./tasks/HMM-beads/Images/WhiteBeadChoiceCorrect.png","","","","","","","","","",""
"image-keyboard-response","269","215452","0.0-3.0-6.0-1.0-0.44","5a09ebdf087f2e0001eae39f","6662009ae78f21dd82fcd179","666220fd9c87eb233f4182fd","344","","j","","","","","","","","./tasks/HMM-beads/Images/NewTrialWC.png","lowH","1","44","1","1","1","1","true","",""
"image-keyboard-response","270","215766","0.0-3.0-6.0-1.0-1.44","5a09ebdf087f2e0001eae39f","6662009ae78f21dd82fcd179","666220fd9c87eb233f4182fd","null","","null","","","","","","","","./tasks/HMM-beads/Images/WhiteBeadChoice.png","","","","","","","","","",""
"image-keyboard-response","271","216277","0.0-3.0-6.0-1.0-2.44","5a09ebdf087f2e0001eae39f","6662009ae78f21dd82fcd179","666220fd9c87eb233f4182fd","null","","null","","","","","","","","./tasks/HMM-beads/Images/WhiteBeadChoiceCorrect.png","","","","","","","","","",""
"image-keyboard-response","272","216730","0.0-3.0-6.0-1.0-0.45","5a09ebdf087f2e0001eae39f","6662009ae78f21dd82fcd179","666220fd9c87eb233f4182fd","451","","j","","","","","","","","./tasks/HMM-beads/Images/NewTrialWC.png","lowH","1","45","1","1","1","1","true","",""
"image-keyboard-response","273","217043","0.0-3.0-6.0-1.0-1.45","5a09ebdf087f2e0001eae39f","6662009ae78f21dd82fcd179","666220fd9c87eb233f4182fd","null","","null","","","","","","","","./tasks/HMM-beads/Images/WhiteBeadChoice.png","","","","","","","","","",""
"image-keyboard-response","274","217554","0.0-3.0-6.0-1.0-2.45","5a09ebdf087f2e0001eae39f","6662009ae78f21dd82fcd179","666220fd9c87eb233f4182fd","null","","null","","","","","","","","./tasks/HMM-beads/Images/WhiteBeadChoiceCorrect.png","","","","","","","","","",""
"image-keyboard-response","275","217804","0.0-3.0-6.0-1.0-0.46","5a09ebdf087f2e0001eae39f","6662009ae78f21dd82fcd179","666220fd9c87eb233f4182fd","249","","f","","","","","","","","./tasks/HMM-beads/Images/NewTrialWC.png","lowH","1","46","1","1","1","0","false","",""
"image-keyboard-response","276","218115","0.0-3.0-6.0-1.0-1.46","5a09ebdf087f2e0001eae39f","6662009ae78f21dd82fcd179","666220fd9c87eb233f4182fd","null","","null","","","","","","","","./tasks/HMM-beads/Images/BlackBeadChoice.png","","","","","","","","","",""
"image-keyboard-response","277","218627","0.0-3.0-6.0-1.0-2.46","5a09ebdf087f2e0001eae39f","6662009ae78f21dd82fcd179","666220fd9c87eb233f4182fd","null","","null","","","","","","","","./tasks/HMM-beads/Images/BlackBeadChoiceWrong.png","","","","","","","","","",""
"image-keyboard-response","278","218981","0.0-3.0-6.0-1.0-0.47","5a09ebdf087f2e0001eae39f","6662009ae78f21dd82fcd179","666220fd9c87eb233f4182fd","353","","j","","","","","","","","./tasks/HMM-beads/Images/NewTrialWC.png","lowH","1","47","1","0","1","1","false","",""
"image-keyboard-response","279","219283","0.0-3.0-6.0-1.0-1.47","5a09ebdf087f2e0001eae39f","6662009ae78f21dd82fcd179","666220fd9c87eb233f4182fd","null","","null","","","","","","","","./tasks/HMM-beads/Images/WhiteBeadChoice.png","","","","","","","","","",""
"image-keyboard-response","280","219787","0.0-3.0-6.0-1.0-2.47","5a09ebdf087f2e0001eae39f","6662009ae78f21dd82fcd179","666220fd9c87eb233f4182fd","null","","null","","","","","","","","./tasks/HMM-beads/Images/WhiteBeadChoiceWrong.png","","","","","","","","","",""
"image-keyboard-response","281","220171","0.0-3.0-6.0-1.0-0.48","5a09ebdf087f2e0001eae39f","6662009ae78f21dd82fcd179","666220fd9c87eb233f4182fd","382","","f","","","","","","","","./tasks/HMM-beads/Images/NewTrialBC.png","lowH","1","48","1","0","0","0","true","",""
"image-keyboard-response","282","220480","0.0-3.0-6.0-1.0-1.48","5a09ebdf087f2e0001eae39f","6662009ae78f21dd82fcd179","666220fd9c87eb233f4182fd","null","","null","","","","","","","","./tasks/HMM-beads/Images/BlackBeadChoice.png","","","","","","","","","",""
"image-keyboard-response","283","220989","0.0-3.0-6.0-1.0-2.48","5a09ebdf087f2e0001eae39f","6662009ae78f21dd82fcd179","666220fd9c87eb233f4182fd","null","","null","","","","","","","","./tasks/HMM-beads/Images/BlackBeadChoiceCorrect.png","","","","","","","","","",""
"image-keyboard-response","284","221316","0.0-3.0-6.0-1.0-0.49","5a09ebdf087f2e0001eae39f","6662009ae78f21dd82fcd179","666220fd9c87eb233f4182fd","325","","f","","","","","","","","./tasks/HMM-beads/Images/NewTrialBC.png","lowH","1","49","1","0","0","0","true","",""
"image-keyboard-response","285","221626","0.0-3.0-6.0-1.0-1.49","5a09ebdf087f2e0001eae39f","6662009ae78f21dd82fcd179","666220fd9c87eb233f4182fd","null","","null","","","","","","","","./tasks/HMM-beads/Images/BlackBeadChoice.png","","","","","","","","","",""
"image-keyboard-response","286","222133","0.0-3.0-6.0-1.0-2.49","5a09ebdf087f2e0001eae39f","6662009ae78f21dd82fcd179","666220fd9c87eb233f4182fd","null","","null","","","","","","","","./tasks/HMM-beads/Images/BlackBeadChoiceCorrect.png","","","","","","","","","",""
"image-keyboard-response","287","222437","0.0-3.0-6.0-1.0-0.50","5a09ebdf087f2e0001eae39f","6662009ae78f21dd82fcd179","666220fd9c87eb233f4182fd","303","","f","","","","","","","","./tasks/HMM-beads/Images/NewTrialBC.png","lowH","1","50","1","1","0","0","false","",""
"image-keyboard-response","288","222751","0.0-3.0-6.0-1.0-1.50","5a09ebdf087f2e0001eae39f","6662009ae78f21dd82fcd179","666220fd9c87eb233f4182fd","null","","null","","","","","","","","./tasks/HMM-beads/Images/BlackBeadChoice.png","","","","","","","","","",""
"image-keyboard-response","289","223277","0.0-3.0-6.0-1.0-2.50","5a09ebdf087f2e0001eae39f","6662009ae78f21dd82fcd179","666220fd9c87eb233f4182fd","null","","null","","","","","","","","./tasks/HMM-beads/Images/BlackBeadChoiceWrong.png","","","","","","","","","",""
"image-keyboard-response","290","223549","0.0-3.0-6.0-1.0-0.51","5a09ebdf087f2e0001eae39f","6662009ae78f21dd82fcd179","666220fd9c87eb233f4182fd","270","","j","","","","","","","","./tasks/HMM-beads/Images/NewTrialWC.png","lowH","1","51","1","1","1","1","true","",""
"image-keyboard-response","291","223857","0.0-3.0-6.0-1.0-1.51","5a09ebdf087f2e0001eae39f","6662009ae78f21dd82fcd179","666220fd9c87eb233f4182fd","null","","null","","","","","","","","./tasks/HMM-beads/Images/WhiteBeadChoice.png","","","","","","","","","",""
"image-keyboard-response","292","224361","0.0-3.0-6.0-1.0-2.51","5a09ebdf087f2e0001eae39f","6662009ae78f21dd82fcd179","666220fd9c87eb233f4182fd","null","","null","","","","","","","","./tasks/HMM-beads/Images/WhiteBeadChoiceCorrect.png","","","","","","","","","",""
"image-keyboard-response","293","224572","0.0-3.0-6.0-1.0-0.52","5a09ebdf087f2e0001eae39f","6662009ae78f21dd82fcd179","666220fd9c87eb233f4182fd","210","","j","","","","","","","","./tasks/HMM-beads/Images/NewTrialWC.png","lowH","1","52","1","1","1","1","true","",""
"image-keyboard-response","294","224882","0.0-3.0-6.0-1.0-1.52","5a09ebdf087f2e0001eae39f","6662009ae78f21dd82fcd179","666220fd9c87eb233f4182fd","null","","null","","","","","","","","./tasks/HMM-beads/Images/WhiteBeadChoice.png","","","","","","","","","",""
"image-keyboard-response","295","225395","0.0-3.0-6.0-1.0-2.52","5a09ebdf087f2e0001eae39f","6662009ae78f21dd82fcd179","666220fd9c87eb233f4182fd","null","","null","","","","","","","","./tasks/HMM-beads/Images/WhiteBeadChoiceCorrect.png","","","","","","","","","",""
"image-keyboard-response","296","225624","0.0-3.0-6.0-1.0-0.53","5a09ebdf087f2e0001eae39f","6662009ae78f21dd82fcd179","666220fd9c87eb233f4182fd","228","","j","","","","","","","","./tasks/HMM-beads/Images/NewTrialWC.png","lowH","1","53","1","1","1","1","true","",""
"image-keyboard-response","297","225933","0.0-3.0-6.0-1.0-1.53","5a09ebdf087f2e0001eae39f","6662009ae78f21dd82fcd179","666220fd9c87eb233f4182fd","null","","null","","","","","","","","./tasks/HMM-beads/Images/WhiteBeadChoice.png","","","","","","","","","",""
"image-keyboard-response","298","226451","0.0-3.0-6.0-1.0-2.53","5a09ebdf087f2e0001eae39f","6662009ae78f21dd82fcd179","666220fd9c87eb233f4182fd","null","","null","","","","","","","","./tasks/HMM-beads/Images/WhiteBeadChoiceCorrect.png","","","","","","","","","",""
"image-keyboard-response","299","226741","0.0-3.0-6.0-1.0-0.54","5a09ebdf087f2e0001eae39f","6662009ae78f21dd82fcd179","666220fd9c87eb233f4182fd","289","","j","","","","","","","","./tasks/HMM-beads/Images/NewTrialWC.png","lowH","1","54","1","1","1","1","true","",""
"image-keyboard-response","300","227051","0.0-3.0-6.0-1.0-1.54","5a09ebdf087f2e0001eae39f","6662009ae78f21dd82fcd179","666220fd9c87eb233f4182fd","null","","null","","","","","","","","./tasks/HMM-beads/Images/WhiteBeadChoice.png","","","","","","","","","",""
"image-keyboard-response","301","227565","0.0-3.0-6.0-1.0-2.54","5a09ebdf087f2e0001eae39f","6662009ae78f21dd82fcd179","666220fd9c87eb233f4182fd","null","","null","","","","","","","","./tasks/HMM-beads/Images/WhiteBeadChoiceCorrect.png","","","","","","","","","",""
"image-keyboard-response","302","227688","0.0-3.0-6.0-1.0-0.55","5a09ebdf087f2e0001eae39f","6662009ae78f21dd82fcd179","666220fd9c87eb233f4182fd","121","","j","","","","","","","","./tasks/HMM-beads/Images/NewTrialWC.png","lowH","1","55","1","1","1","1","true","",""
"image-keyboard-response","303","228007","0.0-3.0-6.0-1.0-1.55","5a09ebdf087f2e0001eae39f","6662009ae78f21dd82fcd179","666220fd9c87eb233f4182fd","null","","null","","","","","","","","./tasks/HMM-beads/Images/WhiteBeadChoice.png","","","","","","","","","",""
"image-keyboard-response","304","228512","0.0-3.0-6.0-1.0-2.55","5a09ebdf087f2e0001eae39f","6662009ae78f21dd82fcd179","666220fd9c87eb233f4182fd","null","","null","","","","","","","","./tasks/HMM-beads/Images/WhiteBeadChoiceCorrect.png","","","","","","","","","",""
"image-keyboard-response","305","228701","0.0-3.0-6.0-1.0-0.56","5a09ebdf087f2e0001eae39f","6662009ae78f21dd82fcd179","666220fd9c87eb233f4182fd","188","","f","","","","","","","","./tasks/HMM-beads/Images/NewTrialWC.png","lowH","1","56","1","1","1","0","false","",""
"image-keyboard-response","306","229011","0.0-3.0-6.0-1.0-1.56","5a09ebdf087f2e0001eae39f","6662009ae78f21dd82fcd179","666220fd9c87eb233f4182fd","null","","null","","","","","","","","./tasks/HMM-beads/Images/BlackBeadChoice.png","","","","","","","","","",""
"image-keyboard-response","307","229524","0.0-3.0-6.0-1.0-2.56","5a09ebdf087f2e0001eae39f","6662009ae78f21dd82fcd179","666220fd9c87eb233f4182fd","null","","null","","","","","","","","./tasks/HMM-beads/Images/BlackBeadChoiceWrong.png","","","","","","","","","",""
"image-keyboard-response","308","229721","0.0-3.0-6.0-1.0-0.57","5a09ebdf087f2e0001eae39f","6662009ae78f21dd82fcd179","666220fd9c87eb233f4182fd","197","","f","","","","","","","","./tasks/HMM-beads/Images/NewTrialWC.png","lowH","1","57","1","1","1","0","false","",""
"image-keyboard-response","309","230030","0.0-3.0-6.0-1.0-1.57","5a09ebdf087f2e0001eae39f","6662009ae78f21dd82fcd179","666220fd9c87eb233f4182fd","null","","null","","","","","","","","./tasks/HMM-beads/Images/BlackBeadChoice.png","","","","","","","","","",""
"image-keyboard-response","310","230538","0.0-3.0-6.0-1.0-2.57","5a09ebdf087f2e0001eae39f","6662009ae78f21dd82fcd179","666220fd9c87eb233f4182fd","null","","null","","","","","","","","./tasks/HMM-beads/Images/BlackBeadChoiceWrong.png","","","","","","","","","",""
"image-keyboard-response","311","230799","0.0-3.0-6.0-1.0-0.58","5a09ebdf087f2e0001eae39f","6662009ae78f21dd82fcd179","666220fd9c87eb233f4182fd","260","","j","","","","","","","","./tasks/HMM-beads/Images/NewTrialWC.png","lowH","1","58","1","1","1","1","true","",""
"image-keyboard-response","312","231112","0.0-3.0-6.0-1.0-1.58","5a09ebdf087f2e0001eae39f","6662009ae78f21dd82fcd179","666220fd9c87eb233f4182fd","null","","null","","","","","","","","./tasks/HMM-beads/Images/WhiteBeadChoice.png","","","","","","","","","",""
"image-keyboard-response","313","231628","0.0-3.0-6.0-1.0-2.58","5a09ebdf087f2e0001eae39f","6662009ae78f21dd82fcd179","666220fd9c87eb233f4182fd","null","","null","","","","","","","","./tasks/HMM-beads/Images/WhiteBeadChoiceCorrect.png","","","","","","","","","",""
"image-keyboard-response","314","231989","0.0-3.0-6.0-1.0-0.59","5a09ebdf087f2e0001eae39f","6662009ae78f21dd82fcd179","666220fd9c87eb233f4182fd","361","","j","","","","","","","","./tasks/HMM-beads/Images/NewTrialWC.png","lowH","1","59","1","0","1","1","false","",""
"image-keyboard-response","315","232311","0.0-3.0-6.0-1.0-1.59","5a09ebdf087f2e0001eae39f","6662009ae78f21dd82fcd179","666220fd9c87eb233f4182fd","null","","null","","","","","","","","./tasks/HMM-beads/Images/WhiteBeadChoice.png","","","","","","","","","",""
"image-keyboard-response","316","232821","0.0-3.0-6.0-1.0-2.59","5a09ebdf087f2e0001eae39f","6662009ae78f21dd82fcd179","666220fd9c87eb233f4182fd","null","","null","","","","","","","","./tasks/HMM-beads/Images/WhiteBeadChoiceWrong.png","","","","","","","","","",""
"image-keyboard-response","317","233269","0.0-3.0-6.0-1.0-0.60","5a09ebdf087f2e0001eae39f","6662009ae78f21dd82fcd179","666220fd9c87eb233f4182fd","447","","j","","","","","","","","./tasks/HMM-beads/Images/NewTrialBC.png","lowH","1","60","1","1","0","1","true","",""
"image-keyboard-response","318","233584","0.0-3.0-6.0-1.0-1.60","5a09ebdf087f2e0001eae39f","6662009ae78f21dd82fcd179","666220fd9c87eb233f4182fd","null","","null","","","","","","","","./tasks/HMM-beads/Images/WhiteBeadChoice.png","","","","","","","","","",""
"image-keyboard-response","319","234099","0.0-3.0-6.0-1.0-2.60","5a09ebdf087f2e0001eae39f","6662009ae78f21dd82fcd179","666220fd9c87eb233f4182fd","null","","null","","","","","","","","./tasks/HMM-beads/Images/WhiteBeadChoiceCorrect.png","","","","","","","","","",""
"image-keyboard-response","320","234457","0.0-3.0-6.0-1.0-0.61","5a09ebdf087f2e0001eae39f","6662009ae78f21dd82fcd179","666220fd9c87eb233f4182fd","356","","j","","","","","","","","./tasks/HMM-beads/Images/NewTrialWC.png","lowH","1","61","1","1","1","1","true","",""
"image-keyboard-response","321","234775","0.0-3.0-6.0-1.0-1.61","5a09ebdf087f2e0001eae39f","6662009ae78f21dd82fcd179","666220fd9c87eb233f4182fd","null","","null","","","","","","","","./tasks/HMM-beads/Images/WhiteBeadChoice.png","","","","","","","","","",""
"image-keyboard-response","322","235278","0.0-3.0-6.0-1.0-2.61","5a09ebdf087f2e0001eae39f","6662009ae78f21dd82fcd179","666220fd9c87eb233f4182fd","null","","null","","","","","","","","./tasks/HMM-beads/Images/WhiteBeadChoiceCorrect.png","","","","","","","","","",""
"image-keyboard-response","323","235880","0.0-3.0-6.0-1.0-0.62","5a09ebdf087f2e0001eae39f","6662009ae78f21dd82fcd179","666220fd9c87eb233f4182fd","602","","j","","","","","","","","./tasks/HMM-beads/Images/NewTrialWC.png","lowH","1","62","1","0","1","1","false","",""
"image-keyboard-response","324","236183","0.0-3.0-6.0-1.0-1.62","5a09ebdf087f2e0001eae39f","6662009ae78f21dd82fcd179","666220fd9c87eb233f4182fd","null","","null","","","","","","","","./tasks/HMM-beads/Images/WhiteBeadChoice.png","","","","","","","","","",""
"image-keyboard-response","325","236698","0.0-3.0-6.0-1.0-2.62","5a09ebdf087f2e0001eae39f","6662009ae78f21dd82fcd179","666220fd9c87eb233f4182fd","null","","null","","","","","","","","./tasks/HMM-beads/Images/WhiteBeadChoiceWrong.png","","","","","","","","","",""
"image-keyboard-response","326","236985","0.0-3.0-6.0-1.0-0.63","5a09ebdf087f2e0001eae39f","6662009ae78f21dd82fcd179","666220fd9c87eb233f4182fd","285","","f","","","","","","","","./tasks/HMM-beads/Images/NewTrialBC.png","lowH","1","63","1","1","0","0","false","",""
"image-keyboard-response","327","237290","0.0-3.0-6.0-1.0-1.63","5a09ebdf087f2e0001eae39f","6662009ae78f21dd82fcd179","666220fd9c87eb233f4182fd","null","","null","","","","","","","","./tasks/HMM-beads/Images/BlackBeadChoice.png","","","","","","","","","",""
"image-keyboard-response","328","237802","0.0-3.0-6.0-1.0-2.63","5a09ebdf087f2e0001eae39f","6662009ae78f21dd82fcd179","666220fd9c87eb233f4182fd","null","","null","","","","","","","","./tasks/HMM-beads/Images/BlackBeadChoiceWrong.png","","","","","","","","","",""
"image-keyboard-response","329","238026","0.0-3.0-6.0-1.0-0.64","5a09ebdf087f2e0001eae39f","6662009ae78f21dd82fcd179","666220fd9c87eb233f4182fd","223","","f","","","","","","","","./tasks/HMM-beads/Images/NewTrialWC.png","lowH","1","64","1","1","1","0","false","",""
"image-keyboard-response","330","238338","0.0-3.0-6.0-1.0-1.64","5a09ebdf087f2e0001eae39f","6662009ae78f21dd82fcd179","666220fd9c87eb233f4182fd","null","","null","","","","","","","","./tasks/HMM-beads/Images/BlackBeadChoice.png","","","","","","","","","",""
"image-keyboard-response","331","238846","0.0-3.0-6.0-1.0-2.64","5a09ebdf087f2e0001eae39f","6662009ae78f21dd82fcd179","666220fd9c87eb233f4182fd","null","","null","","","","","","","","./tasks/HMM-beads/Images/BlackBeadChoiceWrong.png","","","","","","","","","",""
"image-keyboard-response","332","239142","0.0-3.0-6.0-1.0-0.65","5a09ebdf087f2e0001eae39f","6662009ae78f21dd82fcd179","666220fd9c87eb233f4182fd","295","","j","","","","","","","","./tasks/HMM-beads/Images/NewTrialWC.png","lowH","1","65","1","1","1","1","true","",""
"image-keyboard-response","333","239454","0.0-3.0-6.0-1.0-1.65","5a09ebdf087f2e0001eae39f","6662009ae78f21dd82fcd179","666220fd9c87eb233f4182fd","null","","null","","","","","","","","./tasks/HMM-beads/Images/WhiteBeadChoice.png","","","","","","","","","",""
"image-keyboard-response","334","239969","0.0-3.0-6.0-1.0-2.65","5a09ebdf087f2e0001eae39f","6662009ae78f21dd82fcd179","666220fd9c87eb233f4182fd","null","","null","","","","","","","","./tasks/HMM-beads/Images/WhiteBeadChoiceCorrect.png","","","","","","","","","",""
"image-keyboard-response","335","240021","0.0-3.0-6.0-1.0-0.66","5a09ebdf087f2e0001eae39f","6662009ae78f21dd82fcd179","666220fd9c87eb233f4182fd","51","","j","","","","","","","","./tasks/HMM-beads/Images/NewTrialWC.png","lowH","1","66","1","1","1","1","true","",""
"image-keyboard-response","336","240326","0.0-3.0-6.0-1.0-1.66","5a09ebdf087f2e0001eae39f","6662009ae78f21dd82fcd179","666220fd9c87eb233f4182fd","null","","null","","","","","","","","./tasks/HMM-beads/Images/WhiteBeadChoice.png","","","","","","","","","",""
"image-keyboard-response","337","240832","0.0-3.0-6.0-1.0-2.66","5a09ebdf087f2e0001eae39f","6662009ae78f21dd82fcd179","666220fd9c87eb233f4182fd","null","","null","","","","","","","","./tasks/HMM-beads/Images/WhiteBeadChoiceCorrect.png","","","","","","","","","",""
"image-keyboard-response","338","241371","0.0-3.0-6.0-1.0-0.67","5a09ebdf087f2e0001eae39f","6662009ae78f21dd82fcd179","666220fd9c87eb233f4182fd","537","","j","","","","","","","","./tasks/HMM-beads/Images/NewTrialWC.png","lowH","1","67","1","0","1","1","false","",""
"image-keyboard-response","339","241674","0.0-3.0-6.0-1.0-1.67","5a09ebdf087f2e0001eae39f","6662009ae78f21dd82fcd179","666220fd9c87eb233f4182fd","null","","null","","","","","","","","./tasks/HMM-beads/Images/WhiteBeadChoice.png","","","","","","","","","",""
"image-keyboard-response","340","242185","0.0-3.0-6.0-1.0-2.67","5a09ebdf087f2e0001eae39f","6662009ae78f21dd82fcd179","666220fd9c87eb233f4182fd","null","","null","","","","","","","","./tasks/HMM-beads/Images/WhiteBeadChoiceWrong.png","","","","","","","","","",""
"image-keyboard-response","341","242485","0.0-3.0-6.0-1.0-0.68","5a09ebdf087f2e0001eae39f","6662009ae78f21dd82fcd179","666220fd9c87eb233f4182fd","298","","f","","","","","","","","./tasks/HMM-beads/Images/NewTrialBC.png","lowH","1","68","1","1","0","0","false","",""
"image-keyboard-response","342","242788","0.0-3.0-6.0-1.0-1.68","5a09ebdf087f2e0001eae39f","6662009ae78f21dd82fcd179","666220fd9c87eb233f4182fd","null","","null","","","","","","","","./tasks/HMM-beads/Images/BlackBeadChoice.png","","","","","","","","","",""
"image-keyboard-response","343","243297","0.0-3.0-6.0-1.0-2.68","5a09ebdf087f2e0001eae39f","6662009ae78f21dd82fcd179","666220fd9c87eb233f4182fd","null","","null","","","","","","","","./tasks/HMM-beads/Images/BlackBeadChoiceWrong.png","","","","","","","","","",""
"image-keyboard-response","344","243755","0.0-3.0-6.0-1.0-0.69","5a09ebdf087f2e0001eae39f","6662009ae78f21dd82fcd179","666220fd9c87eb233f4182fd","457","","f","","","","","","","","./tasks/HMM-beads/Images/NewTrialWC.png","lowH","1","69","0","1","1","0","false","",""
"image-keyboard-response","345","244058","0.0-3.0-6.0-1.0-1.69","5a09ebdf087f2e0001eae39f","6662009ae78f21dd82fcd179","666220fd9c87eb233f4182fd","null","","null","","","","","","","","./tasks/HMM-beads/Images/BlackBeadChoice.png","","","","","","","","","",""
"image-keyboard-response","346","244562","0.0-3.0-6.0-1.0-2.69","5a09ebdf087f2e0001eae39f","6662009ae78f21dd82fcd179","666220fd9c87eb233f4182fd","null","","null","","","","","","","","./tasks/HMM-beads/Images/BlackBeadChoiceWrong.png","","","","","","","","","",""
"image-keyboard-response","347","244886","0.0-3.0-6.0-1.0-0.70","5a09ebdf087f2e0001eae39f","6662009ae78f21dd82fcd179","666220fd9c87eb233f4182fd","322","","f","","","","","","","","./tasks/HMM-beads/Images/NewTrialWC.png","lowH","1","70","0","1","1","0","false","",""
"image-keyboard-response","348","245200","0.0-3.0-6.0-1.0-1.70","5a09ebdf087f2e0001eae39f","6662009ae78f21dd82fcd179","666220fd9c87eb233f4182fd","null","","null","","","","","","","","./tasks/HMM-beads/Images/BlackBeadChoice.png","","","","","","","","","",""
"image-keyboard-response","349","245716","0.0-3.0-6.0-1.0-2.70","5a09ebdf087f2e0001eae39f","6662009ae78f21dd82fcd179","666220fd9c87eb233f4182fd","null","","null","","","","","","","","./tasks/HMM-beads/Images/BlackBeadChoiceWrong.png","","","","","","","","","",""
"image-keyboard-response","350","245844","0.0-3.0-6.0-1.0-0.71","5a09ebdf087f2e0001eae39f","6662009ae78f21dd82fcd179","666220fd9c87eb233f4182fd","126","","j","","","","","","","","./tasks/HMM-beads/Images/NewTrialWC.png","lowH","1","71","0","0","1","1","false","",""
"image-keyboard-response","351","246151","0.0-3.0-6.0-1.0-1.71","5a09ebdf087f2e0001eae39f","6662009ae78f21dd82fcd179","666220fd9c87eb233f4182fd","null","","null","","","","","","","","./tasks/HMM-beads/Images/WhiteBeadChoice.png","","","","","","","","","",""
"image-keyboard-response","352","246657","0.0-3.0-6.0-1.0-2.71","5a09ebdf087f2e0001eae39f","6662009ae78f21dd82fcd179","666220fd9c87eb233f4182fd","null","","null","","","","","","","","./tasks/HMM-beads/Images/WhiteBeadChoiceWrong.png","","","","","","","","","",""
"image-keyboard-response","353","246907","0.0-3.0-6.0-1.0-0.72","5a09ebdf087f2e0001eae39f","6662009ae78f21dd82fcd179","666220fd9c87eb233f4182fd","249","","j","","","","","","","","./tasks/HMM-beads/Images/NewTrialBC.png","lowH","1","72","0","0","0","1","false","",""
"image-keyboard-response","354","247217","0.0-3.0-6.0-1.0-1.72","5a09ebdf087f2e0001eae39f","6662009ae78f21dd82fcd179","666220fd9c87eb233f4182fd","null","","null","","","","","","","","./tasks/HMM-beads/Images/WhiteBeadChoice.png","","","","","","","","","",""
"image-keyboard-response","355","247724","0.0-3.0-6.0-1.0-2.72","5a09ebdf087f2e0001eae39f","6662009ae78f21dd82fcd179","666220fd9c87eb233f4182fd","null","","null","","","","","","","","./tasks/HMM-beads/Images/WhiteBeadChoiceWrong.png","","","","","","","","","",""
"image-keyboard-response","356","247989","0.0-3.0-6.0-1.0-0.73","5a09ebdf087f2e0001eae39f","6662009ae78f21dd82fcd179","666220fd9c87eb233f4182fd","264","","j","","","","","","","","./tasks/HMM-beads/Images/NewTrialBC.png","lowH","1","73","0","1","0","1","true","",""
"image-keyboard-response","357","248305","0.0-3.0-6.0-1.0-1.73","5a09ebdf087f2e0001eae39f","6662009ae78f21dd82fcd179","666220fd9c87eb233f4182fd","null","","null","","","","","","","","./tasks/HMM-beads/Images/WhiteBeadChoice.png","","","","","","","","","",""
"image-keyboard-response","358","248817","0.0-3.0-6.0-1.0-2.73","5a09ebdf087f2e0001eae39f","6662009ae78f21dd82fcd179","666220fd9c87eb233f4182fd","null","","null","","","","","","","","./tasks/HMM-beads/Images/WhiteBeadChoiceCorrect.png","","","","","","","","","",""
"image-keyboard-response","359","249286","0.0-3.0-6.0-1.0-0.74","5a09ebdf087f2e0001eae39f","6662009ae78f21dd82fcd179","666220fd9c87eb233f4182fd","467","","j","","","","","","","","./tasks/HMM-beads/Images/NewTrialWC.png","lowH","1","74","0","0","1","1","false","",""
"image-keyboard-response","360","249601","0.0-3.0-6.0-1.0-1.74","5a09ebdf087f2e0001eae39f","6662009ae78f21dd82fcd179","666220fd9c87eb233f4182fd","null","","null","","","","","","","","./tasks/HMM-beads/Images/WhiteBeadChoice.png","","","","","","","","","",""
"image-keyboard-response","361","250113","0.0-3.0-6.0-1.0-2.74","5a09ebdf087f2e0001eae39f","6662009ae78f21dd82fcd179","666220fd9c87eb233f4182fd","null","","null","","","","","","","","./tasks/HMM-beads/Images/WhiteBeadChoiceWrong.png","","","","","","","","","",""
"image-keyboard-response","362","250299","0.0-3.0-6.0-1.0-0.75","5a09ebdf087f2e0001eae39f","6662009ae78f21dd82fcd179","666220fd9c87eb233f4182fd","185","","j","","","","","","","","./tasks/HMM-beads/Images/NewTrialBC.png","lowH","1","75","0","1","0","1","true","",""
"image-keyboard-response","363","250606","0.0-3.0-6.0-1.0-1.75","5a09ebdf087f2e0001eae39f","6662009ae78f21dd82fcd179","666220fd9c87eb233f4182fd","null","","null","","","","","","","","./tasks/HMM-beads/Images/WhiteBeadChoice.png","","","","","","","","","",""
"image-keyboard-response","364","251121","0.0-3.0-6.0-1.0-2.75","5a09ebdf087f2e0001eae39f","6662009ae78f21dd82fcd179","666220fd9c87eb233f4182fd","null","","null","","","","","","","","./tasks/HMM-beads/Images/WhiteBeadChoiceCorrect.png","","","","","","","","","",""
"image-keyboard-response","365","251942","0.0-3.0-6.0-1.0-0.76","5a09ebdf087f2e0001eae39f","6662009ae78f21dd82fcd179","666220fd9c87eb233f4182fd","820","","f","","","","","","","","./tasks/HMM-beads/Images/NewTrialWC.png","lowH","1","76","0","1","1","0","false","",""
"image-keyboard-response","366","252246","0.0-3.0-6.0-1.0-1.76","5a09ebdf087f2e0001eae39f","6662009ae78f21dd82fcd179","666220fd9c87eb233f4182fd","null","","null","","","","","","","","./tasks/HMM-beads/Images/BlackBeadChoice.png","","","","","","","","","",""
"image-keyboard-response","367","252765","0.0-3.0-6.0-1.0-2.76","5a09ebdf087f2e0001eae39f","6662009ae78f21dd82fcd179","666220fd9c87eb233f4182fd","null","","null","","","","","","","","./tasks/HMM-beads/Images/BlackBeadChoiceWrong.png","","","","","","","","","",""
"image-keyboard-response","368","252930","0.0-3.0-6.0-1.0-0.77","5a09ebdf087f2e0001eae39f","6662009ae78f21dd82fcd179","666220fd9c87eb233f4182fd","164","","f","","","","","","","","./tasks/HMM-beads/Images/NewTrialWC.png","lowH","1","77","0","0","1","0","true","",""
"image-keyboard-response","369","253239","0.0-3.0-6.0-1.0-1.77","5a09ebdf087f2e0001eae39f","6662009ae78f21dd82fcd179","666220fd9c87eb233f4182fd","null","","null","","","","","","","","./tasks/HMM-beads/Images/BlackBeadChoice.png","","","","","","","","","",""
"image-keyboard-response","370","253755","0.0-3.0-6.0-1.0-2.77","5a09ebdf087f2e0001eae39f","6662009ae78f21dd82fcd179","666220fd9c87eb233f4182fd","null","","null","","","","","","","","./tasks/HMM-beads/Images/BlackBeadChoiceCorrect.png","","","","","","","","","",""
"image-keyboard-response","371","254147","0.0-3.0-6.0-1.0-0.78","5a09ebdf087f2e0001eae39f","6662009ae78f21dd82fcd179","666220fd9c87eb233f4182fd","391","","j","","","","","","","","./tasks/HMM-beads/Images/NewTrialBC.png","lowH","1","78","0","0","0","1","false","",""
"image-keyboard-response","372","254460","0.0-3.0-6.0-1.0-1.78","5a09ebdf087f2e0001eae39f","6662009ae78f21dd82fcd179","666220fd9c87eb233f4182fd","null","","null","","","","","","","","./tasks/HMM-beads/Images/WhiteBeadChoice.png","","","","","","","","","",""
"image-keyboard-response","373","254969","0.0-3.0-6.0-1.0-2.78","5a09ebdf087f2e0001eae39f","6662009ae78f21dd82fcd179","666220fd9c87eb233f4182fd","null","","null","","","","","","","","./tasks/HMM-beads/Images/WhiteBeadChoiceWrong.png","","","","","","","","","",""
"image-keyboard-response","374","255767","0.0-3.0-6.0-1.0-0.79","5a09ebdf087f2e0001eae39f","6662009ae78f21dd82fcd179","666220fd9c87eb233f4182fd","796","","f","","","","","","","","./tasks/HMM-beads/Images/NewTrialBC.png","lowH","1","79","0","0","0","0","true","",""
