"trial_type","trial_index","time_elapsed","internal_node_id","subject_id","study_id","session_id","rt","url","response","question_order","view_history","success","timeout","failed_images","failed_audio","failed_video","stimulus","block","block_rep","trial_number","jar","bead","previous_bead","choice","correct","lowH_score","total_bonus"
"pavlovia","0","1114","0.0-0.0","5d1ccc7c7e747d0016183e65","6662009ae78f21dd82fcd179","66620ba53593c91f507d652e","","","","","","","","","","","","","","","","","","","","",""
"external-html","1","9212","0.0-1.0-0.0","5d1ccc7c7e747d0016183e65","6662009ae78f21dd82fcd179","66620ba53593c91f507d652e","7978","new_consent.html","","","","","","","","","","","","","","","","","","",""
"survey-multi-choice","2","20257","0.0-1.0-1.0","5d1ccc7c7e747d0016183e65","6662009ae78f21dd82fcd179","66620ba53593c91f507d652e","11042","","{""Q0"":""Male"",""Q1"":""Black or African American""}","[0,1]","","","","","","","","","","","","","","","","",""
"survey-text","3","24551","0.0-1.0-2.0","5d1ccc7c7e747d0016183e65","6662009ae78f21dd82fcd179","66620ba53593c91f507d652e","4289","","{""Q0"":""48""}","","","","","","","","","","","","","","","","","",""
"instructions","4","27946","0.0-2.0","5d1ccc7c7e747d0016183e65","6662009ae78f21dd82fcd179","66620ba53593c91f507d652e","3289","","","","[{""page_index"":0,""viewing_time"":3289}]","","","","","","","","","","","","","","","",""
"preload","5","28953","0.0-3.0-0.0","5d1ccc7c7e747d0016183e65","6662009ae78f21dd82fcd179","66620ba53593c91f507d652e","","","","","","true","false","[]","[]","[]","","","","","","","","","","",""
"instructions","6","172316","0.0-3.0-1.0","5d1ccc7c7e747d0016183e65","6662009ae78f21dd82fcd179","66620ba53593c91f507d652e","143364","","","","[{""page_index"":0,""viewing_time"":8328},{""page_index"":1,""viewing_time"":3818},{""page_index"":2,""viewing_time"":3283},{""page_index"":3,""viewing_time"":2121},{""page_index"":4,""viewing_time"":4952},{""page_index"":5,""viewing_time"":54659},{""page_index"":6,""viewing_time"":5060},{""page_index"":7,""viewing_time"":3447},{""page_index"":8,""viewing_time"":21520},{""page_index"":9,""viewing_time"":4080},{""page_index"":10,""viewing_time"":29763},{""page_index"":11,""viewing_time"":2333}]","","","","","","","","","","","","","","","",""
"html-button-response","7","178414","0.0-3.0-2.0-0.0-0.0","5d1ccc7c7e747d0016183e65","6662009ae78f21dd82fcd179","66620ba53593c91f507d652e","6097","","1","","","","","","","","<div align=center>Your goal is to predict…?<br><br></div>","","","","","","","","","",""
"html-button-response","8","184303","0.0-3.0-2.0-1.0-0.0","5d1ccc7c7e747d0016183e65","6662009ae78f21dd82fcd179","66620ba53593c91f507d652e","3790","","2","","","","","","","","<div align=center>In the jar with mostly white beads, there are ___% white beads and ___% black beads?<br><br></div>","","","","","","","","","",""
"html-button-response","9","194099","0.0-3.0-2.0-2.0-0.0","5d1ccc7c7e747d0016183e65","6662009ae78f21dd82fcd179","66620ba53593c91f507d652e","8112","","0","","","","","","","","<div align=center>When there is a 1% probability that the jars will switch, the next bead will most likely be drawn from the…<br><br></div>","","","","","","","","","",""
"html-button-response","10","200726","0.0-3.0-2.0-3.0-0.0","5d1ccc7c7e747d0016183e65","6662009ae78f21dd82fcd179","66620ba53593c91f507d652e","4772","","1","","","","","","","","<div align=center>When there is a 99% probability that the jars will switch, the next bead will most likely be drawn from the…<br><br></div>","","","","","","","","","",""
"instructions","11","219735","0.0-3.0-3.0","5d1ccc7c7e747d0016183e65","6662009ae78f21dd82fcd179","66620ba53593c91f507d652e","17450","","","","[{""page_index"":0,""viewing_time"":17450}]","","","","","","","","","","","","","","","",""
"html-keyboard-response","12","223984","0.0-3.0-4.0-0.0","5d1ccc7c7e747d0016183e65","6662009ae78f21dd82fcd179","66620ba53593c91f507d652e","4248",""," ","","","","","","","","<div align=center>In this practice block, there will be a <b>1% chance</b> that the jar on the next trial will be different from the jar on the current trial.<br><br></div>","","","","","","","","","",""
"image-keyboard-response","13","231466","0.0-3.0-4.0-1.0-0.0","5d1ccc7c7e747d0016183e65","6662009ae78f21dd82fcd179","66620ba53593c91f507d652e","7480","","f","","","","","","","","./tasks/HMM-beads/Images/NoChoice.png","practice","0","0","0","0","9","0","true","",""
"image-keyboard-response","14","231776","0.0-3.0-4.0-1.0-1.0","5d1ccc7c7e747d0016183e65","6662009ae78f21dd82fcd179","66620ba53593c91f507d652e","null","","null","","","","","","","","./tasks/HMM-beads/Images/BlackBeadChoice.png","","","","","","","","","",""
"image-keyboard-response","15","232290","0.0-3.0-4.0-1.0-2.0","5d1ccc7c7e747d0016183e65","6662009ae78f21dd82fcd179","66620ba53593c91f507d652e","null","","null","","","","","","","","./tasks/HMM-beads/Images/BlackBeadChoiceCorrect.png","","","","","","","","","",""
"image-keyboard-response","16","234426","0.0-3.0-4.0-1.0-0.1","5d1ccc7c7e747d0016183e65","6662009ae78f21dd82fcd179","66620ba53593c91f507d652e","2136","","f","","","","","","","","./tasks/HMM-beads/Images/NewTrialBC.png","practice","0","1","0","0","0","0","true","",""
"image-keyboard-response","17","234736","0.0-3.0-4.0-1.0-1.1","5d1ccc7c7e747d0016183e65","6662009ae78f21dd82fcd179","66620ba53593c91f507d652e","null","","null","","","","","","","","./tasks/HMM-beads/Images/BlackBeadChoice.png","","","","","","","","","",""
"image-keyboard-response","18","235247","0.0-3.0-4.0-1.0-2.1","5d1ccc7c7e747d0016183e65","6662009ae78f21dd82fcd179","66620ba53593c91f507d652e","null","","null","","","","","","","","./tasks/HMM-beads/Images/BlackBeadChoiceCorrect.png","","","","","","","","","",""
"image-keyboard-response","19","236115","0.0-3.0-4.0-1.0-0.2","5d1ccc7c7e747d0016183e65","6662009ae78f21dd82fcd179","66620ba53593c91f507d652e","867","","f","","","","","","","","./tasks/HMM-beads/Images/NewTrialBC.png","practice","0","2","0","1","0","0","false","",""
"image-keyboard-response","20","236431","0.0-3.0-4.0-1.0-1.2","5d1ccc7c7e747d0016183e65","6662009ae78f21dd82fcd179","66620ba53593c91f507d652e","null","","null","","","","","","","","./tasks/HMM-beads/Images/BlackBeadChoice.png","","","","","","","","","",""
"image-keyboard-response","21","236942","0.0-3.0-4.0-1.0-2.2","5d1ccc7c7e747d0016183e65","6662009ae78f21dd82fcd179","66620ba53593c91f507d652e","null","","null","","","","","","","","./tasks/HMM-beads/Images/BlackBeadChoiceWrong.png","","","","","","","","","",""
"image-keyboard-response","22","240699","0.0-3.0-4.0-1.0-0.3","5d1ccc7c7e747d0016183e65","6662009ae78f21dd82fcd179","66620ba53593c91f507d652e","3756","","j","","","","","","","","./tasks/HMM-beads/Images/NewTrialWC.png","practice","0","3","0","0","1","1","false","",""
"image-keyboard-response","23","241008","0.0-3.0-4.0-1.0-1.3","5d1ccc7c7e747d0016183e65","6662009ae78f21dd82fcd179","66620ba53593c91f507d652e","null","","null","","","","","","","","./tasks/HMM-beads/Images/WhiteBeadChoice.png","","","","","","","","","",""
"image-keyboard-response","24","241524","0.0-3.0-4.0-1.0-2.3","5d1ccc7c7e747d0016183e65","6662009ae78f21dd82fcd179","66620ba53593c91f507d652e","null","","null","","","","","","","","./tasks/HMM-beads/Images/WhiteBeadChoiceWrong.png","","","","","","","","","",""
"image-keyboard-response","25","242519","0.0-3.0-4.0-1.0-0.4","5d1ccc7c7e747d0016183e65","6662009ae78f21dd82fcd179","66620ba53593c91f507d652e","994","","f","","","","","","","","./tasks/HMM-beads/Images/NewTrialBC.png","practice","0","4","0","0","0","0","true","",""
"image-keyboard-response","26","242827","0.0-3.0-4.0-1.0-1.4","5d1ccc7c7e747d0016183e65","6662009ae78f21dd82fcd179","66620ba53593c91f507d652e","null","","null","","","","","","","","./tasks/HMM-beads/Images/BlackBeadChoice.png","","","","","","","","","",""
"image-keyboard-response","27","243340","0.0-3.0-4.0-1.0-2.4","5d1ccc7c7e747d0016183e65","6662009ae78f21dd82fcd179","66620ba53593c91f507d652e","null","","null","","","","","","","","./tasks/HMM-beads/Images/BlackBeadChoiceCorrect.png","","","","","","","","","",""
"image-keyboard-response","28","244083","0.0-3.0-4.0-1.0-0.5","5d1ccc7c7e747d0016183e65","6662009ae78f21dd82fcd179","66620ba53593c91f507d652e","742","","f","","","","","","","","./tasks/HMM-beads/Images/NewTrialBC.png","practice","0","5","0","1","0","0","false","",""
"image-keyboard-response","29","244393","0.0-3.0-4.0-1.0-1.5","5d1ccc7c7e747d0016183e65","6662009ae78f21dd82fcd179","66620ba53593c91f507d652e","null","","null","","","","","","","","./tasks/HMM-beads/Images/BlackBeadChoice.png","","","","","","","","","",""
"image-keyboard-response","30","244904","0.0-3.0-4.0-1.0-2.5","5d1ccc7c7e747d0016183e65","6662009ae78f21dd82fcd179","66620ba53593c91f507d652e","null","","null","","","","","","","","./tasks/HMM-beads/Images/BlackBeadChoiceWrong.png","","","","","","","","","",""
"image-keyboard-response","31","245745","0.0-3.0-4.0-1.0-0.6","5d1ccc7c7e747d0016183e65","6662009ae78f21dd82fcd179","66620ba53593c91f507d652e","840","","f","","","","","","","","./tasks/HMM-beads/Images/NewTrialWC.png","practice","0","6","0","0","1","0","true","",""
"image-keyboard-response","32","246053","0.0-3.0-4.0-1.0-1.6","5d1ccc7c7e747d0016183e65","6662009ae78f21dd82fcd179","66620ba53593c91f507d652e","null","","null","","","","","","","","./tasks/HMM-beads/Images/BlackBeadChoice.png","","","","","","","","","",""
"image-keyboard-response","33","246568","0.0-3.0-4.0-1.0-2.6","5d1ccc7c7e747d0016183e65","6662009ae78f21dd82fcd179","66620ba53593c91f507d652e","null","","null","","","","","","","","./tasks/HMM-beads/Images/BlackBeadChoiceCorrect.png","","","","","","","","","",""
"image-keyboard-response","34","247334","0.0-3.0-4.0-1.0-0.7","5d1ccc7c7e747d0016183e65","6662009ae78f21dd82fcd179","66620ba53593c91f507d652e","766","","f","","","","","","","","./tasks/HMM-beads/Images/NewTrialBC.png","practice","0","7","0","0","0","0","true","",""
"image-keyboard-response","35","247638","0.0-3.0-4.0-1.0-1.7","5d1ccc7c7e747d0016183e65","6662009ae78f21dd82fcd179","66620ba53593c91f507d652e","null","","null","","","","","","","","./tasks/HMM-beads/Images/BlackBeadChoice.png","","","","","","","","","",""
"image-keyboard-response","36","248152","0.0-3.0-4.0-1.0-2.7","5d1ccc7c7e747d0016183e65","6662009ae78f21dd82fcd179","66620ba53593c91f507d652e","null","","null","","","","","","","","./tasks/HMM-beads/Images/BlackBeadChoiceCorrect.png","","","","","","","","","",""
"image-keyboard-response","37","249888","0.0-3.0-4.0-1.0-0.8","5d1ccc7c7e747d0016183e65","6662009ae78f21dd82fcd179","66620ba53593c91f507d652e","1736","","f","","","","","","","","./tasks/HMM-beads/Images/NewTrialBC.png","practice","0","8","0","0","0","0","true","",""
"image-keyboard-response","38","250204","0.0-3.0-4.0-1.0-1.8","5d1ccc7c7e747d0016183e65","6662009ae78f21dd82fcd179","66620ba53593c91f507d652e","null","","null","","","","","","","","./tasks/HMM-beads/Images/BlackBeadChoice.png","","","","","","","","","",""
"image-keyboard-response","39","250717","0.0-3.0-4.0-1.0-2.8","5d1ccc7c7e747d0016183e65","6662009ae78f21dd82fcd179","66620ba53593c91f507d652e","null","","null","","","","","","","","./tasks/HMM-beads/Images/BlackBeadChoiceCorrect.png","","","","","","","","","",""
"image-keyboard-response","40","251342","0.0-3.0-4.0-1.0-0.9","5d1ccc7c7e747d0016183e65","6662009ae78f21dd82fcd179","66620ba53593c91f507d652e","623","","f","","","","","","","","./tasks/HMM-beads/Images/NewTrialBC.png","practice","0","9","0","1","0","0","false","",""
"image-keyboard-response","41","251652","0.0-3.0-4.0-1.0-1.9","5d1ccc7c7e747d0016183e65","6662009ae78f21dd82fcd179","66620ba53593c91f507d652e","null","","null","","","","","","","","./tasks/HMM-beads/Images/BlackBeadChoice.png","","","","","","","","","",""
"image-keyboard-response","42","252165","0.0-3.0-4.0-1.0-2.9","5d1ccc7c7e747d0016183e65","6662009ae78f21dd82fcd179","66620ba53593c91f507d652e","null","","null","","","","","","","","./tasks/HMM-beads/Images/BlackBeadChoiceWrong.png","","","","","","","","","",""
"image-keyboard-response","43","252683","0.0-3.0-4.0-1.0-0.10","5d1ccc7c7e747d0016183e65","6662009ae78f21dd82fcd179","66620ba53593c91f507d652e","517","","f","","","","","","","","./tasks/HMM-beads/Images/NewTrialWC.png","practice","0","10","0","0","1","0","true","",""
"image-keyboard-response","44","252989","0.0-3.0-4.0-1.0-1.10","5d1ccc7c7e747d0016183e65","6662009ae78f21dd82fcd179","66620ba53593c91f507d652e","null","","null","","","","","","","","./tasks/HMM-beads/Images/BlackBeadChoice.png","","","","","","","","","",""
"image-keyboard-response","45","253499","0.0-3.0-4.0-1.0-2.10","5d1ccc7c7e747d0016183e65","6662009ae78f21dd82fcd179","66620ba53593c91f507d652e","null","","null","","","","","","","","./tasks/HMM-beads/Images/BlackBeadChoiceCorrect.png","","","","","","","","","",""
"image-keyboard-response","46","254126","0.0-3.0-4.0-1.0-0.11","5d1ccc7c7e747d0016183e65","6662009ae78f21dd82fcd179","66620ba53593c91f507d652e","626","","f","","","","","","","","./tasks/HMM-beads/Images/NewTrialBC.png","practice","0","11","0","1","0","0","false","",""
"image-keyboard-response","47","254431","0.0-3.0-4.0-1.0-1.11","5d1ccc7c7e747d0016183e65","6662009ae78f21dd82fcd179","66620ba53593c91f507d652e","null","","null","","","","","","","","./tasks/HMM-beads/Images/BlackBeadChoice.png","","","","","","","","","",""
"image-keyboard-response","48","254945","0.0-3.0-4.0-1.0-2.11","5d1ccc7c7e747d0016183e65","6662009ae78f21dd82fcd179","66620ba53593c91f507d652e","null","","null","","","","","","","","./tasks/HMM-beads/Images/BlackBeadChoiceWrong.png","","","","","","","","","",""
"image-keyboard-response","49","255474","0.0-3.0-4.0-1.0-0.12","5d1ccc7c7e747d0016183e65","6662009ae78f21dd82fcd179","66620ba53593c91f507d652e","528","","f","","","","","","","","./tasks/HMM-beads/Images/NewTrialWC.png","practice","0","12","0","0","1","0","true","",""
"image-keyboard-response","50","255786","0.0-3.0-4.0-1.0-1.12","5d1ccc7c7e747d0016183e65","6662009ae78f21dd82fcd179","66620ba53593c91f507d652e","null","","null","","","","","","","","./tasks/HMM-beads/Images/BlackBeadChoice.png","","","","","","","","","",""
"image-keyboard-response","51","256297","0.0-3.0-4.0-1.0-2.12","5d1ccc7c7e747d0016183e65","6662009ae78f21dd82fcd179","66620ba53593c91f507d652e","null","","null","","","","","","","","./tasks/HMM-beads/Images/BlackBeadChoiceCorrect.png","","","","","","","","","",""
"image-keyboard-response","52","257056","0.0-3.0-4.0-1.0-0.13","5d1ccc7c7e747d0016183e65","6662009ae78f21dd82fcd179","66620ba53593c91f507d652e","758","","f","","","","","","","","./tasks/HMM-beads/Images/NewTrialBC.png","practice","0","13","0","0","0","0","true","",""
"image-keyboard-response","53","257368","0.0-3.0-4.0-1.0-1.13","5d1ccc7c7e747d0016183e65","6662009ae78f21dd82fcd179","66620ba53593c91f507d652e","null","","null","","","","","","","","./tasks/HMM-beads/Images/BlackBeadChoice.png","","","","","","","","","",""
"image-keyboard-response","54","257881","0.0-3.0-4.0-1.0-2.13","5d1ccc7c7e747d0016183e65","6662009ae78f21dd82fcd179","66620ba53593c91f507d652e","null","","null","","","","","","","","./tasks/HMM-beads/Images/BlackBeadChoiceCorrect.png","","","","","","","","","",""
"image-keyboard-response","55","258275","0.0-3.0-4.0-1.0-0.14","5d1ccc7c7e747d0016183e65","6662009ae78f21dd82fcd179","66620ba53593c91f507d652e","393","","f","","","","","","","","./tasks/HMM-beads/Images/NewTrialBC.png","practice","0","14","0","0","0","0","true","",""
"image-keyboard-response","56","258583","0.0-3.0-4.0-1.0-1.14","5d1ccc7c7e747d0016183e65","6662009ae78f21dd82fcd179","66620ba53593c91f507d652e","null","","null","","","","","","","","./tasks/HMM-beads/Images/BlackBeadChoice.png","","","","","","","","","",""
"image-keyboard-response","57","259097","0.0-3.0-4.0-1.0-2.14","5d1ccc7c7e747d0016183e65","6662009ae78f21dd82fcd179","66620ba53593c91f507d652e","null","","null","","","","","","","","./tasks/HMM-beads/Images/BlackBeadChoiceCorrect.png","","","","","","","","","",""
"image-keyboard-response","58","261278","0.0-3.0-4.0-1.0-0.15","5d1ccc7c7e747d0016183e65","6662009ae78f21dd82fcd179","66620ba53593c91f507d652e","2181","","f","","","","","","","","./tasks/HMM-beads/Images/NewTrialBC.png","practice","0","15","0","0","0","0","true","",""
"image-keyboard-response","59","261591","0.0-3.0-4.0-1.0-1.15","5d1ccc7c7e747d0016183e65","6662009ae78f21dd82fcd179","66620ba53593c91f507d652e","null","","null","","","","","","","","./tasks/HMM-beads/Images/BlackBeadChoice.png","","","","","","","","","",""
"image-keyboard-response","60","262105","0.0-3.0-4.0-1.0-2.15","5d1ccc7c7e747d0016183e65","6662009ae78f21dd82fcd179","66620ba53593c91f507d652e","null","","null","","","","","","","","./tasks/HMM-beads/Images/BlackBeadChoiceCorrect.png","","","","","","","","","",""
"image-keyboard-response","61","262433","0.0-3.0-4.0-1.0-0.16","5d1ccc7c7e747d0016183e65","6662009ae78f21dd82fcd179","66620ba53593c91f507d652e","328","","f","","","","","","","","./tasks/HMM-beads/Images/NewTrialBC.png","practice","0","16","0","0","0","0","true","",""
"image-keyboard-response","62","262740","0.0-3.0-4.0-1.0-1.16","5d1ccc7c7e747d0016183e65","6662009ae78f21dd82fcd179","66620ba53593c91f507d652e","null","","null","","","","","","","","./tasks/HMM-beads/Images/BlackBeadChoice.png","","","","","","","","","",""
"image-keyboard-response","63","263253","0.0-3.0-4.0-1.0-2.16","5d1ccc7c7e747d0016183e65","6662009ae78f21dd82fcd179","66620ba53593c91f507d652e","null","","null","","","","","","","","./tasks/HMM-beads/Images/BlackBeadChoiceCorrect.png","","","","","","","","","",""
"image-keyboard-response","64","263660","0.0-3.0-4.0-1.0-0.17","5d1ccc7c7e747d0016183e65","6662009ae78f21dd82fcd179","66620ba53593c91f507d652e","406","","f","","","","","","","","./tasks/HMM-beads/Images/NewTrialBC.png","practice","0","17","0","0","0","0","true","",""
"image-keyboard-response","65","263969","0.0-3.0-4.0-1.0-1.17","5d1ccc7c7e747d0016183e65","6662009ae78f21dd82fcd179","66620ba53593c91f507d652e","null","","null","","","","","","","","./tasks/HMM-beads/Images/BlackBeadChoice.png","","","","","","","","","",""
"image-keyboard-response","66","264483","0.0-3.0-4.0-1.0-2.17","5d1ccc7c7e747d0016183e65","6662009ae78f21dd82fcd179","66620ba53593c91f507d652e","null","","null","","","","","","","","./tasks/HMM-beads/Images/BlackBeadChoiceCorrect.png","","","","","","","","","",""
"image-keyboard-response","67","264753","0.0-3.0-4.0-1.0-0.18","5d1ccc7c7e747d0016183e65","6662009ae78f21dd82fcd179","66620ba53593c91f507d652e","270","","f","","","","","","","","./tasks/HMM-beads/Images/NewTrialBC.png","practice","0","18","0","1","0","0","false","",""
"image-keyboard-response","68","265057","0.0-3.0-4.0-1.0-1.18","5d1ccc7c7e747d0016183e65","6662009ae78f21dd82fcd179","66620ba53593c91f507d652e","null","","null","","","","","","","","./tasks/HMM-beads/Images/BlackBeadChoice.png","","","","","","","","","",""
"image-keyboard-response","69","265569","0.0-3.0-4.0-1.0-2.18","5d1ccc7c7e747d0016183e65","6662009ae78f21dd82fcd179","66620ba53593c91f507d652e","null","","null","","","","","","","","./tasks/HMM-beads/Images/BlackBeadChoiceWrong.png","","","","","","","","","",""
"image-keyboard-response","70","266346","0.0-3.0-4.0-1.0-0.19","5d1ccc7c7e747d0016183e65","6662009ae78f21dd82fcd179","66620ba53593c91f507d652e","777","","f","","","","","","","","./tasks/HMM-beads/Images/NewTrialWC.png","practice","0","19","0","0","1","0","true","",""
"image-keyboard-response","71","266657","0.0-3.0-4.0-1.0-1.19","5d1ccc7c7e747d0016183e65","6662009ae78f21dd82fcd179","66620ba53593c91f507d652e","null","","null","","","","","","","","./tasks/HMM-beads/Images/BlackBeadChoice.png","","","","","","","","","",""
"image-keyboard-response","72","267169","0.0-3.0-4.0-1.0-2.19","5d1ccc7c7e747d0016183e65","6662009ae78f21dd82fcd179","66620ba53593c91f507d652e","null","","null","","","","","","","","./tasks/HMM-beads/Images/BlackBeadChoiceCorrect.png","","","","","","","","","",""
"image-keyboard-response","73","267911","0.0-3.0-4.0-1.0-0.20","5d1ccc7c7e747d0016183e65","6662009ae78f21dd82fcd179","66620ba53593c91f507d652e","741","","f","","","","","","","","./tasks/HMM-beads/Images/NewTrialBC.png","practice","0","20","0","0","0","0","true","",""
"image-keyboard-response","74","268223","0.0-3.0-4.0-1.0-1.20","5d1ccc7c7e747d0016183e65","6662009ae78f21dd82fcd179","66620ba53593c91f507d652e","null","","null","","","","","","","","./tasks/HMM-beads/Images/BlackBeadChoice.png","","","","","","","","","",""
"image-keyboard-response","75","268737","0.0-3.0-4.0-1.0-2.20","5d1ccc7c7e747d0016183e65","6662009ae78f21dd82fcd179","66620ba53593c91f507d652e","null","","null","","","","","","","","./tasks/HMM-beads/Images/BlackBeadChoiceCorrect.png","","","","","","","","","",""
"image-keyboard-response","76","270701","0.0-3.0-4.0-1.0-0.21","5d1ccc7c7e747d0016183e65","6662009ae78f21dd82fcd179","66620ba53593c91f507d652e","1963","","f","","","","","","","","./tasks/HMM-beads/Images/NewTrialBC.png","practice","0","21","0","1","0","0","false","",""
"image-keyboard-response","77","271021","0.0-3.0-4.0-1.0-1.21","5d1ccc7c7e747d0016183e65","6662009ae78f21dd82fcd179","66620ba53593c91f507d652e","null","","null","","","","","","","","./tasks/HMM-beads/Images/BlackBeadChoice.png","","","","","","","","","",""
"image-keyboard-response","78","271531","0.0-3.0-4.0-1.0-2.21","5d1ccc7c7e747d0016183e65","6662009ae78f21dd82fcd179","66620ba53593c91f507d652e","null","","null","","","","","","","","./tasks/HMM-beads/Images/BlackBeadChoiceWrong.png","","","","","","","","","",""
"image-keyboard-response","79","273226","0.0-3.0-4.0-1.0-0.22","5d1ccc7c7e747d0016183e65","6662009ae78f21dd82fcd179","66620ba53593c91f507d652e","1694","","f","","","","","","","","./tasks/HMM-beads/Images/NewTrialWC.png","practice","0","22","1","1","1","0","false","",""
"image-keyboard-response","80","273541","0.0-3.0-4.0-1.0-1.22","5d1ccc7c7e747d0016183e65","6662009ae78f21dd82fcd179","66620ba53593c91f507d652e","null","","null","","","","","","","","./tasks/HMM-beads/Images/BlackBeadChoice.png","","","","","","","","","",""
"image-keyboard-response","81","274053","0.0-3.0-4.0-1.0-2.22","5d1ccc7c7e747d0016183e65","6662009ae78f21dd82fcd179","66620ba53593c91f507d652e","null","","null","","","","","","","","./tasks/HMM-beads/Images/BlackBeadChoiceWrong.png","","","","","","","","","",""
"image-keyboard-response","82","274620","0.0-3.0-4.0-1.0-0.23","5d1ccc7c7e747d0016183e65","6662009ae78f21dd82fcd179","66620ba53593c91f507d652e","565","","f","","","","","","","","./tasks/HMM-beads/Images/NewTrialWC.png","practice","0","23","1","0","1","0","true","",""
"image-keyboard-response","83","274923","0.0-3.0-4.0-1.0-1.23","5d1ccc7c7e747d0016183e65","6662009ae78f21dd82fcd179","66620ba53593c91f507d652e","null","","null","","","","","","","","./tasks/HMM-beads/Images/BlackBeadChoice.png","","","","","","","","","",""
"image-keyboard-response","84","275435","0.0-3.0-4.0-1.0-2.23","5d1ccc7c7e747d0016183e65","6662009ae78f21dd82fcd179","66620ba53593c91f507d652e","null","","null","","","","","","","","./tasks/HMM-beads/Images/BlackBeadChoiceCorrect.png","","","","","","","","","",""
"image-keyboard-response","85","277134","0.0-3.0-4.0-1.0-0.24","5d1ccc7c7e747d0016183e65","6662009ae78f21dd82fcd179","66620ba53593c91f507d652e","1699","","f","","","","","","","","./tasks/HMM-beads/Images/NewTrialBC.png","practice","0","24","1","1","0","0","false","",""
"image-keyboard-response","86","277438","0.0-3.0-4.0-1.0-1.24","5d1ccc7c7e747d0016183e65","6662009ae78f21dd82fcd179","66620ba53593c91f507d652e","null","","null","","","","","","","","./tasks/HMM-beads/Images/BlackBeadChoice.png","","","","","","","","","",""
"image-keyboard-response","87","277951","0.0-3.0-4.0-1.0-2.24","5d1ccc7c7e747d0016183e65","6662009ae78f21dd82fcd179","66620ba53593c91f507d652e","null","","null","","","","","","","","./tasks/HMM-beads/Images/BlackBeadChoiceWrong.png","","","","","","","","","",""
"image-keyboard-response","88","280563","0.0-3.0-4.0-1.0-0.25","5d1ccc7c7e747d0016183e65","6662009ae78f21dd82fcd179","66620ba53593c91f507d652e","2612","","f","","","","","","","","./tasks/HMM-beads/Images/NewTrialWC.png","practice","0","25","1","1","1","0","false","",""
"image-keyboard-response","89","280872","0.0-3.0-4.0-1.0-1.25","5d1ccc7c7e747d0016183e65","6662009ae78f21dd82fcd179","66620ba53593c91f507d652e","null","","null","","","","","","","","./tasks/HMM-beads/Images/BlackBeadChoice.png","","","","","","","","","",""
"image-keyboard-response","90","281385","0.0-3.0-4.0-1.0-2.25","5d1ccc7c7e747d0016183e65","6662009ae78f21dd82fcd179","66620ba53593c91f507d652e","null","","null","","","","","","","","./tasks/HMM-beads/Images/BlackBeadChoiceWrong.png","","","","","","","","","",""
"image-keyboard-response","91","281597","0.0-3.0-4.0-1.0-0.26","5d1ccc7c7e747d0016183e65","6662009ae78f21dd82fcd179","66620ba53593c91f507d652e","211","","f","","","","","","","","./tasks/HMM-beads/Images/NewTrialWC.png","practice","0","26","1","1","1","0","false","",""
"image-keyboard-response","92","281911","0.0-3.0-4.0-1.0-1.26","5d1ccc7c7e747d0016183e65","6662009ae78f21dd82fcd179","66620ba53593c91f507d652e","null","","null","","","","","","","","./tasks/HMM-beads/Images/BlackBeadChoice.png","","","","","","","","","",""
"image-keyboard-response","93","282423","0.0-3.0-4.0-1.0-2.26","5d1ccc7c7e747d0016183e65","6662009ae78f21dd82fcd179","66620ba53593c91f507d652e","null","","null","","","","","","","","./tasks/HMM-beads/Images/BlackBeadChoiceWrong.png","","","","","","","","","",""
"image-keyboard-response","94","282997","0.0-3.0-4.0-1.0-0.27","5d1ccc7c7e747d0016183e65","6662009ae78f21dd82fcd179","66620ba53593c91f507d652e","573","","f","","","","","","","","./tasks/HMM-beads/Images/NewTrialWC.png","practice","0","27","1","1","1","0","false","",""
"image-keyboard-response","95","283312","0.0-3.0-4.0-1.0-1.27","5d1ccc7c7e747d0016183e65","6662009ae78f21dd82fcd179","66620ba53593c91f507d652e","null","","null","","","","","","","","./tasks/HMM-beads/Images/BlackBeadChoice.png","","","","","","","","","",""
"image-keyboard-response","96","283823","0.0-3.0-4.0-1.0-2.27","5d1ccc7c7e747d0016183e65","6662009ae78f21dd82fcd179","66620ba53593c91f507d652e","null","","null","","","","","","","","./tasks/HMM-beads/Images/BlackBeadChoiceWrong.png","","","","","","","","","",""
"image-keyboard-response","97","285509","0.0-3.0-4.0-1.0-0.28","5d1ccc7c7e747d0016183e65","6662009ae78f21dd82fcd179","66620ba53593c91f507d652e","1686","","f","","","","","","","","./tasks/HMM-beads/Images/NewTrialWC.png","practice","0","28","1","0","1","0","true","",""
"image-keyboard-response","98","285810","0.0-3.0-4.0-1.0-1.28","5d1ccc7c7e747d0016183e65","6662009ae78f21dd82fcd179","66620ba53593c91f507d652e","null","","null","","","","","","","","./tasks/HMM-beads/Images/BlackBeadChoice.png","","","","","","","","","",""
"image-keyboard-response","99","286322","0.0-3.0-4.0-1.0-2.28","5d1ccc7c7e747d0016183e65","6662009ae78f21dd82fcd179","66620ba53593c91f507d652e","null","","null","","","","","","","","./tasks/HMM-beads/Images/BlackBeadChoiceCorrect.png","","","","","","","","","",""
"image-keyboard-response","100","286874","0.0-3.0-4.0-1.0-0.29","5d1ccc7c7e747d0016183e65","6662009ae78f21dd82fcd179","66620ba53593c91f507d652e","551","","f","","","","","","","","./tasks/HMM-beads/Images/NewTrialBC.png","practice","0","29","1","1","0","0","false","",""
"image-keyboard-response","101","287178","0.0-3.0-4.0-1.0-1.29","5d1ccc7c7e747d0016183e65","6662009ae78f21dd82fcd179","66620ba53593c91f507d652e","null","","null","","","","","","","","./tasks/HMM-beads/Images/BlackBeadChoice.png","","","","","","","","","",""
"image-keyboard-response","102","287691","0.0-3.0-4.0-1.0-2.29","5d1ccc7c7e747d0016183e65","6662009ae78f21dd82fcd179","66620ba53593c91f507d652e","null","","null","","","","","","","","./tasks/HMM-beads/Images/BlackBeadChoiceWrong.png","","","","","","","","","",""
"image-keyboard-response","103","289504","0.0-3.0-4.0-1.0-0.30","5d1ccc7c7e747d0016183e65","6662009ae78f21dd82fcd179","66620ba53593c91f507d652e","1812","","j","","","","","","","","./tasks/HMM-beads/Images/NewTrialWC.png","practice","0","30","1","0","1","1","false","",""
"image-keyboard-response","104","289806","0.0-3.0-4.0-1.0-1.30","5d1ccc7c7e747d0016183e65","6662009ae78f21dd82fcd179","66620ba53593c91f507d652e","null","","null","","","","","","","","./tasks/HMM-beads/Images/WhiteBeadChoice.png","","","","","","","","","",""
"image-keyboard-response","105","290316","0.0-3.0-4.0-1.0-2.30","5d1ccc7c7e747d0016183e65","6662009ae78f21dd82fcd179","66620ba53593c91f507d652e","null","","null","","","","","","","","./tasks/HMM-beads/Images/WhiteBeadChoiceWrong.png","","","","","","","","","",""
"image-keyboard-response","106","291141","0.0-3.0-4.0-1.0-0.31","5d1ccc7c7e747d0016183e65","6662009ae78f21dd82fcd179","66620ba53593c91f507d652e","824","","j","","","","","","","","./tasks/HMM-beads/Images/NewTrialBC.png","practice","0","31","1","1","0","1","true","",""
"image-keyboard-response","107","291452","0.0-3.0-4.0-1.0-1.31","5d1ccc7c7e747d0016183e65","6662009ae78f21dd82fcd179","66620ba53593c91f507d652e","null","","null","","","","","","","","./tasks/HMM-beads/Images/WhiteBeadChoice.png","","","","","","","","","",""
"image-keyboard-response","108","291966","0.0-3.0-4.0-1.0-2.31","5d1ccc7c7e747d0016183e65","6662009ae78f21dd82fcd179","66620ba53593c91f507d652e","null","","null","","","","","","","","./tasks/HMM-beads/Images/WhiteBeadChoiceCorrect.png","","","","","","","","","",""
"image-keyboard-response","109","294029","0.0-3.0-4.0-1.0-0.32","5d1ccc7c7e747d0016183e65","6662009ae78f21dd82fcd179","66620ba53593c91f507d652e","2063","","j","","","","","","","","./tasks/HMM-beads/Images/NewTrialWC.png","practice","0","32","1","1","1","1","true","",""
"image-keyboard-response","110","294343","0.0-3.0-4.0-1.0-1.32","5d1ccc7c7e747d0016183e65","6662009ae78f21dd82fcd179","66620ba53593c91f507d652e","null","","null","","","","","","","","./tasks/HMM-beads/Images/WhiteBeadChoice.png","","","","","","","","","",""
"image-keyboard-response","111","294856","0.0-3.0-4.0-1.0-2.32","5d1ccc7c7e747d0016183e65","6662009ae78f21dd82fcd179","66620ba53593c91f507d652e","null","","null","","","","","","","","./tasks/HMM-beads/Images/WhiteBeadChoiceCorrect.png","","","","","","","","","",""
"image-keyboard-response","112","295690","0.0-3.0-4.0-1.0-0.33","5d1ccc7c7e747d0016183e65","6662009ae78f21dd82fcd179","66620ba53593c91f507d652e","833","","j","","","","","","","","./tasks/HMM-beads/Images/NewTrialWC.png","practice","0","33","1","1","1","1","true","",""
"image-keyboard-response","113","296004","0.0-3.0-4.0-1.0-1.33","5d1ccc7c7e747d0016183e65","6662009ae78f21dd82fcd179","66620ba53593c91f507d652e","null","","null","","","","","","","","./tasks/HMM-beads/Images/WhiteBeadChoice.png","","","","","","","","","",""
"image-keyboard-response","114","296515","0.0-3.0-4.0-1.0-2.33","5d1ccc7c7e747d0016183e65","6662009ae78f21dd82fcd179","66620ba53593c91f507d652e","null","","null","","","","","","","","./tasks/HMM-beads/Images/WhiteBeadChoiceCorrect.png","","","","","","","","","",""
"image-keyboard-response","115","296979","0.0-3.0-4.0-1.0-0.34","5d1ccc7c7e747d0016183e65","6662009ae78f21dd82fcd179","66620ba53593c91f507d652e","463","","j","","","","","","","","./tasks/HMM-beads/Images/NewTrialWC.png","practice","0","34","1","1","1","1","true","",""
"image-keyboard-response","116","297298","0.0-3.0-4.0-1.0-1.34","5d1ccc7c7e747d0016183e65","6662009ae78f21dd82fcd179","66620ba53593c91f507d652e","null","","null","","","","","","","","./tasks/HMM-beads/Images/WhiteBeadChoice.png","","","","","","","","","",""
"image-keyboard-response","117","297812","0.0-3.0-4.0-1.0-2.34","5d1ccc7c7e747d0016183e65","6662009ae78f21dd82fcd179","66620ba53593c91f507d652e","null","","null","","","","","","","","./tasks/HMM-beads/Images/WhiteBeadChoiceCorrect.png","","","","","","","","","",""
"image-keyboard-response","118","298559","0.0-3.0-4.0-1.0-0.35","5d1ccc7c7e747d0016183e65","6662009ae78f21dd82fcd179","66620ba53593c91f507d652e","746","","j","","","","","","","","./tasks/HMM-beads/Images/NewTrialWC.png","practice","0","35","1","1","1","1","true","",""
"image-keyboard-response","119","298869","0.0-3.0-4.0-1.0-1.35","5d1ccc7c7e747d0016183e65","6662009ae78f21dd82fcd179","66620ba53593c91f507d652e","null","","null","","","","","","","","./tasks/HMM-beads/Images/WhiteBeadChoice.png","","","","","","","","","",""
"image-keyboard-response","120","299380","0.0-3.0-4.0-1.0-2.35","5d1ccc7c7e747d0016183e65","6662009ae78f21dd82fcd179","66620ba53593c91f507d652e","null","","null","","","","","","","","./tasks/HMM-beads/Images/WhiteBeadChoiceCorrect.png","","","","","","","","","",""
"image-keyboard-response","121","299821","0.0-3.0-4.0-1.0-0.36","5d1ccc7c7e747d0016183e65","6662009ae78f21dd82fcd179","66620ba53593c91f507d652e","440","","j","","","","","","","","./tasks/HMM-beads/Images/NewTrialWC.png","practice","0","36","1","0","1","1","false","",""
"image-keyboard-response","122","300123","0.0-3.0-4.0-1.0-1.36","5d1ccc7c7e747d0016183e65","6662009ae78f21dd82fcd179","66620ba53593c91f507d652e","null","","null","","","","","","","","./tasks/HMM-beads/Images/WhiteBeadChoice.png","","","","","","","","","",""
"image-keyboard-response","123","300636","0.0-3.0-4.0-1.0-2.36","5d1ccc7c7e747d0016183e65","6662009ae78f21dd82fcd179","66620ba53593c91f507d652e","null","","null","","","","","","","","./tasks/HMM-beads/Images/WhiteBeadChoiceWrong.png","","","","","","","","","",""
"image-keyboard-response","124","301544","0.0-3.0-4.0-1.0-0.37","5d1ccc7c7e747d0016183e65","6662009ae78f21dd82fcd179","66620ba53593c91f507d652e","907","","j","","","","","","","","./tasks/HMM-beads/Images/NewTrialBC.png","practice","0","37","1","1","0","1","true","",""
"image-keyboard-response","125","301846","0.0-3.0-4.0-1.0-1.37","5d1ccc7c7e747d0016183e65","6662009ae78f21dd82fcd179","66620ba53593c91f507d652e","null","","null","","","","","","","","./tasks/HMM-beads/Images/WhiteBeadChoice.png","","","","","","","","","",""
"image-keyboard-response","126","302347","0.0-3.0-4.0-1.0-2.37","5d1ccc7c7e747d0016183e65","6662009ae78f21dd82fcd179","66620ba53593c91f507d652e","null","","null","","","","","","","","./tasks/HMM-beads/Images/WhiteBeadChoiceCorrect.png","","","","","","","","","",""
"image-keyboard-response","127","302817","0.0-3.0-4.0-1.0-0.38","5d1ccc7c7e747d0016183e65","6662009ae78f21dd82fcd179","66620ba53593c91f507d652e","470","","j","","","","","","","","./tasks/HMM-beads/Images/NewTrialWC.png","practice","0","38","1","1","1","1","true","",""
"image-keyboard-response","128","303119","0.0-3.0-4.0-1.0-1.38","5d1ccc7c7e747d0016183e65","6662009ae78f21dd82fcd179","66620ba53593c91f507d652e","null","","null","","","","","","","","./tasks/HMM-beads/Images/WhiteBeadChoice.png","","","","","","","","","",""
"image-keyboard-response","129","303634","0.0-3.0-4.0-1.0-2.38","5d1ccc7c7e747d0016183e65","6662009ae78f21dd82fcd179","66620ba53593c91f507d652e","null","","null","","","","","","","","./tasks/HMM-beads/Images/WhiteBeadChoiceCorrect.png","","","","","","","","","",""
"image-keyboard-response","130","304055","0.0-3.0-4.0-1.0-0.39","5d1ccc7c7e747d0016183e65","6662009ae78f21dd82fcd179","66620ba53593c91f507d652e","420","","j","","","","","","","","./tasks/HMM-beads/Images/NewTrialWC.png","practice","0","39","1","1","1","1","true","",""
"image-keyboard-response","131","304366","0.0-3.0-4.0-1.0-1.39","5d1ccc7c7e747d0016183e65","6662009ae78f21dd82fcd179","66620ba53593c91f507d652e","null","","null","","","","","","","","./tasks/HMM-beads/Images/WhiteBeadChoice.png","","","","","","","","","",""
"image-keyboard-response","132","304877","0.0-3.0-4.0-1.0-2.39","5d1ccc7c7e747d0016183e65","6662009ae78f21dd82fcd179","66620ba53593c91f507d652e","null","","null","","","","","","","","./tasks/HMM-beads/Images/WhiteBeadChoiceCorrect.png","","","","","","","","","",""
"html-keyboard-response","133","308576","0.0-3.0-4.0-2.0","5d1ccc7c7e747d0016183e65","6662009ae78f21dd82fcd179","66620ba53593c91f507d652e","3698",""," ","","","","","","","","","","","","","","","","","",""
"instructions","134","373596","0.0-3.0-5.0","5d1ccc7c7e747d0016183e65","6662009ae78f21dd82fcd179","66620ba53593c91f507d652e","65019","","","","[{""page_index"":0,""viewing_time"":45291},{""page_index"":1,""viewing_time"":19728}]","","","","","","","","","","","","","","","",""
"html-keyboard-response","135","377174","0.0-3.0-6.0-0.0","5d1ccc7c7e747d0016183e65","6662009ae78f21dd82fcd179","66620ba53593c91f507d652e","3577",""," ","","","","","","","","<div align=center>In this block, there will be a <b>1% chance</b> that the jar on the next trial will be different from the jar on the current trial.<br><br></div>","","","","","","","","","",""
"image-keyboard-response","136","378840","0.0-3.0-6.0-1.0-0.0","5d1ccc7c7e747d0016183e65","6662009ae78f21dd82fcd179","66620ba53593c91f507d652e","1666","","f","","","","","","","","./tasks/HMM-beads/Images/NoChoice.png","lowH","1","0","1","0","9","0","true","",""
"image-keyboard-response","137","379155","0.0-3.0-6.0-1.0-1.0","5d1ccc7c7e747d0016183e65","6662009ae78f21dd82fcd179","66620ba53593c91f507d652e","null","","null","","","","","","","","./tasks/HMM-beads/Images/BlackBeadChoice.png","","","","","","","","","",""
"image-keyboard-response","138","379665","0.0-3.0-6.0-1.0-2.0","5d1ccc7c7e747d0016183e65","6662009ae78f21dd82fcd179","66620ba53593c91f507d652e","null","","null","","","","","","","","./tasks/HMM-beads/Images/BlackBeadChoiceCorrect.png","","","","","","","","","",""
"image-keyboard-response","139","381263","0.0-3.0-6.0-1.0-0.1","5d1ccc7c7e747d0016183e65","6662009ae78f21dd82fcd179","66620ba53593c91f507d652e","1596","","f","","","","","","","","./tasks/HMM-beads/Images/NewTrialBC.png","lowH","1","1","1","1","0","0","false","",""
"image-keyboard-response","140","381574","0.0-3.0-6.0-1.0-1.1","5d1ccc7c7e747d0016183e65","6662009ae78f21dd82fcd179","66620ba53593c91f507d652e","null","","null","","","","","","","","./tasks/HMM-beads/Images/BlackBeadChoice.png","","","","","","","","","",""
"image-keyboard-response","141","382088","0.0-3.0-6.0-1.0-2.1","5d1ccc7c7e747d0016183e65","6662009ae78f21dd82fcd179","66620ba53593c91f507d652e","null","","null","","","","","","","","./tasks/HMM-beads/Images/BlackBeadChoiceWrong.png","","","","","","","","","",""
"image-keyboard-response","142","382415","0.0-3.0-6.0-1.0-0.2","5d1ccc7c7e747d0016183e65","6662009ae78f21dd82fcd179","66620ba53593c91f507d652e","326","","f","","","","","","","","./tasks/HMM-beads/Images/NewTrialWC.png","lowH","1","2","1","1","1","0","false","",""
"image-keyboard-response","143","382725","0.0-3.0-6.0-1.0-1.2","5d1ccc7c7e747d0016183e65","6662009ae78f21dd82fcd179","66620ba53593c91f507d652e","null","","null","","","","","","","","./tasks/HMM-beads/Images/BlackBeadChoice.png","","","","","","","","","",""
"image-keyboard-response","144","383236","0.0-3.0-6.0-1.0-2.2","5d1ccc7c7e747d0016183e65","6662009ae78f21dd82fcd179","66620ba53593c91f507d652e","null","","null","","","","","","","","./tasks/HMM-beads/Images/BlackBeadChoiceWrong.png","","","","","","","","","",""
"image-keyboard-response","145","383917","0.0-3.0-6.0-1.0-0.3","5d1ccc7c7e747d0016183e65","6662009ae78f21dd82fcd179","66620ba53593c91f507d652e","675","","f","","","","","","","","./tasks/HMM-beads/Images/NewTrialWC.png","lowH","1","3","1","1","1","0","false","",""
"image-keyboard-response","146","384232","0.0-3.0-6.0-1.0-1.3","5d1ccc7c7e747d0016183e65","6662009ae78f21dd82fcd179","66620ba53593c91f507d652e","null","","null","","","","","","","","./tasks/HMM-beads/Images/BlackBeadChoice.png","","","","","","","","","",""
"image-keyboard-response","147","384743","0.0-3.0-6.0-1.0-2.3","5d1ccc7c7e747d0016183e65","6662009ae78f21dd82fcd179","66620ba53593c91f507d652e","null","","null","","","","","","","","./tasks/HMM-beads/Images/BlackBeadChoiceWrong.png","","","","","","","","","",""
"image-keyboard-response","148","385076","0.0-3.0-6.0-1.0-0.4","5d1ccc7c7e747d0016183e65","6662009ae78f21dd82fcd179","66620ba53593c91f507d652e","332","","j","","","","","","","","./tasks/HMM-beads/Images/NewTrialWC.png","lowH","1","4","1","1","1","1","true","",""
"image-keyboard-response","149","385384","0.0-3.0-6.0-1.0-1.4","5d1ccc7c7e747d0016183e65","6662009ae78f21dd82fcd179","66620ba53593c91f507d652e","null","","null","","","","","","","","./tasks/HMM-beads/Images/WhiteBeadChoice.png","","","","","","","","","",""
"image-keyboard-response","150","385896","0.0-3.0-6.0-1.0-2.4","5d1ccc7c7e747d0016183e65","6662009ae78f21dd82fcd179","66620ba53593c91f507d652e","null","","null","","","","","","","","./tasks/HMM-beads/Images/WhiteBeadChoiceCorrect.png","","","","","","","","","",""
"image-keyboard-response","151","386375","0.0-3.0-6.0-1.0-0.5","5d1ccc7c7e747d0016183e65","6662009ae78f21dd82fcd179","66620ba53593c91f507d652e","479","","j","","","","","","","","./tasks/HMM-beads/Images/NewTrialWC.png","lowH","1","5","1","1","1","1","true","",""
"image-keyboard-response","152","386688","0.0-3.0-6.0-1.0-1.5","5d1ccc7c7e747d0016183e65","6662009ae78f21dd82fcd179","66620ba53593c91f507d652e","null","","null","","","","","","","","./tasks/HMM-beads/Images/WhiteBeadChoice.png","","","","","","","","","",""
"image-keyboard-response","153","387198","0.0-3.0-6.0-1.0-2.5","5d1ccc7c7e747d0016183e65","6662009ae78f21dd82fcd179","66620ba53593c91f507d652e","null","","null","","","","","","","","./tasks/HMM-beads/Images/WhiteBeadChoiceCorrect.png","","","","","","","","","",""
"image-keyboard-response","154","387584","0.0-3.0-6.0-1.0-0.6","5d1ccc7c7e747d0016183e65","6662009ae78f21dd82fcd179","66620ba53593c91f507d652e","385","","j","","","","","","","","./tasks/HMM-beads/Images/NewTrialWC.png","lowH","1","6","1","0","1","1","false","",""
"image-keyboard-response","155","387896","0.0-3.0-6.0-1.0-1.6","5d1ccc7c7e747d0016183e65","6662009ae78f21dd82fcd179","66620ba53593c91f507d652e","null","","null","","","","","","","","./tasks/HMM-beads/Images/WhiteBeadChoice.png","","","","","","","","","",""
"image-keyboard-response","156","388405","0.0-3.0-6.0-1.0-2.6","5d1ccc7c7e747d0016183e65","6662009ae78f21dd82fcd179","66620ba53593c91f507d652e","null","","null","","","","","","","","./tasks/HMM-beads/Images/WhiteBeadChoiceWrong.png","","","","","","","","","",""
"image-keyboard-response","157","389070","0.0-3.0-6.0-1.0-0.7","5d1ccc7c7e747d0016183e65","6662009ae78f21dd82fcd179","66620ba53593c91f507d652e","664","","j","","","","","","","","./tasks/HMM-beads/Images/NewTrialBC.png","lowH","1","7","1","1","0","1","true","",""
"image-keyboard-response","158","389387","0.0-3.0-6.0-1.0-1.7","5d1ccc7c7e747d0016183e65","6662009ae78f21dd82fcd179","66620ba53593c91f507d652e","null","","null","","","","","","","","./tasks/HMM-beads/Images/WhiteBeadChoice.png","","","","","","","","","",""
"image-keyboard-response","159","389903","0.0-3.0-6.0-1.0-2.7","5d1ccc7c7e747d0016183e65","6662009ae78f21dd82fcd179","66620ba53593c91f507d652e","null","","null","","","","","","","","./tasks/HMM-beads/Images/WhiteBeadChoiceCorrect.png","","","","","","","","","",""
"image-keyboard-response","160","390335","0.0-3.0-6.0-1.0-0.8","5d1ccc7c7e747d0016183e65","6662009ae78f21dd82fcd179","66620ba53593c91f507d652e","431","","j","","","","","","","","./tasks/HMM-beads/Images/NewTrialWC.png","lowH","1","8","1","1","1","1","true","",""
"image-keyboard-response","161","390646","0.0-3.0-6.0-1.0-1.8","5d1ccc7c7e747d0016183e65","6662009ae78f21dd82fcd179","66620ba53593c91f507d652e","null","","null","","","","","","","","./tasks/HMM-beads/Images/WhiteBeadChoice.png","","","","","","","","","",""
"image-keyboard-response","162","391159","0.0-3.0-6.0-1.0-2.8","5d1ccc7c7e747d0016183e65","6662009ae78f21dd82fcd179","66620ba53593c91f507d652e","null","","null","","","","","","","","./tasks/HMM-beads/Images/WhiteBeadChoiceCorrect.png","","","","","","","","","",""
"image-keyboard-response","163","391576","0.0-3.0-6.0-1.0-0.9","5d1ccc7c7e747d0016183e65","6662009ae78f21dd82fcd179","66620ba53593c91f507d652e","415","","j","","","","","","","","./tasks/HMM-beads/Images/NewTrialWC.png","lowH","1","9","1","1","1","1","true","",""
"image-keyboard-response","164","391891","0.0-3.0-6.0-1.0-1.9","5d1ccc7c7e747d0016183e65","6662009ae78f21dd82fcd179","66620ba53593c91f507d652e","null","","null","","","","","","","","./tasks/HMM-beads/Images/WhiteBeadChoice.png","","","","","","","","","",""
"image-keyboard-response","165","392405","0.0-3.0-6.0-1.0-2.9","5d1ccc7c7e747d0016183e65","6662009ae78f21dd82fcd179","66620ba53593c91f507d652e","null","","null","","","","","","","","./tasks/HMM-beads/Images/WhiteBeadChoiceCorrect.png","","","","","","","","","",""
"image-keyboard-response","166","392763","0.0-3.0-6.0-1.0-0.10","5d1ccc7c7e747d0016183e65","6662009ae78f21dd82fcd179","66620ba53593c91f507d652e","358","","j","","","","","","","","./tasks/HMM-beads/Images/NewTrialWC.png","lowH","1","10","1","1","1","1","true","",""
"image-keyboard-response","167","393075","0.0-3.0-6.0-1.0-1.10","5d1ccc7c7e747d0016183e65","6662009ae78f21dd82fcd179","66620ba53593c91f507d652e","null","","null","","","","","","","","./tasks/HMM-beads/Images/WhiteBeadChoice.png","","","","","","","","","",""
"image-keyboard-response","168","393585","0.0-3.0-6.0-1.0-2.10","5d1ccc7c7e747d0016183e65","6662009ae78f21dd82fcd179","66620ba53593c91f507d652e","null","","null","","","","","","","","./tasks/HMM-beads/Images/WhiteBeadChoiceCorrect.png","","","","","","","","","",""
"image-keyboard-response","169","393955","0.0-3.0-6.0-1.0-0.11","5d1ccc7c7e747d0016183e65","6662009ae78f21dd82fcd179","66620ba53593c91f507d652e","370","","j","","","","","","","","./tasks/HMM-beads/Images/NewTrialWC.png","lowH","1","11","1","1","1","1","true","",""
"image-keyboard-response","170","394269","0.0-3.0-6.0-1.0-1.11","5d1ccc7c7e747d0016183e65","6662009ae78f21dd82fcd179","66620ba53593c91f507d652e","null","","null","","","","","","","","./tasks/HMM-beads/Images/WhiteBeadChoice.png","","","","","","","","","",""
"image-keyboard-response","171","394782","0.0-3.0-6.0-1.0-2.11","5d1ccc7c7e747d0016183e65","6662009ae78f21dd82fcd179","66620ba53593c91f507d652e","null","","null","","","","","","","","./tasks/HMM-beads/Images/WhiteBeadChoiceCorrect.png","","","","","","","","","",""
"image-keyboard-response","172","395034","0.0-3.0-6.0-1.0-0.12","5d1ccc7c7e747d0016183e65","6662009ae78f21dd82fcd179","66620ba53593c91f507d652e","251","","j","","","","","","","","./tasks/HMM-beads/Images/NewTrialWC.png","lowH","1","12","1","1","1","1","true","",""
"image-keyboard-response","173","395341","0.0-3.0-6.0-1.0-1.12","5d1ccc7c7e747d0016183e65","6662009ae78f21dd82fcd179","66620ba53593c91f507d652e","null","","null","","","","","","","","./tasks/HMM-beads/Images/WhiteBeadChoice.png","","","","","","","","","",""
"image-keyboard-response","174","395854","0.0-3.0-6.0-1.0-2.12","5d1ccc7c7e747d0016183e65","6662009ae78f21dd82fcd179","66620ba53593c91f507d652e","null","","null","","","","","","","","./tasks/HMM-beads/Images/WhiteBeadChoiceCorrect.png","","","","","","","","","",""
"image-keyboard-response","175","396188","0.0-3.0-6.0-1.0-0.13","5d1ccc7c7e747d0016183e65","6662009ae78f21dd82fcd179","66620ba53593c91f507d652e","334","","j","","","","","","","","./tasks/HMM-beads/Images/NewTrialWC.png","lowH","1","13","1","0","1","1","false","",""
"image-keyboard-response","176","396489","0.0-3.0-6.0-1.0-1.13","5d1ccc7c7e747d0016183e65","6662009ae78f21dd82fcd179","66620ba53593c91f507d652e","null","","null","","","","","","","","./tasks/HMM-beads/Images/WhiteBeadChoice.png","","","","","","","","","",""
"image-keyboard-response","177","397004","0.0-3.0-6.0-1.0-2.13","5d1ccc7c7e747d0016183e65","6662009ae78f21dd82fcd179","66620ba53593c91f507d652e","null","","null","","","","","","","","./tasks/HMM-beads/Images/WhiteBeadChoiceWrong.png","","","","","","","","","",""
"image-keyboard-response","178","397463","0.0-3.0-6.0-1.0-0.14","5d1ccc7c7e747d0016183e65","6662009ae78f21dd82fcd179","66620ba53593c91f507d652e","459","","j","","","","","","","","./tasks/HMM-beads/Images/NewTrialBC.png","lowH","1","14","1","0","0","1","false","",""
"image-keyboard-response","179","397780","0.0-3.0-6.0-1.0-1.14","5d1ccc7c7e747d0016183e65","6662009ae78f21dd82fcd179","66620ba53593c91f507d652e","null","","null","","","","","","","","./tasks/HMM-beads/Images/WhiteBeadChoice.png","","","","","","","","","",""
"image-keyboard-response","180","398290","0.0-3.0-6.0-1.0-2.14","5d1ccc7c7e747d0016183e65","6662009ae78f21dd82fcd179","66620ba53593c91f507d652e","null","","null","","","","","","","","./tasks/HMM-beads/Images/WhiteBeadChoiceWrong.png","","","","","","","","","",""
"image-keyboard-response","181","398793","0.0-3.0-6.0-1.0-0.15","5d1ccc7c7e747d0016183e65","6662009ae78f21dd82fcd179","66620ba53593c91f507d652e","502","","j","","","","","","","","./tasks/HMM-beads/Images/NewTrialBC.png","lowH","1","15","1","1","0","1","true","",""
"image-keyboard-response","182","399099","0.0-3.0-6.0-1.0-1.15","5d1ccc7c7e747d0016183e65","6662009ae78f21dd82fcd179","66620ba53593c91f507d652e","null","","null","","","","","","","","./tasks/HMM-beads/Images/WhiteBeadChoice.png","","","","","","","","","",""
"image-keyboard-response","183","399611","0.0-3.0-6.0-1.0-2.15","5d1ccc7c7e747d0016183e65","6662009ae78f21dd82fcd179","66620ba53593c91f507d652e","null","","null","","","","","","","","./tasks/HMM-beads/Images/WhiteBeadChoiceCorrect.png","","","","","","","","","",""
"image-keyboard-response","184","400111","0.0-3.0-6.0-1.0-0.16","5d1ccc7c7e747d0016183e65","6662009ae78f21dd82fcd179","66620ba53593c91f507d652e","498","","j","","","","","","","","./tasks/HMM-beads/Images/NewTrialWC.png","lowH","1","16","1","1","1","1","true","",""
"image-keyboard-response","185","400420","0.0-3.0-6.0-1.0-1.16","5d1ccc7c7e747d0016183e65","6662009ae78f21dd82fcd179","66620ba53593c91f507d652e","null","","null","","","","","","","","./tasks/HMM-beads/Images/WhiteBeadChoice.png","","","","","","","","","",""
"image-keyboard-response","186","400933","0.0-3.0-6.0-1.0-2.16","5d1ccc7c7e747d0016183e65","6662009ae78f21dd82fcd179","66620ba53593c91f507d652e","null","","null","","","","","","","","./tasks/HMM-beads/Images/WhiteBeadChoiceCorrect.png","","","","","","","","","",""
"image-keyboard-response","187","401387","0.0-3.0-6.0-1.0-0.17","5d1ccc7c7e747d0016183e65","6662009ae78f21dd82fcd179","66620ba53593c91f507d652e","453","","j","","","","","","","","./tasks/HMM-beads/Images/NewTrialWC.png","lowH","1","17","1","1","1","1","true","",""
"image-keyboard-response","188","401694","0.0-3.0-6.0-1.0-1.17","5d1ccc7c7e747d0016183e65","6662009ae78f21dd82fcd179","66620ba53593c91f507d652e","null","","null","","","","","","","","./tasks/HMM-beads/Images/WhiteBeadChoice.png","","","","","","","","","",""
"image-keyboard-response","189","402205","0.0-3.0-6.0-1.0-2.17","5d1ccc7c7e747d0016183e65","6662009ae78f21dd82fcd179","66620ba53593c91f507d652e","null","","null","","","","","","","","./tasks/HMM-beads/Images/WhiteBeadChoiceCorrect.png","","","","","","","","","",""
"image-keyboard-response","190","402681","0.0-3.0-6.0-1.0-0.18","5d1ccc7c7e747d0016183e65","6662009ae78f21dd82fcd179","66620ba53593c91f507d652e","476","","j","","","","","","","","./tasks/HMM-beads/Images/NewTrialWC.png","lowH","1","18","1","1","1","1","true","",""
"image-keyboard-response","191","402997","0.0-3.0-6.0-1.0-1.18","5d1ccc7c7e747d0016183e65","6662009ae78f21dd82fcd179","66620ba53593c91f507d652e","null","","null","","","","","","","","./tasks/HMM-beads/Images/WhiteBeadChoice.png","","","","","","","","","",""
"image-keyboard-response","192","403511","0.0-3.0-6.0-1.0-2.18","5d1ccc7c7e747d0016183e65","6662009ae78f21dd82fcd179","66620ba53593c91f507d652e","null","","null","","","","","","","","./tasks/HMM-beads/Images/WhiteBeadChoiceCorrect.png","","","","","","","","","",""
"image-keyboard-response","193","403866","0.0-3.0-6.0-1.0-0.19","5d1ccc7c7e747d0016183e65","6662009ae78f21dd82fcd179","66620ba53593c91f507d652e","354","","j","","","","","","","","./tasks/HMM-beads/Images/NewTrialWC.png","lowH","1","19","1","1","1","1","true","",""
"image-keyboard-response","194","404177","0.0-3.0-6.0-1.0-1.19","5d1ccc7c7e747d0016183e65","6662009ae78f21dd82fcd179","66620ba53593c91f507d652e","null","","null","","","","","","","","./tasks/HMM-beads/Images/WhiteBeadChoice.png","","","","","","","","","",""
"image-keyboard-response","195","404691","0.0-3.0-6.0-1.0-2.19","5d1ccc7c7e747d0016183e65","6662009ae78f21dd82fcd179","66620ba53593c91f507d652e","null","","null","","","","","","","","./tasks/HMM-beads/Images/WhiteBeadChoiceCorrect.png","","","","","","","","","",""
"image-keyboard-response","196","405037","0.0-3.0-6.0-1.0-0.20","5d1ccc7c7e747d0016183e65","6662009ae78f21dd82fcd179","66620ba53593c91f507d652e","346","","j","","","","","","","","./tasks/HMM-beads/Images/NewTrialWC.png","lowH","1","20","1","1","1","1","true","",""
"image-keyboard-response","197","405357","0.0-3.0-6.0-1.0-1.20","5d1ccc7c7e747d0016183e65","6662009ae78f21dd82fcd179","66620ba53593c91f507d652e","null","","null","","","","","","","","./tasks/HMM-beads/Images/WhiteBeadChoice.png","","","","","","","","","",""
"image-keyboard-response","198","405872","0.0-3.0-6.0-1.0-2.20","5d1ccc7c7e747d0016183e65","6662009ae78f21dd82fcd179","66620ba53593c91f507d652e","null","","null","","","","","","","","./tasks/HMM-beads/Images/WhiteBeadChoiceCorrect.png","","","","","","","","","",""
"image-keyboard-response","199","406049","0.0-3.0-6.0-1.0-0.21","5d1ccc7c7e747d0016183e65","6662009ae78f21dd82fcd179","66620ba53593c91f507d652e","176","","j","","","","","","","","./tasks/HMM-beads/Images/NewTrialWC.png","lowH","1","21","1","1","1","1","true","",""
"image-keyboard-response","200","406354","0.0-3.0-6.0-1.0-1.21","5d1ccc7c7e747d0016183e65","6662009ae78f21dd82fcd179","66620ba53593c91f507d652e","null","","null","","","","","","","","./tasks/HMM-beads/Images/WhiteBeadChoice.png","","","","","","","","","",""
"image-keyboard-response","201","406869","0.0-3.0-6.0-1.0-2.21","5d1ccc7c7e747d0016183e65","6662009ae78f21dd82fcd179","66620ba53593c91f507d652e","null","","null","","","","","","","","./tasks/HMM-beads/Images/WhiteBeadChoiceCorrect.png","","","","","","","","","",""
"image-keyboard-response","202","407171","0.0-3.0-6.0-1.0-0.22","5d1ccc7c7e747d0016183e65","6662009ae78f21dd82fcd179","66620ba53593c91f507d652e","302","","j","","","","","","","","./tasks/HMM-beads/Images/NewTrialWC.png","lowH","1","22","1","1","1","1","true","",""
"image-keyboard-response","203","407488","0.0-3.0-6.0-1.0-1.22","5d1ccc7c7e747d0016183e65","6662009ae78f21dd82fcd179","66620ba53593c91f507d652e","null","","null","","","","","","","","./tasks/HMM-beads/Images/WhiteBeadChoice.png","","","","","","","","","",""
"image-keyboard-response","204","408002","0.0-3.0-6.0-1.0-2.22","5d1ccc7c7e747d0016183e65","6662009ae78f21dd82fcd179","66620ba53593c91f507d652e","null","","null","","","","","","","","./tasks/HMM-beads/Images/WhiteBeadChoiceCorrect.png","","","","","","","","","",""
"image-keyboard-response","205","408302","0.0-3.0-6.0-1.0-0.23","5d1ccc7c7e747d0016183e65","6662009ae78f21dd82fcd179","66620ba53593c91f507d652e","299","","j","","","","","","","","./tasks/HMM-beads/Images/NewTrialWC.png","lowH","1","23","1","1","1","1","true","",""
"image-keyboard-response","206","408607","0.0-3.0-6.0-1.0-1.23","5d1ccc7c7e747d0016183e65","6662009ae78f21dd82fcd179","66620ba53593c91f507d652e","null","","null","","","","","","","","./tasks/HMM-beads/Images/WhiteBeadChoice.png","","","","","","","","","",""
"image-keyboard-response","207","409120","0.0-3.0-6.0-1.0-2.23","5d1ccc7c7e747d0016183e65","6662009ae78f21dd82fcd179","66620ba53593c91f507d652e","null","","null","","","","","","","","./tasks/HMM-beads/Images/WhiteBeadChoiceCorrect.png","","","","","","","","","",""
"image-keyboard-response","208","409472","0.0-3.0-6.0-1.0-0.24","5d1ccc7c7e747d0016183e65","6662009ae78f21dd82fcd179","66620ba53593c91f507d652e","351","","j","","","","","","","","./tasks/HMM-beads/Images/NewTrialWC.png","lowH","1","24","1","0","1","1","false","",""
"image-keyboard-response","209","409773","0.0-3.0-6.0-1.0-1.24","5d1ccc7c7e747d0016183e65","6662009ae78f21dd82fcd179","66620ba53593c91f507d652e","null","","null","","","","","","","","./tasks/HMM-beads/Images/WhiteBeadChoice.png","","","","","","","","","",""
"image-keyboard-response","210","410283","0.0-3.0-6.0-1.0-2.24","5d1ccc7c7e747d0016183e65","6662009ae78f21dd82fcd179","66620ba53593c91f507d652e","null","","null","","","","","","","","./tasks/HMM-beads/Images/WhiteBeadChoiceWrong.png","","","","","","","","","",""
"image-keyboard-response","211","410699","0.0-3.0-6.0-1.0-0.25","5d1ccc7c7e747d0016183e65","6662009ae78f21dd82fcd179","66620ba53593c91f507d652e","415","","j","","","","","","","","./tasks/HMM-beads/Images/NewTrialBC.png","lowH","1","25","1","1","0","1","true","",""
"image-keyboard-response","212","411010","0.0-3.0-6.0-1.0-1.25","5d1ccc7c7e747d0016183e65","6662009ae78f21dd82fcd179","66620ba53593c91f507d652e","null","","null","","","","","","","","./tasks/HMM-beads/Images/WhiteBeadChoice.png","","","","","","","","","",""
"image-keyboard-response","213","411523","0.0-3.0-6.0-1.0-2.25","5d1ccc7c7e747d0016183e65","6662009ae78f21dd82fcd179","66620ba53593c91f507d652e","null","","null","","","","","","","","./tasks/HMM-beads/Images/WhiteBeadChoiceCorrect.png","","","","","","","","","",""
"image-keyboard-response","214","411959","0.0-3.0-6.0-1.0-0.26","5d1ccc7c7e747d0016183e65","6662009ae78f21dd82fcd179","66620ba53593c91f507d652e","435","","j","","","","","","","","./tasks/HMM-beads/Images/NewTrialWC.png","lowH","1","26","1","0","1","1","false","",""
"image-keyboard-response","215","412268","0.0-3.0-6.0-1.0-1.26","5d1ccc7c7e747d0016183e65","6662009ae78f21dd82fcd179","66620ba53593c91f507d652e","null","","null","","","","","","","","./tasks/HMM-beads/Images/WhiteBeadChoice.png","","","","","","","","","",""
"image-keyboard-response","216","412781","0.0-3.0-6.0-1.0-2.26","5d1ccc7c7e747d0016183e65","6662009ae78f21dd82fcd179","66620ba53593c91f507d652e","null","","null","","","","","","","","./tasks/HMM-beads/Images/WhiteBeadChoiceWrong.png","","","","","","","","","",""
"image-keyboard-response","217","413174","0.0-3.0-6.0-1.0-0.27","5d1ccc7c7e747d0016183e65","6662009ae78f21dd82fcd179","66620ba53593c91f507d652e","392","","j","","","","","","","","./tasks/HMM-beads/Images/NewTrialBC.png","lowH","1","27","1","1","0","1","true","",""
"image-keyboard-response","218","413480","0.0-3.0-6.0-1.0-1.27","5d1ccc7c7e747d0016183e65","6662009ae78f21dd82fcd179","66620ba53593c91f507d652e","null","","null","","","","","","","","./tasks/HMM-beads/Images/WhiteBeadChoice.png","","","","","","","","","",""
"image-keyboard-response","219","413992","0.0-3.0-6.0-1.0-2.27","5d1ccc7c7e747d0016183e65","6662009ae78f21dd82fcd179","66620ba53593c91f507d652e","null","","null","","","","","","","","./tasks/HMM-beads/Images/WhiteBeadChoiceCorrect.png","","","","","","","","","",""
"image-keyboard-response","220","414486","0.0-3.0-6.0-1.0-0.28","5d1ccc7c7e747d0016183e65","6662009ae78f21dd82fcd179","66620ba53593c91f507d652e","492","","j","","","","","","","","./tasks/HMM-beads/Images/NewTrialWC.png","lowH","1","28","1","1","1","1","true","",""
"image-keyboard-response","221","414790","0.0-3.0-6.0-1.0-1.28","5d1ccc7c7e747d0016183e65","6662009ae78f21dd82fcd179","66620ba53593c91f507d652e","null","","null","","","","","","","","./tasks/HMM-beads/Images/WhiteBeadChoice.png","","","","","","","","","",""
"image-keyboard-response","222","415303","0.0-3.0-6.0-1.0-2.28","5d1ccc7c7e747d0016183e65","6662009ae78f21dd82fcd179","66620ba53593c91f507d652e","null","","null","","","","","","","","./tasks/HMM-beads/Images/WhiteBeadChoiceCorrect.png","","","","","","","","","",""
"image-keyboard-response","223","415672","0.0-3.0-6.0-1.0-0.29","5d1ccc7c7e747d0016183e65","6662009ae78f21dd82fcd179","66620ba53593c91f507d652e","362","","j","","","","","","","","./tasks/HMM-beads/Images/NewTrialWC.png","lowH","1","29","1","1","1","1","true","",""
"image-keyboard-response","224","415987","0.0-3.0-6.0-1.0-1.29","5d1ccc7c7e747d0016183e65","6662009ae78f21dd82fcd179","66620ba53593c91f507d652e","null","","null","","","","","","","","./tasks/HMM-beads/Images/WhiteBeadChoice.png","","","","","","","","","",""
"image-keyboard-response","225","416500","0.0-3.0-6.0-1.0-2.29","5d1ccc7c7e747d0016183e65","6662009ae78f21dd82fcd179","66620ba53593c91f507d652e","null","","null","","","","","","","","./tasks/HMM-beads/Images/WhiteBeadChoiceCorrect.png","","","","","","","","","",""
"image-keyboard-response","226","416704","0.0-3.0-6.0-1.0-0.30","5d1ccc7c7e747d0016183e65","6662009ae78f21dd82fcd179","66620ba53593c91f507d652e","204","","j","","","","","","","","./tasks/HMM-beads/Images/NewTrialWC.png","lowH","1","30","1","1","1","1","true","",""
"image-keyboard-response","227","417009","0.0-3.0-6.0-1.0-1.30","5d1ccc7c7e747d0016183e65","6662009ae78f21dd82fcd179","66620ba53593c91f507d652e","null","","null","","","","","","","","./tasks/HMM-beads/Images/WhiteBeadChoice.png","","","","","","","","","",""
"image-keyboard-response","228","417519","0.0-3.0-6.0-1.0-2.30","5d1ccc7c7e747d0016183e65","6662009ae78f21dd82fcd179","66620ba53593c91f507d652e","null","","null","","","","","","","","./tasks/HMM-beads/Images/WhiteBeadChoiceCorrect.png","","","","","","","","","",""
"image-keyboard-response","229","417895","0.0-3.0-6.0-1.0-0.31","5d1ccc7c7e747d0016183e65","6662009ae78f21dd82fcd179","66620ba53593c91f507d652e","375","","j","","","","","","","","./tasks/HMM-beads/Images/NewTrialWC.png","lowH","1","31","1","1","1","1","true","",""
"image-keyboard-response","230","418206","0.0-3.0-6.0-1.0-1.31","5d1ccc7c7e747d0016183e65","6662009ae78f21dd82fcd179","66620ba53593c91f507d652e","null","","null","","","","","","","","./tasks/HMM-beads/Images/WhiteBeadChoice.png","","","","","","","","","",""
"image-keyboard-response","231","418720","0.0-3.0-6.0-1.0-2.31","5d1ccc7c7e747d0016183e65","6662009ae78f21dd82fcd179","66620ba53593c91f507d652e","null","","null","","","","","","","","./tasks/HMM-beads/Images/WhiteBeadChoiceCorrect.png","","","","","","","","","",""
"image-keyboard-response","232","419051","0.0-3.0-6.0-1.0-0.32","5d1ccc7c7e747d0016183e65","6662009ae78f21dd82fcd179","66620ba53593c91f507d652e","330","","j","","","","","","","","./tasks/HMM-beads/Images/NewTrialWC.png","lowH","1","32","1","1","1","1","true","",""
"image-keyboard-response","233","419355","0.0-3.0-6.0-1.0-1.32","5d1ccc7c7e747d0016183e65","6662009ae78f21dd82fcd179","66620ba53593c91f507d652e","null","","null","","","","","","","","./tasks/HMM-beads/Images/WhiteBeadChoice.png","","","","","","","","","",""
"image-keyboard-response","234","419869","0.0-3.0-6.0-1.0-2.32","5d1ccc7c7e747d0016183e65","6662009ae78f21dd82fcd179","66620ba53593c91f507d652e","null","","null","","","","","","","","./tasks/HMM-beads/Images/WhiteBeadChoiceCorrect.png","","","","","","","","","",""
"image-keyboard-response","235","420189","0.0-3.0-6.0-1.0-0.33","5d1ccc7c7e747d0016183e65","6662009ae78f21dd82fcd179","66620ba53593c91f507d652e","319","","j","","","","","","","","./tasks/HMM-beads/Images/NewTrialWC.png","lowH","1","33","1","1","1","1","true","",""
"image-keyboard-response","236","420510","0.0-3.0-6.0-1.0-1.33","5d1ccc7c7e747d0016183e65","6662009ae78f21dd82fcd179","66620ba53593c91f507d652e","null","","null","","","","","","","","./tasks/HMM-beads/Images/WhiteBeadChoice.png","","","","","","","","","",""
"image-keyboard-response","237","421022","0.0-3.0-6.0-1.0-2.33","5d1ccc7c7e747d0016183e65","6662009ae78f21dd82fcd179","66620ba53593c91f507d652e","null","","null","","","","","","","","./tasks/HMM-beads/Images/WhiteBeadChoiceCorrect.png","","","","","","","","","",""
"image-keyboard-response","238","421348","0.0-3.0-6.0-1.0-0.34","5d1ccc7c7e747d0016183e65","6662009ae78f21dd82fcd179","66620ba53593c91f507d652e","325","","j","","","","","","","","./tasks/HMM-beads/Images/NewTrialWC.png","lowH","1","34","1","1","1","1","true","",""
"image-keyboard-response","239","421659","0.0-3.0-6.0-1.0-1.34","5d1ccc7c7e747d0016183e65","6662009ae78f21dd82fcd179","66620ba53593c91f507d652e","null","","null","","","","","","","","./tasks/HMM-beads/Images/WhiteBeadChoice.png","","","","","","","","","",""
"image-keyboard-response","240","422170","0.0-3.0-6.0-1.0-2.34","5d1ccc7c7e747d0016183e65","6662009ae78f21dd82fcd179","66620ba53593c91f507d652e","null","","null","","","","","","","","./tasks/HMM-beads/Images/WhiteBeadChoiceCorrect.png","","","","","","","","","",""
"image-keyboard-response","241","422586","0.0-3.0-6.0-1.0-0.35","5d1ccc7c7e747d0016183e65","6662009ae78f21dd82fcd179","66620ba53593c91f507d652e","415","","j","","","","","","","","./tasks/HMM-beads/Images/NewTrialWC.png","lowH","1","35","1","1","1","1","true","",""
"image-keyboard-response","242","422899","0.0-3.0-6.0-1.0-1.35","5d1ccc7c7e747d0016183e65","6662009ae78f21dd82fcd179","66620ba53593c91f507d652e","null","","null","","","","","","","","./tasks/HMM-beads/Images/WhiteBeadChoice.png","","","","","","","","","",""
"image-keyboard-response","243","423413","0.0-3.0-6.0-1.0-2.35","5d1ccc7c7e747d0016183e65","6662009ae78f21dd82fcd179","66620ba53593c91f507d652e","null","","null","","","","","","","","./tasks/HMM-beads/Images/WhiteBeadChoiceCorrect.png","","","","","","","","","",""
"image-keyboard-response","244","424010","0.0-3.0-6.0-1.0-0.36","5d1ccc7c7e747d0016183e65","6662009ae78f21dd82fcd179","66620ba53593c91f507d652e","597","","j","","","","","","","","./tasks/HMM-beads/Images/NewTrialWC.png","lowH","1","36","1","1","1","1","true","",""
"image-keyboard-response","245","424312","0.0-3.0-6.0-1.0-1.36","5d1ccc7c7e747d0016183e65","6662009ae78f21dd82fcd179","66620ba53593c91f507d652e","null","","null","","","","","","","","./tasks/HMM-beads/Images/WhiteBeadChoice.png","","","","","","","","","",""
"image-keyboard-response","246","424825","0.0-3.0-6.0-1.0-2.36","5d1ccc7c7e747d0016183e65","6662009ae78f21dd82fcd179","66620ba53593c91f507d652e","null","","null","","","","","","","","./tasks/HMM-beads/Images/WhiteBeadChoiceCorrect.png","","","","","","","","","",""
"image-keyboard-response","247","425713","0.0-3.0-6.0-1.0-0.37","5d1ccc7c7e747d0016183e65","6662009ae78f21dd82fcd179","66620ba53593c91f507d652e","887","","j","","","","","","","","./tasks/HMM-beads/Images/NewTrialWC.png","lowH","1","37","1","1","1","1","true","",""
"image-keyboard-response","248","426021","0.0-3.0-6.0-1.0-1.37","5d1ccc7c7e747d0016183e65","6662009ae78f21dd82fcd179","66620ba53593c91f507d652e","null","","null","","","","","","","","./tasks/HMM-beads/Images/WhiteBeadChoice.png","","","","","","","","","",""
"image-keyboard-response","249","426532","0.0-3.0-6.0-1.0-2.37","5d1ccc7c7e747d0016183e65","6662009ae78f21dd82fcd179","66620ba53593c91f507d652e","null","","null","","","","","","","","./tasks/HMM-beads/Images/WhiteBeadChoiceCorrect.png","","","","","","","","","",""
"image-keyboard-response","250","427202","0.0-3.0-6.0-1.0-0.38","5d1ccc7c7e747d0016183e65","6662009ae78f21dd82fcd179","66620ba53593c91f507d652e","669","","j","","","","","","","","./tasks/HMM-beads/Images/NewTrialWC.png","lowH","1","38","1","1","1","1","true","",""
"image-keyboard-response","251","427514","0.0-3.0-6.0-1.0-1.38","5d1ccc7c7e747d0016183e65","6662009ae78f21dd82fcd179","66620ba53593c91f507d652e","null","","null","","","","","","","","./tasks/HMM-beads/Images/WhiteBeadChoice.png","","","","","","","","","",""
"image-keyboard-response","252","428027","0.0-3.0-6.0-1.0-2.38","5d1ccc7c7e747d0016183e65","6662009ae78f21dd82fcd179","66620ba53593c91f507d652e","null","","null","","","","","","","","./tasks/HMM-beads/Images/WhiteBeadChoiceCorrect.png","","","","","","","","","",""
"image-keyboard-response","253","428744","0.0-3.0-6.0-1.0-0.39","5d1ccc7c7e747d0016183e65","6662009ae78f21dd82fcd179","66620ba53593c91f507d652e","716","","j","","","","","","","","./tasks/HMM-beads/Images/NewTrialWC.png","lowH","1","39","1","1","1","1","true","",""
"image-keyboard-response","254","429051","0.0-3.0-6.0-1.0-1.39","5d1ccc7c7e747d0016183e65","6662009ae78f21dd82fcd179","66620ba53593c91f507d652e","null","","null","","","","","","","","./tasks/HMM-beads/Images/WhiteBeadChoice.png","","","","","","","","","",""
"image-keyboard-response","255","429567","0.0-3.0-6.0-1.0-2.39","5d1ccc7c7e747d0016183e65","6662009ae78f21dd82fcd179","66620ba53593c91f507d652e","null","","null","","","","","","","","./tasks/HMM-beads/Images/WhiteBeadChoiceCorrect.png","","","","","","","","","",""
"image-keyboard-response","256","429788","0.0-3.0-6.0-1.0-0.40","5d1ccc7c7e747d0016183e65","6662009ae78f21dd82fcd179","66620ba53593c91f507d652e","221","","j","","","","","","","","./tasks/HMM-beads/Images/NewTrialWC.png","lowH","1","40","1","1","1","1","true","",""
"image-keyboard-response","257","430095","0.0-3.0-6.0-1.0-1.40","5d1ccc7c7e747d0016183e65","6662009ae78f21dd82fcd179","66620ba53593c91f507d652e","null","","null","","","","","","","","./tasks/HMM-beads/Images/WhiteBeadChoice.png","","","","","","","","","",""
"image-keyboard-response","258","430608","0.0-3.0-6.0-1.0-2.40","5d1ccc7c7e747d0016183e65","6662009ae78f21dd82fcd179","66620ba53593c91f507d652e","null","","null","","","","","","","","./tasks/HMM-beads/Images/WhiteBeadChoiceCorrect.png","","","","","","","","","",""
"image-keyboard-response","259","430892","0.0-3.0-6.0-1.0-0.41","5d1ccc7c7e747d0016183e65","6662009ae78f21dd82fcd179","66620ba53593c91f507d652e","283","","j","","","","","","","","./tasks/HMM-beads/Images/NewTrialWC.png","lowH","1","41","1","1","1","1","true","",""
"image-keyboard-response","260","431199","0.0-3.0-6.0-1.0-1.41","5d1ccc7c7e747d0016183e65","6662009ae78f21dd82fcd179","66620ba53593c91f507d652e","null","","null","","","","","","","","./tasks/HMM-beads/Images/WhiteBeadChoice.png","","","","","","","","","",""
"image-keyboard-response","261","431711","0.0-3.0-6.0-1.0-2.41","5d1ccc7c7e747d0016183e65","6662009ae78f21dd82fcd179","66620ba53593c91f507d652e","null","","null","","","","","","","","./tasks/HMM-beads/Images/WhiteBeadChoiceCorrect.png","","","","","","","","","",""
"image-keyboard-response","262","432075","0.0-3.0-6.0-1.0-0.42","5d1ccc7c7e747d0016183e65","6662009ae78f21dd82fcd179","66620ba53593c91f507d652e","363","","j","","","","","","","","./tasks/HMM-beads/Images/NewTrialWC.png","lowH","1","42","1","1","1","1","true","",""
"image-keyboard-response","263","432391","0.0-3.0-6.0-1.0-1.42","5d1ccc7c7e747d0016183e65","6662009ae78f21dd82fcd179","66620ba53593c91f507d652e","null","","null","","","","","","","","./tasks/HMM-beads/Images/WhiteBeadChoice.png","","","","","","","","","",""
"image-keyboard-response","264","432903","0.0-3.0-6.0-1.0-2.42","5d1ccc7c7e747d0016183e65","6662009ae78f21dd82fcd179","66620ba53593c91f507d652e","null","","null","","","","","","","","./tasks/HMM-beads/Images/WhiteBeadChoiceCorrect.png","","","","","","","","","",""
"image-keyboard-response","265","433185","0.0-3.0-6.0-1.0-0.43","5d1ccc7c7e747d0016183e65","6662009ae78f21dd82fcd179","66620ba53593c91f507d652e","281","","j","","","","","","","","./tasks/HMM-beads/Images/NewTrialWC.png","lowH","1","43","1","1","1","1","true","",""
"image-keyboard-response","266","433494","0.0-3.0-6.0-1.0-1.43","5d1ccc7c7e747d0016183e65","6662009ae78f21dd82fcd179","66620ba53593c91f507d652e","null","","null","","","","","","","","./tasks/HMM-beads/Images/WhiteBeadChoice.png","","","","","","","","","",""
"image-keyboard-response","267","434008","0.0-3.0-6.0-1.0-2.43","5d1ccc7c7e747d0016183e65","6662009ae78f21dd82fcd179","66620ba53593c91f507d652e","null","","null","","","","","","","","./tasks/HMM-beads/Images/WhiteBeadChoiceCorrect.png","","","","","","","","","",""
"image-keyboard-response","268","434224","0.0-3.0-6.0-1.0-0.44","5d1ccc7c7e747d0016183e65","6662009ae78f21dd82fcd179","66620ba53593c91f507d652e","216","","j","","","","","","","","./tasks/HMM-beads/Images/NewTrialWC.png","lowH","1","44","1","1","1","1","true","",""
"image-keyboard-response","269","434538","0.0-3.0-6.0-1.0-1.44","5d1ccc7c7e747d0016183e65","6662009ae78f21dd82fcd179","66620ba53593c91f507d652e","null","","null","","","","","","","","./tasks/HMM-beads/Images/WhiteBeadChoice.png","","","","","","","","","",""
"image-keyboard-response","270","435049","0.0-3.0-6.0-1.0-2.44","5d1ccc7c7e747d0016183e65","6662009ae78f21dd82fcd179","66620ba53593c91f507d652e","null","","null","","","","","","","","./tasks/HMM-beads/Images/WhiteBeadChoiceCorrect.png","","","","","","","","","",""
"image-keyboard-response","271","435381","0.0-3.0-6.0-1.0-0.45","5d1ccc7c7e747d0016183e65","6662009ae78f21dd82fcd179","66620ba53593c91f507d652e","331","","j","","","","","","","","./tasks/HMM-beads/Images/NewTrialWC.png","lowH","1","45","1","1","1","1","true","",""
"image-keyboard-response","272","435683","0.0-3.0-6.0-1.0-1.45","5d1ccc7c7e747d0016183e65","6662009ae78f21dd82fcd179","66620ba53593c91f507d652e","null","","null","","","","","","","","./tasks/HMM-beads/Images/WhiteBeadChoice.png","","","","","","","","","",""
"image-keyboard-response","273","436196","0.0-3.0-6.0-1.0-2.45","5d1ccc7c7e747d0016183e65","6662009ae78f21dd82fcd179","66620ba53593c91f507d652e","null","","null","","","","","","","","./tasks/HMM-beads/Images/WhiteBeadChoiceCorrect.png","","","","","","","","","",""
"image-keyboard-response","274","436525","0.0-3.0-6.0-1.0-0.46","5d1ccc7c7e747d0016183e65","6662009ae78f21dd82fcd179","66620ba53593c91f507d652e","328","","j","","","","","","","","./tasks/HMM-beads/Images/NewTrialWC.png","lowH","1","46","1","1","1","1","true","",""
"image-keyboard-response","275","436832","0.0-3.0-6.0-1.0-1.46","5d1ccc7c7e747d0016183e65","6662009ae78f21dd82fcd179","66620ba53593c91f507d652e","null","","null","","","","","","","","./tasks/HMM-beads/Images/WhiteBeadChoice.png","","","","","","","","","",""
"image-keyboard-response","276","437345","0.0-3.0-6.0-1.0-2.46","5d1ccc7c7e747d0016183e65","6662009ae78f21dd82fcd179","66620ba53593c91f507d652e","null","","null","","","","","","","","./tasks/HMM-beads/Images/WhiteBeadChoiceCorrect.png","","","","","","","","","",""
"image-keyboard-response","277","437603","0.0-3.0-6.0-1.0-0.47","5d1ccc7c7e747d0016183e65","6662009ae78f21dd82fcd179","66620ba53593c91f507d652e","257","","j","","","","","","","","./tasks/HMM-beads/Images/NewTrialWC.png","lowH","1","47","1","0","1","1","false","",""
"image-keyboard-response","278","437904","0.0-3.0-6.0-1.0-1.47","5d1ccc7c7e747d0016183e65","6662009ae78f21dd82fcd179","66620ba53593c91f507d652e","null","","null","","","","","","","","./tasks/HMM-beads/Images/WhiteBeadChoice.png","","","","","","","","","",""
"image-keyboard-response","279","438416","0.0-3.0-6.0-1.0-2.47","5d1ccc7c7e747d0016183e65","6662009ae78f21dd82fcd179","66620ba53593c91f507d652e","null","","null","","","","","","","","./tasks/HMM-beads/Images/WhiteBeadChoiceWrong.png","","","","","","","","","",""
"image-keyboard-response","280","438750","0.0-3.0-6.0-1.0-0.48","5d1ccc7c7e747d0016183e65","6662009ae78f21dd82fcd179","66620ba53593c91f507d652e","333","","j","","","","","","","","./tasks/HMM-beads/Images/NewTrialBC.png","lowH","1","48","1","0","0","1","false","",""
"image-keyboard-response","281","439053","0.0-3.0-6.0-1.0-1.48","5d1ccc7c7e747d0016183e65","6662009ae78f21dd82fcd179","66620ba53593c91f507d652e","null","","null","","","","","","","","./tasks/HMM-beads/Images/WhiteBeadChoice.png","","","","","","","","","",""
"image-keyboard-response","282","439566","0.0-3.0-6.0-1.0-2.48","5d1ccc7c7e747d0016183e65","6662009ae78f21dd82fcd179","66620ba53593c91f507d652e","null","","null","","","","","","","","./tasks/HMM-beads/Images/WhiteBeadChoiceWrong.png","","","","","","","","","",""
"image-keyboard-response","283","440686","0.0-3.0-6.0-1.0-0.49","5d1ccc7c7e747d0016183e65","6662009ae78f21dd82fcd179","66620ba53593c91f507d652e","1119","","j","","","","","","","","./tasks/HMM-beads/Images/NewTrialBC.png","lowH","1","49","1","0","0","1","false","",""
"image-keyboard-response","284","440991","0.0-3.0-6.0-1.0-1.49","5d1ccc7c7e747d0016183e65","6662009ae78f21dd82fcd179","66620ba53593c91f507d652e","null","","null","","","","","","","","./tasks/HMM-beads/Images/WhiteBeadChoice.png","","","","","","","","","",""
"image-keyboard-response","285","441503","0.0-3.0-6.0-1.0-2.49","5d1ccc7c7e747d0016183e65","6662009ae78f21dd82fcd179","66620ba53593c91f507d652e","null","","null","","","","","","","","./tasks/HMM-beads/Images/WhiteBeadChoiceWrong.png","","","","","","","","","",""
"image-keyboard-response","286","443073","0.0-3.0-6.0-1.0-0.50","5d1ccc7c7e747d0016183e65","6662009ae78f21dd82fcd179","66620ba53593c91f507d652e","1569","","f","","","","","","","","./tasks/HMM-beads/Images/NewTrialBC.png","lowH","1","50","1","1","0","0","false","",""
"image-keyboard-response","287","443381","0.0-3.0-6.0-1.0-1.50","5d1ccc7c7e747d0016183e65","6662009ae78f21dd82fcd179","66620ba53593c91f507d652e","null","","null","","","","","","","","./tasks/HMM-beads/Images/BlackBeadChoice.png","","","","","","","","","",""
"image-keyboard-response","288","443894","0.0-3.0-6.0-1.0-2.50","5d1ccc7c7e747d0016183e65","6662009ae78f21dd82fcd179","66620ba53593c91f507d652e","null","","null","","","","","","","","./tasks/HMM-beads/Images/BlackBeadChoiceWrong.png","","","","","","","","","",""
"image-keyboard-response","289","444269","0.0-3.0-6.0-1.0-0.51","5d1ccc7c7e747d0016183e65","6662009ae78f21dd82fcd179","66620ba53593c91f507d652e","374","","f","","","","","","","","./tasks/HMM-beads/Images/NewTrialWC.png","lowH","1","51","1","1","1","0","false","",""
"image-keyboard-response","290","444576","0.0-3.0-6.0-1.0-1.51","5d1ccc7c7e747d0016183e65","6662009ae78f21dd82fcd179","66620ba53593c91f507d652e","null","","null","","","","","","","","./tasks/HMM-beads/Images/BlackBeadChoice.png","","","","","","","","","",""
"image-keyboard-response","291","445086","0.0-3.0-6.0-1.0-2.51","5d1ccc7c7e747d0016183e65","6662009ae78f21dd82fcd179","66620ba53593c91f507d652e","null","","null","","","","","","","","./tasks/HMM-beads/Images/BlackBeadChoiceWrong.png","","","","","","","","","",""
"image-keyboard-response","292","445875","0.0-3.0-6.0-1.0-0.52","5d1ccc7c7e747d0016183e65","6662009ae78f21dd82fcd179","66620ba53593c91f507d652e","788","","f","","","","","","","","./tasks/HMM-beads/Images/NewTrialWC.png","lowH","1","52","1","1","1","0","false","",""
"image-keyboard-response","293","446190","0.0-3.0-6.0-1.0-1.52","5d1ccc7c7e747d0016183e65","6662009ae78f21dd82fcd179","66620ba53593c91f507d652e","null","","null","","","","","","","","./tasks/HMM-beads/Images/BlackBeadChoice.png","","","","","","","","","",""
"image-keyboard-response","294","446700","0.0-3.0-6.0-1.0-2.52","5d1ccc7c7e747d0016183e65","6662009ae78f21dd82fcd179","66620ba53593c91f507d652e","null","","null","","","","","","","","./tasks/HMM-beads/Images/BlackBeadChoiceWrong.png","","","","","","","","","",""
"image-keyboard-response","295","447123","0.0-3.0-6.0-1.0-0.53","5d1ccc7c7e747d0016183e65","6662009ae78f21dd82fcd179","66620ba53593c91f507d652e","422","","j","","","","","","","","./tasks/HMM-beads/Images/NewTrialWC.png","lowH","1","53","1","1","1","1","true","",""
"image-keyboard-response","296","447429","0.0-3.0-6.0-1.0-1.53","5d1ccc7c7e747d0016183e65","6662009ae78f21dd82fcd179","66620ba53593c91f507d652e","null","","null","","","","","","","","./tasks/HMM-beads/Images/WhiteBeadChoice.png","","","","","","","","","",""
"image-keyboard-response","297","447941","0.0-3.0-6.0-1.0-2.53","5d1ccc7c7e747d0016183e65","6662009ae78f21dd82fcd179","66620ba53593c91f507d652e","null","","null","","","","","","","","./tasks/HMM-beads/Images/WhiteBeadChoiceCorrect.png","","","","","","","","","",""
"image-keyboard-response","298","448415","0.0-3.0-6.0-1.0-0.54","5d1ccc7c7e747d0016183e65","6662009ae78f21dd82fcd179","66620ba53593c91f507d652e","473","","j","","","","","","","","./tasks/HMM-beads/Images/NewTrialWC.png","lowH","1","54","1","1","1","1","true","",""
"image-keyboard-response","299","448721","0.0-3.0-6.0-1.0-1.54","5d1ccc7c7e747d0016183e65","6662009ae78f21dd82fcd179","66620ba53593c91f507d652e","null","","null","","","","","","","","./tasks/HMM-beads/Images/WhiteBeadChoice.png","","","","","","","","","",""
"image-keyboard-response","300","449236","0.0-3.0-6.0-1.0-2.54","5d1ccc7c7e747d0016183e65","6662009ae78f21dd82fcd179","66620ba53593c91f507d652e","null","","null","","","","","","","","./tasks/HMM-beads/Images/WhiteBeadChoiceCorrect.png","","","","","","","","","",""
"image-keyboard-response","301","449542","0.0-3.0-6.0-1.0-0.55","5d1ccc7c7e747d0016183e65","6662009ae78f21dd82fcd179","66620ba53593c91f507d652e","304","","j","","","","","","","","./tasks/HMM-beads/Images/NewTrialWC.png","lowH","1","55","1","1","1","1","true","",""
"image-keyboard-response","302","449858","0.0-3.0-6.0-1.0-1.55","5d1ccc7c7e747d0016183e65","6662009ae78f21dd82fcd179","66620ba53593c91f507d652e","null","","null","","","","","","","","./tasks/HMM-beads/Images/WhiteBeadChoice.png","","","","","","","","","",""
"image-keyboard-response","303","450372","0.0-3.0-6.0-1.0-2.55","5d1ccc7c7e747d0016183e65","6662009ae78f21dd82fcd179","66620ba53593c91f507d652e","null","","null","","","","","","","","./tasks/HMM-beads/Images/WhiteBeadChoiceCorrect.png","","","","","","","","","",""
"image-keyboard-response","304","450959","0.0-3.0-6.0-1.0-0.56","5d1ccc7c7e747d0016183e65","6662009ae78f21dd82fcd179","66620ba53593c91f507d652e","587","","j","","","","","","","","./tasks/HMM-beads/Images/NewTrialWC.png","lowH","1","56","1","1","1","1","true","",""
"image-keyboard-response","305","451273","0.0-3.0-6.0-1.0-1.56","5d1ccc7c7e747d0016183e65","6662009ae78f21dd82fcd179","66620ba53593c91f507d652e","null","","null","","","","","","","","./tasks/HMM-beads/Images/WhiteBeadChoice.png","","","","","","","","","",""
"image-keyboard-response","306","451787","0.0-3.0-6.0-1.0-2.56","5d1ccc7c7e747d0016183e65","6662009ae78f21dd82fcd179","66620ba53593c91f507d652e","null","","null","","","","","","","","./tasks/HMM-beads/Images/WhiteBeadChoiceCorrect.png","","","","","","","","","",""
"image-keyboard-response","307","455492","0.0-3.0-6.0-1.0-0.57","5d1ccc7c7e747d0016183e65","6662009ae78f21dd82fcd179","66620ba53593c91f507d652e","3704","","j","","","","","","","","./tasks/HMM-beads/Images/NewTrialWC.png","lowH","1","57","1","1","1","1","true","",""
"image-keyboard-response","308","455802","0.0-3.0-6.0-1.0-1.57","5d1ccc7c7e747d0016183e65","6662009ae78f21dd82fcd179","66620ba53593c91f507d652e","null","","null","","","","","","","","./tasks/HMM-beads/Images/WhiteBeadChoice.png","","","","","","","","","",""
"image-keyboard-response","309","456315","0.0-3.0-6.0-1.0-2.57","5d1ccc7c7e747d0016183e65","6662009ae78f21dd82fcd179","66620ba53593c91f507d652e","null","","null","","","","","","","","./tasks/HMM-beads/Images/WhiteBeadChoiceCorrect.png","","","","","","","","","",""
"image-keyboard-response","310","458547","0.0-3.0-6.0-1.0-0.58","5d1ccc7c7e747d0016183e65","6662009ae78f21dd82fcd179","66620ba53593c91f507d652e","2231","","j","","","","","","","","./tasks/HMM-beads/Images/NewTrialWC.png","lowH","1","58","1","1","1","1","true","",""
"image-keyboard-response","311","458849","0.0-3.0-6.0-1.0-1.58","5d1ccc7c7e747d0016183e65","6662009ae78f21dd82fcd179","66620ba53593c91f507d652e","null","","null","","","","","","","","./tasks/HMM-beads/Images/WhiteBeadChoice.png","","","","","","","","","",""
"image-keyboard-response","312","459359","0.0-3.0-6.0-1.0-2.58","5d1ccc7c7e747d0016183e65","6662009ae78f21dd82fcd179","66620ba53593c91f507d652e","null","","null","","","","","","","","./tasks/HMM-beads/Images/WhiteBeadChoiceCorrect.png","","","","","","","","","",""
"image-keyboard-response","313","460186","0.0-3.0-6.0-1.0-0.59","5d1ccc7c7e747d0016183e65","6662009ae78f21dd82fcd179","66620ba53593c91f507d652e","826","","j","","","","","","","","./tasks/HMM-beads/Images/NewTrialWC.png","lowH","1","59","1","0","1","1","false","",""
"image-keyboard-response","314","460501","0.0-3.0-6.0-1.0-1.59","5d1ccc7c7e747d0016183e65","6662009ae78f21dd82fcd179","66620ba53593c91f507d652e","null","","null","","","","","","","","./tasks/HMM-beads/Images/WhiteBeadChoice.png","","","","","","","","","",""
"image-keyboard-response","315","461015","0.0-3.0-6.0-1.0-2.59","5d1ccc7c7e747d0016183e65","6662009ae78f21dd82fcd179","66620ba53593c91f507d652e","null","","null","","","","","","","","./tasks/HMM-beads/Images/WhiteBeadChoiceWrong.png","","","","","","","","","",""
"image-keyboard-response","316","466682","0.0-3.0-6.0-1.0-0.60","5d1ccc7c7e747d0016183e65","6662009ae78f21dd82fcd179","66620ba53593c91f507d652e","5666","","j","","","","","","","","./tasks/HMM-beads/Images/NewTrialBC.png","lowH","1","60","1","1","0","1","true","",""
"image-keyboard-response","317","466989","0.0-3.0-6.0-1.0-1.60","5d1ccc7c7e747d0016183e65","6662009ae78f21dd82fcd179","66620ba53593c91f507d652e","null","","null","","","","","","","","./tasks/HMM-beads/Images/WhiteBeadChoice.png","","","","","","","","","",""
"image-keyboard-response","318","467501","0.0-3.0-6.0-1.0-2.60","5d1ccc7c7e747d0016183e65","6662009ae78f21dd82fcd179","66620ba53593c91f507d652e","null","","null","","","","","","","","./tasks/HMM-beads/Images/WhiteBeadChoiceCorrect.png","","","","","","","","","",""
"image-keyboard-response","319","467862","0.0-3.0-6.0-1.0-0.61","5d1ccc7c7e747d0016183e65","6662009ae78f21dd82fcd179","66620ba53593c91f507d652e","361","","j","","","","","","","","./tasks/HMM-beads/Images/NewTrialWC.png","lowH","1","61","1","1","1","1","true","",""
"image-keyboard-response","320","468170","0.0-3.0-6.0-1.0-1.61","5d1ccc7c7e747d0016183e65","6662009ae78f21dd82fcd179","66620ba53593c91f507d652e","null","","null","","","","","","","","./tasks/HMM-beads/Images/WhiteBeadChoice.png","","","","","","","","","",""
"image-keyboard-response","321","468679","0.0-3.0-6.0-1.0-2.61","5d1ccc7c7e747d0016183e65","6662009ae78f21dd82fcd179","66620ba53593c91f507d652e","null","","null","","","","","","","","./tasks/HMM-beads/Images/WhiteBeadChoiceCorrect.png","","","","","","","","","",""
"image-keyboard-response","322","470103","0.0-3.0-6.0-1.0-0.62","5d1ccc7c7e747d0016183e65","6662009ae78f21dd82fcd179","66620ba53593c91f507d652e","1423","","f","","","","","","","","./tasks/HMM-beads/Images/NewTrialWC.png","lowH","1","62","1","0","1","0","true","",""
"image-keyboard-response","323","470418","0.0-3.0-6.0-1.0-1.62","5d1ccc7c7e747d0016183e65","6662009ae78f21dd82fcd179","66620ba53593c91f507d652e","null","","null","","","","","","","","./tasks/HMM-beads/Images/BlackBeadChoice.png","","","","","","","","","",""
"image-keyboard-response","324","470929","0.0-3.0-6.0-1.0-2.62","5d1ccc7c7e747d0016183e65","6662009ae78f21dd82fcd179","66620ba53593c91f507d652e","null","","null","","","","","","","","./tasks/HMM-beads/Images/BlackBeadChoiceCorrect.png","","","","","","","","","",""
"image-keyboard-response","325","474569","0.0-3.0-6.0-1.0-0.63","5d1ccc7c7e747d0016183e65","6662009ae78f21dd82fcd179","66620ba53593c91f507d652e","3640","","j","","","","","","","","./tasks/HMM-beads/Images/NewTrialBC.png","lowH","1","63","1","1","0","1","true","",""
"image-keyboard-response","326","474875","0.0-3.0-6.0-1.0-1.63","5d1ccc7c7e747d0016183e65","6662009ae78f21dd82fcd179","66620ba53593c91f507d652e","null","","null","","","","","","","","./tasks/HMM-beads/Images/WhiteBeadChoice.png","","","","","","","","","",""
"image-keyboard-response","327","475389","0.0-3.0-6.0-1.0-2.63","5d1ccc7c7e747d0016183e65","6662009ae78f21dd82fcd179","66620ba53593c91f507d652e","null","","null","","","","","","","","./tasks/HMM-beads/Images/WhiteBeadChoiceCorrect.png","","","","","","","","","",""
"image-keyboard-response","328","476474","0.0-3.0-6.0-1.0-0.64","5d1ccc7c7e747d0016183e65","6662009ae78f21dd82fcd179","66620ba53593c91f507d652e","1084","","f","","","","","","","","./tasks/HMM-beads/Images/NewTrialWC.png","lowH","1","64","1","1","1","0","false","",""
"image-keyboard-response","329","476781","0.0-3.0-6.0-1.0-1.64","5d1ccc7c7e747d0016183e65","6662009ae78f21dd82fcd179","66620ba53593c91f507d652e","null","","null","","","","","","","","./tasks/HMM-beads/Images/BlackBeadChoice.png","","","","","","","","","",""
"image-keyboard-response","330","477292","0.0-3.0-6.0-1.0-2.64","5d1ccc7c7e747d0016183e65","6662009ae78f21dd82fcd179","66620ba53593c91f507d652e","null","","null","","","","","","","","./tasks/HMM-beads/Images/BlackBeadChoiceWrong.png","","","","","","","","","",""
"image-keyboard-response","331","477690","0.0-3.0-6.0-1.0-0.65","5d1ccc7c7e747d0016183e65","6662009ae78f21dd82fcd179","66620ba53593c91f507d652e","397","","f","","","","","","","","./tasks/HMM-beads/Images/NewTrialWC.png","lowH","1","65","1","1","1","0","false","",""
"image-keyboard-response","332","478006","0.0-3.0-6.0-1.0-1.65","5d1ccc7c7e747d0016183e65","6662009ae78f21dd82fcd179","66620ba53593c91f507d652e","null","","null","","","","","","","","./tasks/HMM-beads/Images/BlackBeadChoice.png","","","","","","","","","",""
"image-keyboard-response","333","478520","0.0-3.0-6.0-1.0-2.65","5d1ccc7c7e747d0016183e65","6662009ae78f21dd82fcd179","66620ba53593c91f507d652e","null","","null","","","","","","","","./tasks/HMM-beads/Images/BlackBeadChoiceWrong.png","","","","","","","","","",""
"image-keyboard-response","334","478979","0.0-3.0-6.0-1.0-0.66","5d1ccc7c7e747d0016183e65","6662009ae78f21dd82fcd179","66620ba53593c91f507d652e","459","","f","","","","","","","","./tasks/HMM-beads/Images/NewTrialWC.png","lowH","1","66","1","1","1","0","false","",""
"image-keyboard-response","335","479282","0.0-3.0-6.0-1.0-1.66","5d1ccc7c7e747d0016183e65","6662009ae78f21dd82fcd179","66620ba53593c91f507d652e","null","","null","","","","","","","","./tasks/HMM-beads/Images/BlackBeadChoice.png","","","","","","","","","",""
"image-keyboard-response","336","479795","0.0-3.0-6.0-1.0-2.66","5d1ccc7c7e747d0016183e65","6662009ae78f21dd82fcd179","66620ba53593c91f507d652e","null","","null","","","","","","","","./tasks/HMM-beads/Images/BlackBeadChoiceWrong.png","","","","","","","","","",""
"image-keyboard-response","337","480246","0.0-3.0-6.0-1.0-0.67","5d1ccc7c7e747d0016183e65","6662009ae78f21dd82fcd179","66620ba53593c91f507d652e","450","","f","","","","","","","","./tasks/HMM-beads/Images/NewTrialWC.png","lowH","1","67","1","0","1","0","true","",""
"image-keyboard-response","338","480558","0.0-3.0-6.0-1.0-1.67","5d1ccc7c7e747d0016183e65","6662009ae78f21dd82fcd179","66620ba53593c91f507d652e","null","","null","","","","","","","","./tasks/HMM-beads/Images/BlackBeadChoice.png","","","","","","","","","",""
"image-keyboard-response","339","481070","0.0-3.0-6.0-1.0-2.67","5d1ccc7c7e747d0016183e65","6662009ae78f21dd82fcd179","66620ba53593c91f507d652e","null","","null","","","","","","","","./tasks/HMM-beads/Images/BlackBeadChoiceCorrect.png","","","","","","","","","",""
"image-keyboard-response","340","482184","0.0-3.0-6.0-1.0-0.68","5d1ccc7c7e747d0016183e65","6662009ae78f21dd82fcd179","66620ba53593c91f507d652e","1113","","j","","","","","","","","./tasks/HMM-beads/Images/NewTrialBC.png","lowH","1","68","1","1","0","1","true","",""
"image-keyboard-response","341","482491","0.0-3.0-6.0-1.0-1.68","5d1ccc7c7e747d0016183e65","6662009ae78f21dd82fcd179","66620ba53593c91f507d652e","null","","null","","","","","","","","./tasks/HMM-beads/Images/WhiteBeadChoice.png","","","","","","","","","",""
"image-keyboard-response","342","483001","0.0-3.0-6.0-1.0-2.68","5d1ccc7c7e747d0016183e65","6662009ae78f21dd82fcd179","66620ba53593c91f507d652e","null","","null","","","","","","","","./tasks/HMM-beads/Images/WhiteBeadChoiceCorrect.png","","","","","","","","","",""
"image-keyboard-response","343","484863","0.0-3.0-6.0-1.0-0.69","5d1ccc7c7e747d0016183e65","6662009ae78f21dd82fcd179","66620ba53593c91f507d652e","1861","","j","","","","","","","","./tasks/HMM-beads/Images/NewTrialWC.png","lowH","1","69","0","1","1","1","true","",""
"image-keyboard-response","344","485178","0.0-3.0-6.0-1.0-1.69","5d1ccc7c7e747d0016183e65","6662009ae78f21dd82fcd179","66620ba53593c91f507d652e","null","","null","","","","","","","","./tasks/HMM-beads/Images/WhiteBeadChoice.png","","","","","","","","","",""
"image-keyboard-response","345","485689","0.0-3.0-6.0-1.0-2.69","5d1ccc7c7e747d0016183e65","6662009ae78f21dd82fcd179","66620ba53593c91f507d652e","null","","null","","","","","","","","./tasks/HMM-beads/Images/WhiteBeadChoiceCorrect.png","","","","","","","","","",""
"image-keyboard-response","346","485955","0.0-3.0-6.0-1.0-0.70","5d1ccc7c7e747d0016183e65","6662009ae78f21dd82fcd179","66620ba53593c91f507d652e","265","","f","","","","","","","","./tasks/HMM-beads/Images/NewTrialWC.png","lowH","1","70","0","1","1","0","false","",""
"image-keyboard-response","347","486261","0.0-3.0-6.0-1.0-1.70","5d1ccc7c7e747d0016183e65","6662009ae78f21dd82fcd179","66620ba53593c91f507d652e","null","","null","","","","","","","","./tasks/HMM-beads/Images/BlackBeadChoice.png","","","","","","","","","",""
"image-keyboard-response","348","486772","0.0-3.0-6.0-1.0-2.70","5d1ccc7c7e747d0016183e65","6662009ae78f21dd82fcd179","66620ba53593c91f507d652e","null","","null","","","","","","","","./tasks/HMM-beads/Images/BlackBeadChoiceWrong.png","","","","","","","","","",""
"image-keyboard-response","349","487229","0.0-3.0-6.0-1.0-0.71","5d1ccc7c7e747d0016183e65","6662009ae78f21dd82fcd179","66620ba53593c91f507d652e","456","","f","","","","","","","","./tasks/HMM-beads/Images/NewTrialWC.png","lowH","1","71","0","0","1","0","true","",""
"image-keyboard-response","350","487535","0.0-3.0-6.0-1.0-1.71","5d1ccc7c7e747d0016183e65","6662009ae78f21dd82fcd179","66620ba53593c91f507d652e","null","","null","","","","","","","","./tasks/HMM-beads/Images/BlackBeadChoice.png","","","","","","","","","",""
"image-keyboard-response","351","488043","0.0-3.0-6.0-1.0-2.71","5d1ccc7c7e747d0016183e65","6662009ae78f21dd82fcd179","66620ba53593c91f507d652e","null","","null","","","","","","","","./tasks/HMM-beads/Images/BlackBeadChoiceCorrect.png","","","","","","","","","",""
"image-keyboard-response","352","489175","0.0-3.0-6.0-1.0-0.72","5d1ccc7c7e747d0016183e65","6662009ae78f21dd82fcd179","66620ba53593c91f507d652e","1131","","f","","","","","","","","./tasks/HMM-beads/Images/NewTrialBC.png","lowH","1","72","0","0","0","0","true","",""
"image-keyboard-response","353","489484","0.0-3.0-6.0-1.0-1.72","5d1ccc7c7e747d0016183e65","6662009ae78f21dd82fcd179","66620ba53593c91f507d652e","null","","null","","","","","","","","./tasks/HMM-beads/Images/BlackBeadChoice.png","","","","","","","","","",""
"image-keyboard-response","354","489994","0.0-3.0-6.0-1.0-2.72","5d1ccc7c7e747d0016183e65","6662009ae78f21dd82fcd179","66620ba53593c91f507d652e","null","","null","","","","","","","","./tasks/HMM-beads/Images/BlackBeadChoiceCorrect.png","","","","","","","","","",""
"image-keyboard-response","355","490365","0.0-3.0-6.0-1.0-0.73","5d1ccc7c7e747d0016183e65","6662009ae78f21dd82fcd179","66620ba53593c91f507d652e","370","","j","","","","","","","","./tasks/HMM-beads/Images/NewTrialBC.png","lowH","1","73","0","1","0","1","true","",""
"image-keyboard-response","356","490677","0.0-3.0-6.0-1.0-1.73","5d1ccc7c7e747d0016183e65","6662009ae78f21dd82fcd179","66620ba53593c91f507d652e","null","","null","","","","","","","","./tasks/HMM-beads/Images/WhiteBeadChoice.png","","","","","","","","","",""
"image-keyboard-response","357","491193","0.0-3.0-6.0-1.0-2.73","5d1ccc7c7e747d0016183e65","6662009ae78f21dd82fcd179","66620ba53593c91f507d652e","null","","null","","","","","","","","./tasks/HMM-beads/Images/WhiteBeadChoiceCorrect.png","","","","","","","","","",""
"image-keyboard-response","358","491447","0.0-3.0-6.0-1.0-0.74","5d1ccc7c7e747d0016183e65","6662009ae78f21dd82fcd179","66620ba53593c91f507d652e","254","","f","","","","","","","","./tasks/HMM-beads/Images/NewTrialWC.png","lowH","1","74","0","0","1","0","true","",""
"image-keyboard-response","359","491752","0.0-3.0-6.0-1.0-1.74","5d1ccc7c7e747d0016183e65","6662009ae78f21dd82fcd179","66620ba53593c91f507d652e","null","","null","","","","","","","","./tasks/HMM-beads/Images/BlackBeadChoice.png","","","","","","","","","",""
"image-keyboard-response","360","492265","0.0-3.0-6.0-1.0-2.74","5d1ccc7c7e747d0016183e65","6662009ae78f21dd82fcd179","66620ba53593c91f507d652e","null","","null","","","","","","","","./tasks/HMM-beads/Images/BlackBeadChoiceCorrect.png","","","","","","","","","",""
"image-keyboard-response","361","492657","0.0-3.0-6.0-1.0-0.75","5d1ccc7c7e747d0016183e65","6662009ae78f21dd82fcd179","66620ba53593c91f507d652e","391","","f","","","","","","","","./tasks/HMM-beads/Images/NewTrialBC.png","lowH","1","75","0","1","0","0","false","",""
"image-keyboard-response","362","492965","0.0-3.0-6.0-1.0-1.75","5d1ccc7c7e747d0016183e65","6662009ae78f21dd82fcd179","66620ba53593c91f507d652e","null","","null","","","","","","","","./tasks/HMM-beads/Images/BlackBeadChoice.png","","","","","","","","","",""
"image-keyboard-response","363","493478","0.0-3.0-6.0-1.0-2.75","5d1ccc7c7e747d0016183e65","6662009ae78f21dd82fcd179","66620ba53593c91f507d652e","null","","null","","","","","","","","./tasks/HMM-beads/Images/BlackBeadChoiceWrong.png","","","","","","","","","",""
"image-keyboard-response","364","493897","0.0-3.0-6.0-1.0-0.76","5d1ccc7c7e747d0016183e65","6662009ae78f21dd82fcd179","66620ba53593c91f507d652e","418","","f","","","","","","","","./tasks/HMM-beads/Images/NewTrialWC.png","lowH","1","76","0","1","1","0","false","",""
"image-keyboard-response","365","494207","0.0-3.0-6.0-1.0-1.76","5d1ccc7c7e747d0016183e65","6662009ae78f21dd82fcd179","66620ba53593c91f507d652e","null","","null","","","","","","","","./tasks/HMM-beads/Images/BlackBeadChoice.png","","","","","","","","","",""
"image-keyboard-response","366","494720","0.0-3.0-6.0-1.0-2.76","5d1ccc7c7e747d0016183e65","6662009ae78f21dd82fcd179","66620ba53593c91f507d652e","null","","null","","","","","","","","./tasks/HMM-beads/Images/BlackBeadChoiceWrong.png","","","","","","","","","",""
"image-keyboard-response","367","495136","0.0-3.0-6.0-1.0-0.77","5d1ccc7c7e747d0016183e65","6662009ae78f21dd82fcd179","66620ba53593c91f507d652e","415","","f","","","","","","","","./tasks/HMM-beads/Images/NewTrialWC.png","lowH","1","77","0","0","1","0","true","",""
"image-keyboard-response","368","495448","0.0-3.0-6.0-1.0-1.77","5d1ccc7c7e747d0016183e65","6662009ae78f21dd82fcd179","66620ba53593c91f507d652e","null","","null","","","","","","","","./tasks/HMM-beads/Images/BlackBeadChoice.png","","","","","","","","","",""
"image-keyboard-response","369","495962","0.0-3.0-6.0-1.0-2.77","5d1ccc7c7e747d0016183e65","6662009ae78f21dd82fcd179","66620ba53593c91f507d652e","null","","null","","","","","","","","./tasks/HMM-beads/Images/BlackBeadChoiceCorrect.png","","","","","","","","","",""
"image-keyboard-response","370","500665","0.0-3.0-6.0-1.0-0.78","5d1ccc7c7e747d0016183e65","6662009ae78f21dd82fcd179","66620ba53593c91f507d652e","4702","","f","","","","","","","","./tasks/HMM-beads/Images/NewTrialBC.png","lowH","1","78","0","0","0","0","true","",""
"image-keyboard-response","371","500979","0.0-3.0-6.0-1.0-1.78","5d1ccc7c7e747d0016183e65","6662009ae78f21dd82fcd179","66620ba53593c91f507d652e","null","","null","","","","","","","","./tasks/HMM-beads/Images/BlackBeadChoice.png","","","","","","","","","",""
"image-keyboard-response","372","501493","0.0-3.0-6.0-1.0-2.78","5d1ccc7c7e747d0016183e65","6662009ae78f21dd82fcd179","66620ba53593c91f507d652e","null","","null","","","","","","","","./tasks/HMM-beads/Images/BlackBeadChoiceCorrect.png","","","","","","","","","",""
"image-keyboard-response","373","501827","0.0-3.0-6.0-1.0-0.79","5d1ccc7c7e747d0016183e65","6662009ae78f21dd82fcd179","66620ba53593c91f507d652e","334","","f","","","","","","","","./tasks/HMM-beads/Images/NewTrialBC.png","lowH","1","79","0","0","0","0","true","",""
"image-keyboard-response","374","502130","0.0-3.0-6.0-1.0-1.79","5d1ccc7c7e747d0016183e65","6662009ae78f21dd82fcd179","66620ba53593c91f507d652e","null","","null","","","","","","","","./tasks/HMM-beads/Images/BlackBeadChoice.png","","","","","","","","","",""
