"trial_type","trial_index","time_elapsed","internal_node_id","subject_id","study_id","session_id","rt","url","response","question_order","view_history","success","timeout","failed_images","failed_audio","failed_video","stimulus","block","block_rep","trial_number","jar","bead","previous_bead","choice","correct","lowH_score","total_bonus"
"pavlovia","0","1213","0.0-0.0","63d672fd60ac772cd04cc33b","6662009ae78f21dd82fcd179","66620c7122dbe3626d265e8f","","","","","","","","","","","","","","","","","","","","",""
"external-html","1","15418","0.0-1.0-0.0","63d672fd60ac772cd04cc33b","6662009ae78f21dd82fcd179","66620c7122dbe3626d265e8f","14090","new_consent.html","","","","","","","","","","","","","","","","","","",""
"survey-multi-choice","2","22846","0.0-1.0-1.0","63d672fd60ac772cd04cc33b","6662009ae78f21dd82fcd179","66620c7122dbe3626d265e8f","7418","","{""Q0"":""Male"",""Q1"":""American Indian or Alaskan Native""}","[0,1]","","","","","","","","","","","","","","","","",""
"survey-text","3","26775","0.0-1.0-2.0","63d672fd60ac772cd04cc33b","6662009ae78f21dd82fcd179","66620c7122dbe3626d265e8f","3913","","{""Q0"":""35""}","","","","","","","","","","","","","","","","","",""
"instructions","4","27963","0.0-2.0","63d672fd60ac772cd04cc33b","6662009ae78f21dd82fcd179","66620c7122dbe3626d265e8f","1081","","","","[{""page_index"":0,""viewing_time"":1078}]","","","","","","","","","","","","","","","",""
"preload","5","44079","0.0-3.0-0.0","63d672fd60ac772cd04cc33b","6662009ae78f21dd82fcd179","66620c7122dbe3626d265e8f","","","","","","true","false","[]","[]","[]","","","","","","","","","","",""
"instructions","6","108073","0.0-3.0-1.0","63d672fd60ac772cd04cc33b","6662009ae78f21dd82fcd179","66620c7122dbe3626d265e8f","63992","","","","[{""page_index"":0,""viewing_time"":7624},{""page_index"":1,""viewing_time"":5251},{""page_index"":2,""viewing_time"":5745},{""page_index"":3,""viewing_time"":1295},{""page_index"":4,""viewing_time"":9173},{""page_index"":5,""viewing_time"":10765},{""page_index"":6,""viewing_time"":3401},{""page_index"":7,""viewing_time"":6207},{""page_index"":8,""viewing_time"":3332},{""page_index"":9,""viewing_time"":3852},{""page_index"":10,""viewing_time"":5983},{""page_index"":11,""viewing_time"":1364}]","","","","","","","","","","","","","","","",""
"html-button-response","7","111508","0.0-3.0-2.0-0.0-0.0","63d672fd60ac772cd04cc33b","6662009ae78f21dd82fcd179","66620c7122dbe3626d265e8f","3428","","1","","","","","","","","<div align=center>Your goal is to predict…?<br><br></div>","","","","","","","","","",""
"html-button-response","8","117267","0.0-3.0-2.0-1.0-0.0","63d672fd60ac772cd04cc33b","6662009ae78f21dd82fcd179","66620c7122dbe3626d265e8f","4135","","2","","","","","","","","<div align=center>In the jar with mostly white beads, there are ___% white beads and ___% black beads?<br><br></div>","","","","","","","","","",""
"html-button-response","9","123641","0.0-3.0-2.0-2.0-0.0","63d672fd60ac772cd04cc33b","6662009ae78f21dd82fcd179","66620c7122dbe3626d265e8f","4968","","0","","","","","","","","<div align=center>When there is a 1% probability that the jars will switch, the next bead will most likely be drawn from the…<br><br></div>","","","","","","","","","",""
"html-button-response","10","127493","0.0-3.0-2.0-3.0-0.0","63d672fd60ac772cd04cc33b","6662009ae78f21dd82fcd179","66620c7122dbe3626d265e8f","2402","","1","","","","","","","","<div align=center>When there is a 99% probability that the jars will switch, the next bead will most likely be drawn from the…<br><br></div>","","","","","","","","","",""
"instructions","11","132579","0.0-3.0-3.0","63d672fd60ac772cd04cc33b","6662009ae78f21dd82fcd179","66620c7122dbe3626d265e8f","3155","","","","[{""page_index"":0,""viewing_time"":3154}]","","","","","","","","","","","","","","","",""
"html-keyboard-response","12","134637","0.0-3.0-4.0-0.0","63d672fd60ac772cd04cc33b","6662009ae78f21dd82fcd179","66620c7122dbe3626d265e8f","2054",""," ","","","","","","","","<div align=center>In this practice block, there will be a <b>1% chance</b> that the jar on the next trial will be different from the jar on the current trial.<br><br></div>","","","","","","","","","",""
"image-keyboard-response","13","137245","0.0-3.0-4.0-1.0-0.0","63d672fd60ac772cd04cc33b","6662009ae78f21dd82fcd179","66620c7122dbe3626d265e8f","2574","","f","","","","","","","","./tasks/HMM-beads/Images/NoChoice.png","practice","0","0","0","0","9","0","true","",""
"image-keyboard-response","14","137555","0.0-3.0-4.0-1.0-1.0","63d672fd60ac772cd04cc33b","6662009ae78f21dd82fcd179","66620c7122dbe3626d265e8f","null","","null","","","","","","","","./tasks/HMM-beads/Images/BlackBeadChoice.png","","","","","","","","","",""
"image-keyboard-response","15","138067","0.0-3.0-4.0-1.0-2.0","63d672fd60ac772cd04cc33b","6662009ae78f21dd82fcd179","66620c7122dbe3626d265e8f","null","","null","","","","","","","","./tasks/HMM-beads/Images/BlackBeadChoiceCorrect.png","","","","","","","","","",""
"image-keyboard-response","16","139597","0.0-3.0-4.0-1.0-0.1","63d672fd60ac772cd04cc33b","6662009ae78f21dd82fcd179","66620c7122dbe3626d265e8f","1519","","j","","","","","","","","./tasks/HMM-beads/Images/NewTrialBC.png","practice","0","1","0","0","0","1","false","",""
"image-keyboard-response","17","139905","0.0-3.0-4.0-1.0-1.1","63d672fd60ac772cd04cc33b","6662009ae78f21dd82fcd179","66620c7122dbe3626d265e8f","null","","null","","","","","","","","./tasks/HMM-beads/Images/WhiteBeadChoice.png","","","","","","","","","",""
"image-keyboard-response","18","140416","0.0-3.0-4.0-1.0-2.1","63d672fd60ac772cd04cc33b","6662009ae78f21dd82fcd179","66620c7122dbe3626d265e8f","null","","null","","","","","","","","./tasks/HMM-beads/Images/WhiteBeadChoiceWrong.png","","","","","","","","","",""
"image-keyboard-response","19","141209","0.0-3.0-4.0-1.0-0.2","63d672fd60ac772cd04cc33b","6662009ae78f21dd82fcd179","66620c7122dbe3626d265e8f","782","","f","","","","","","","","./tasks/HMM-beads/Images/NewTrialBC.png","practice","0","2","0","1","0","0","false","",""
"image-keyboard-response","20","141517","0.0-3.0-4.0-1.0-1.2","63d672fd60ac772cd04cc33b","6662009ae78f21dd82fcd179","66620c7122dbe3626d265e8f","null","","null","","","","","","","","./tasks/HMM-beads/Images/BlackBeadChoice.png","","","","","","","","","",""
"image-keyboard-response","21","142027","0.0-3.0-4.0-1.0-2.2","63d672fd60ac772cd04cc33b","6662009ae78f21dd82fcd179","66620c7122dbe3626d265e8f","null","","null","","","","","","","","./tasks/HMM-beads/Images/BlackBeadChoiceWrong.png","","","","","","","","","",""
"image-keyboard-response","22","142523","0.0-3.0-4.0-1.0-0.3","63d672fd60ac772cd04cc33b","6662009ae78f21dd82fcd179","66620c7122dbe3626d265e8f","486","","j","","","","","","","","./tasks/HMM-beads/Images/NewTrialWC.png","practice","0","3","0","0","1","1","false","",""
"image-keyboard-response","23","142844","0.0-3.0-4.0-1.0-1.3","63d672fd60ac772cd04cc33b","6662009ae78f21dd82fcd179","66620c7122dbe3626d265e8f","null","","null","","","","","","","","./tasks/HMM-beads/Images/WhiteBeadChoice.png","","","","","","","","","",""
"image-keyboard-response","24","143353","0.0-3.0-4.0-1.0-2.3","63d672fd60ac772cd04cc33b","6662009ae78f21dd82fcd179","66620c7122dbe3626d265e8f","null","","null","","","","","","","","./tasks/HMM-beads/Images/WhiteBeadChoiceWrong.png","","","","","","","","","",""
"image-keyboard-response","25","143530","0.0-3.0-4.0-1.0-0.4","63d672fd60ac772cd04cc33b","6662009ae78f21dd82fcd179","66620c7122dbe3626d265e8f","169","","f","","","","","","","","./tasks/HMM-beads/Images/NewTrialBC.png","practice","0","4","0","0","0","0","true","",""
"image-keyboard-response","26","143838","0.0-3.0-4.0-1.0-1.4","63d672fd60ac772cd04cc33b","6662009ae78f21dd82fcd179","66620c7122dbe3626d265e8f","null","","null","","","","","","","","./tasks/HMM-beads/Images/BlackBeadChoice.png","","","","","","","","","",""
"image-keyboard-response","27","144345","0.0-3.0-4.0-1.0-2.4","63d672fd60ac772cd04cc33b","6662009ae78f21dd82fcd179","66620c7122dbe3626d265e8f","null","","null","","","","","","","","./tasks/HMM-beads/Images/BlackBeadChoiceCorrect.png","","","","","","","","","",""
"image-keyboard-response","28","144676","0.0-3.0-4.0-1.0-0.5","63d672fd60ac772cd04cc33b","6662009ae78f21dd82fcd179","66620c7122dbe3626d265e8f","321","","f","","","","","","","","./tasks/HMM-beads/Images/NewTrialBC.png","practice","0","5","0","1","0","0","false","",""
"image-keyboard-response","29","144983","0.0-3.0-4.0-1.0-1.5","63d672fd60ac772cd04cc33b","6662009ae78f21dd82fcd179","66620c7122dbe3626d265e8f","null","","null","","","","","","","","./tasks/HMM-beads/Images/BlackBeadChoice.png","","","","","","","","","",""
"image-keyboard-response","30","145487","0.0-3.0-4.0-1.0-2.5","63d672fd60ac772cd04cc33b","6662009ae78f21dd82fcd179","66620c7122dbe3626d265e8f","null","","null","","","","","","","","./tasks/HMM-beads/Images/BlackBeadChoiceWrong.png","","","","","","","","","",""
"image-keyboard-response","31","145524","0.0-3.0-4.0-1.0-0.6","63d672fd60ac772cd04cc33b","6662009ae78f21dd82fcd179","66620c7122dbe3626d265e8f","31","","j","","","","","","","","./tasks/HMM-beads/Images/NewTrialWC.png","practice","0","6","0","0","1","1","false","",""
"image-keyboard-response","32","145829","0.0-3.0-4.0-1.0-1.6","63d672fd60ac772cd04cc33b","6662009ae78f21dd82fcd179","66620c7122dbe3626d265e8f","null","","null","","","","","","","","./tasks/HMM-beads/Images/WhiteBeadChoice.png","","","","","","","","","",""
"image-keyboard-response","33","146337","0.0-3.0-4.0-1.0-2.6","63d672fd60ac772cd04cc33b","6662009ae78f21dd82fcd179","66620c7122dbe3626d265e8f","null","","null","","","","","","","","./tasks/HMM-beads/Images/WhiteBeadChoiceWrong.png","","","","","","","","","",""
"image-keyboard-response","34","147639","0.0-3.0-4.0-1.0-0.7","63d672fd60ac772cd04cc33b","6662009ae78f21dd82fcd179","66620c7122dbe3626d265e8f","1296","","f","","","","","","","","./tasks/HMM-beads/Images/NewTrialBC.png","practice","0","7","0","0","0","0","true","",""
"image-keyboard-response","35","147960","0.0-3.0-4.0-1.0-1.7","63d672fd60ac772cd04cc33b","6662009ae78f21dd82fcd179","66620c7122dbe3626d265e8f","null","","null","","","","","","","","./tasks/HMM-beads/Images/BlackBeadChoice.png","","","","","","","","","",""
"image-keyboard-response","36","148468","0.0-3.0-4.0-1.0-2.7","63d672fd60ac772cd04cc33b","6662009ae78f21dd82fcd179","66620c7122dbe3626d265e8f","null","","null","","","","","","","","./tasks/HMM-beads/Images/BlackBeadChoiceCorrect.png","","","","","","","","","",""
"image-keyboard-response","37","149132","0.0-3.0-4.0-1.0-0.8","63d672fd60ac772cd04cc33b","6662009ae78f21dd82fcd179","66620c7122dbe3626d265e8f","657","","f","","","","","","","","./tasks/HMM-beads/Images/NewTrialBC.png","practice","0","8","0","0","0","0","true","",""
"image-keyboard-response","38","149439","0.0-3.0-4.0-1.0-1.8","63d672fd60ac772cd04cc33b","6662009ae78f21dd82fcd179","66620c7122dbe3626d265e8f","null","","null","","","","","","","","./tasks/HMM-beads/Images/BlackBeadChoice.png","","","","","","","","","",""
"image-keyboard-response","39","149947","0.0-3.0-4.0-1.0-2.8","63d672fd60ac772cd04cc33b","6662009ae78f21dd82fcd179","66620c7122dbe3626d265e8f","null","","null","","","","","","","","./tasks/HMM-beads/Images/BlackBeadChoiceCorrect.png","","","","","","","","","",""
"image-keyboard-response","40","150171","0.0-3.0-4.0-1.0-0.9","63d672fd60ac772cd04cc33b","6662009ae78f21dd82fcd179","66620c7122dbe3626d265e8f","217","","f","","","","","","","","./tasks/HMM-beads/Images/NewTrialBC.png","practice","0","9","0","1","0","0","false","",""
"image-keyboard-response","41","150480","0.0-3.0-4.0-1.0-1.9","63d672fd60ac772cd04cc33b","6662009ae78f21dd82fcd179","66620c7122dbe3626d265e8f","null","","null","","","","","","","","./tasks/HMM-beads/Images/BlackBeadChoice.png","","","","","","","","","",""
"image-keyboard-response","42","150984","0.0-3.0-4.0-1.0-2.9","63d672fd60ac772cd04cc33b","6662009ae78f21dd82fcd179","66620c7122dbe3626d265e8f","null","","null","","","","","","","","./tasks/HMM-beads/Images/BlackBeadChoiceWrong.png","","","","","","","","","",""
"image-keyboard-response","43","151395","0.0-3.0-4.0-1.0-0.10","63d672fd60ac772cd04cc33b","6662009ae78f21dd82fcd179","66620c7122dbe3626d265e8f","408","","j","","","","","","","","./tasks/HMM-beads/Images/NewTrialWC.png","practice","0","10","0","0","1","1","false","",""
"image-keyboard-response","44","151702","0.0-3.0-4.0-1.0-1.10","63d672fd60ac772cd04cc33b","6662009ae78f21dd82fcd179","66620c7122dbe3626d265e8f","null","","null","","","","","","","","./tasks/HMM-beads/Images/WhiteBeadChoice.png","","","","","","","","","",""
"image-keyboard-response","45","152207","0.0-3.0-4.0-1.0-2.10","63d672fd60ac772cd04cc33b","6662009ae78f21dd82fcd179","66620c7122dbe3626d265e8f","null","","null","","","","","","","","./tasks/HMM-beads/Images/WhiteBeadChoiceWrong.png","","","","","","","","","",""
"image-keyboard-response","46","152840","0.0-3.0-4.0-1.0-0.11","63d672fd60ac772cd04cc33b","6662009ae78f21dd82fcd179","66620c7122dbe3626d265e8f","620","","f","","","","","","","","./tasks/HMM-beads/Images/NewTrialBC.png","practice","0","11","0","1","0","0","false","",""
"image-keyboard-response","47","153144","0.0-3.0-4.0-1.0-1.11","63d672fd60ac772cd04cc33b","6662009ae78f21dd82fcd179","66620c7122dbe3626d265e8f","null","","null","","","","","","","","./tasks/HMM-beads/Images/BlackBeadChoice.png","","","","","","","","","",""
"image-keyboard-response","48","153651","0.0-3.0-4.0-1.0-2.11","63d672fd60ac772cd04cc33b","6662009ae78f21dd82fcd179","66620c7122dbe3626d265e8f","null","","null","","","","","","","","./tasks/HMM-beads/Images/BlackBeadChoiceWrong.png","","","","","","","","","",""
"image-keyboard-response","49","153963","0.0-3.0-4.0-1.0-0.12","63d672fd60ac772cd04cc33b","6662009ae78f21dd82fcd179","66620c7122dbe3626d265e8f","304","","j","","","","","","","","./tasks/HMM-beads/Images/NewTrialWC.png","practice","0","12","0","0","1","1","false","",""
"image-keyboard-response","50","154268","0.0-3.0-4.0-1.0-1.12","63d672fd60ac772cd04cc33b","6662009ae78f21dd82fcd179","66620c7122dbe3626d265e8f","null","","null","","","","","","","","./tasks/HMM-beads/Images/WhiteBeadChoice.png","","","","","","","","","",""
"image-keyboard-response","51","154776","0.0-3.0-4.0-1.0-2.12","63d672fd60ac772cd04cc33b","6662009ae78f21dd82fcd179","66620c7122dbe3626d265e8f","null","","null","","","","","","","","./tasks/HMM-beads/Images/WhiteBeadChoiceWrong.png","","","","","","","","","",""
"image-keyboard-response","52","155039","0.0-3.0-4.0-1.0-0.13","63d672fd60ac772cd04cc33b","6662009ae78f21dd82fcd179","66620c7122dbe3626d265e8f","257","","f","","","","","","","","./tasks/HMM-beads/Images/NewTrialBC.png","practice","0","13","0","0","0","0","true","",""
"image-keyboard-response","53","155346","0.0-3.0-4.0-1.0-1.13","63d672fd60ac772cd04cc33b","6662009ae78f21dd82fcd179","66620c7122dbe3626d265e8f","null","","null","","","","","","","","./tasks/HMM-beads/Images/BlackBeadChoice.png","","","","","","","","","",""
"image-keyboard-response","54","155854","0.0-3.0-4.0-1.0-2.13","63d672fd60ac772cd04cc33b","6662009ae78f21dd82fcd179","66620c7122dbe3626d265e8f","null","","null","","","","","","","","./tasks/HMM-beads/Images/BlackBeadChoiceCorrect.png","","","","","","","","","",""
"image-keyboard-response","55","156126","0.0-3.0-4.0-1.0-0.14","63d672fd60ac772cd04cc33b","6662009ae78f21dd82fcd179","66620c7122dbe3626d265e8f","264","","f","","","","","","","","./tasks/HMM-beads/Images/NewTrialBC.png","practice","0","14","0","0","0","0","true","",""
"image-keyboard-response","56","156433","0.0-3.0-4.0-1.0-1.14","63d672fd60ac772cd04cc33b","6662009ae78f21dd82fcd179","66620c7122dbe3626d265e8f","null","","null","","","","","","","","./tasks/HMM-beads/Images/BlackBeadChoice.png","","","","","","","","","",""
"image-keyboard-response","57","156941","0.0-3.0-4.0-1.0-2.14","63d672fd60ac772cd04cc33b","6662009ae78f21dd82fcd179","66620c7122dbe3626d265e8f","null","","null","","","","","","","","./tasks/HMM-beads/Images/BlackBeadChoiceCorrect.png","","","","","","","","","",""
"image-keyboard-response","58","157180","0.0-3.0-4.0-1.0-0.15","63d672fd60ac772cd04cc33b","6662009ae78f21dd82fcd179","66620c7122dbe3626d265e8f","232","","f","","","","","","","","./tasks/HMM-beads/Images/NewTrialBC.png","practice","0","15","0","0","0","0","true","",""
"image-keyboard-response","59","157485","0.0-3.0-4.0-1.0-1.15","63d672fd60ac772cd04cc33b","6662009ae78f21dd82fcd179","66620c7122dbe3626d265e8f","null","","null","","","","","","","","./tasks/HMM-beads/Images/BlackBeadChoice.png","","","","","","","","","",""
"image-keyboard-response","60","157991","0.0-3.0-4.0-1.0-2.15","63d672fd60ac772cd04cc33b","6662009ae78f21dd82fcd179","66620c7122dbe3626d265e8f","null","","null","","","","","","","","./tasks/HMM-beads/Images/BlackBeadChoiceCorrect.png","","","","","","","","","",""
"image-keyboard-response","61","158226","0.0-3.0-4.0-1.0-0.16","63d672fd60ac772cd04cc33b","6662009ae78f21dd82fcd179","66620c7122dbe3626d265e8f","230","","f","","","","","","","","./tasks/HMM-beads/Images/NewTrialBC.png","practice","0","16","0","0","0","0","true","",""
"image-keyboard-response","62","158534","0.0-3.0-4.0-1.0-1.16","63d672fd60ac772cd04cc33b","6662009ae78f21dd82fcd179","66620c7122dbe3626d265e8f","null","","null","","","","","","","","./tasks/HMM-beads/Images/BlackBeadChoice.png","","","","","","","","","",""
"image-keyboard-response","63","159046","0.0-3.0-4.0-1.0-2.16","63d672fd60ac772cd04cc33b","6662009ae78f21dd82fcd179","66620c7122dbe3626d265e8f","null","","null","","","","","","","","./tasks/HMM-beads/Images/BlackBeadChoiceCorrect.png","","","","","","","","","",""
"image-keyboard-response","64","159219","0.0-3.0-4.0-1.0-0.17","63d672fd60ac772cd04cc33b","6662009ae78f21dd82fcd179","66620c7122dbe3626d265e8f","166","","f","","","","","","","","./tasks/HMM-beads/Images/NewTrialBC.png","practice","0","17","0","0","0","0","true","",""
"image-keyboard-response","65","159523","0.0-3.0-4.0-1.0-1.17","63d672fd60ac772cd04cc33b","6662009ae78f21dd82fcd179","66620c7122dbe3626d265e8f","null","","null","","","","","","","","./tasks/HMM-beads/Images/BlackBeadChoice.png","","","","","","","","","",""
"image-keyboard-response","66","160028","0.0-3.0-4.0-1.0-2.17","63d672fd60ac772cd04cc33b","6662009ae78f21dd82fcd179","66620c7122dbe3626d265e8f","null","","null","","","","","","","","./tasks/HMM-beads/Images/BlackBeadChoiceCorrect.png","","","","","","","","","",""
"image-keyboard-response","67","160313","0.0-3.0-4.0-1.0-0.18","63d672fd60ac772cd04cc33b","6662009ae78f21dd82fcd179","66620c7122dbe3626d265e8f","278","","f","","","","","","","","./tasks/HMM-beads/Images/NewTrialBC.png","practice","0","18","0","1","0","0","false","",""
"image-keyboard-response","68","160619","0.0-3.0-4.0-1.0-1.18","63d672fd60ac772cd04cc33b","6662009ae78f21dd82fcd179","66620c7122dbe3626d265e8f","null","","null","","","","","","","","./tasks/HMM-beads/Images/BlackBeadChoice.png","","","","","","","","","",""
"image-keyboard-response","69","161127","0.0-3.0-4.0-1.0-2.18","63d672fd60ac772cd04cc33b","6662009ae78f21dd82fcd179","66620c7122dbe3626d265e8f","null","","null","","","","","","","","./tasks/HMM-beads/Images/BlackBeadChoiceWrong.png","","","","","","","","","",""
"image-keyboard-response","70","161447","0.0-3.0-4.0-1.0-0.19","63d672fd60ac772cd04cc33b","6662009ae78f21dd82fcd179","66620c7122dbe3626d265e8f","314","","j","","","","","","","","./tasks/HMM-beads/Images/NewTrialWC.png","practice","0","19","0","0","1","1","false","",""
"image-keyboard-response","71","161755","0.0-3.0-4.0-1.0-1.19","63d672fd60ac772cd04cc33b","6662009ae78f21dd82fcd179","66620c7122dbe3626d265e8f","null","","null","","","","","","","","./tasks/HMM-beads/Images/WhiteBeadChoice.png","","","","","","","","","",""
"image-keyboard-response","72","162261","0.0-3.0-4.0-1.0-2.19","63d672fd60ac772cd04cc33b","6662009ae78f21dd82fcd179","66620c7122dbe3626d265e8f","null","","null","","","","","","","","./tasks/HMM-beads/Images/WhiteBeadChoiceWrong.png","","","","","","","","","",""
"image-keyboard-response","73","162448","0.0-3.0-4.0-1.0-0.20","63d672fd60ac772cd04cc33b","6662009ae78f21dd82fcd179","66620c7122dbe3626d265e8f","179","","f","","","","","","","","./tasks/HMM-beads/Images/NewTrialBC.png","practice","0","20","0","0","0","0","true","",""
"image-keyboard-response","74","162756","0.0-3.0-4.0-1.0-1.20","63d672fd60ac772cd04cc33b","6662009ae78f21dd82fcd179","66620c7122dbe3626d265e8f","null","","null","","","","","","","","./tasks/HMM-beads/Images/BlackBeadChoice.png","","","","","","","","","",""
"image-keyboard-response","75","163263","0.0-3.0-4.0-1.0-2.20","63d672fd60ac772cd04cc33b","6662009ae78f21dd82fcd179","66620c7122dbe3626d265e8f","null","","null","","","","","","","","./tasks/HMM-beads/Images/BlackBeadChoiceCorrect.png","","","","","","","","","",""
"image-keyboard-response","76","163398","0.0-3.0-4.0-1.0-0.21","63d672fd60ac772cd04cc33b","6662009ae78f21dd82fcd179","66620c7122dbe3626d265e8f","127","","f","","","","","","","","./tasks/HMM-beads/Images/NewTrialBC.png","practice","0","21","0","1","0","0","false","",""
"image-keyboard-response","77","163703","0.0-3.0-4.0-1.0-1.21","63d672fd60ac772cd04cc33b","6662009ae78f21dd82fcd179","66620c7122dbe3626d265e8f","null","","null","","","","","","","","./tasks/HMM-beads/Images/BlackBeadChoice.png","","","","","","","","","",""
"image-keyboard-response","78","164208","0.0-3.0-4.0-1.0-2.21","63d672fd60ac772cd04cc33b","6662009ae78f21dd82fcd179","66620c7122dbe3626d265e8f","null","","null","","","","","","","","./tasks/HMM-beads/Images/BlackBeadChoiceWrong.png","","","","","","","","","",""
"image-keyboard-response","79","164272","0.0-3.0-4.0-1.0-0.22","63d672fd60ac772cd04cc33b","6662009ae78f21dd82fcd179","66620c7122dbe3626d265e8f","53","","j","","","","","","","","./tasks/HMM-beads/Images/NewTrialWC.png","practice","0","22","1","1","1","1","true","",""
"image-keyboard-response","80","164580","0.0-3.0-4.0-1.0-1.22","63d672fd60ac772cd04cc33b","6662009ae78f21dd82fcd179","66620c7122dbe3626d265e8f","null","","null","","","","","","","","./tasks/HMM-beads/Images/WhiteBeadChoice.png","","","","","","","","","",""
"image-keyboard-response","81","165088","0.0-3.0-4.0-1.0-2.22","63d672fd60ac772cd04cc33b","6662009ae78f21dd82fcd179","66620c7122dbe3626d265e8f","null","","null","","","","","","","","./tasks/HMM-beads/Images/WhiteBeadChoiceCorrect.png","","","","","","","","","",""
"image-keyboard-response","82","165121","0.0-3.0-4.0-1.0-0.23","63d672fd60ac772cd04cc33b","6662009ae78f21dd82fcd179","66620c7122dbe3626d265e8f","28","","j","","","","","","","","./tasks/HMM-beads/Images/NewTrialWC.png","practice","0","23","1","0","1","1","false","",""
"image-keyboard-response","83","165426","0.0-3.0-4.0-1.0-1.23","63d672fd60ac772cd04cc33b","6662009ae78f21dd82fcd179","66620c7122dbe3626d265e8f","null","","null","","","","","","","","./tasks/HMM-beads/Images/WhiteBeadChoice.png","","","","","","","","","",""
"image-keyboard-response","84","165934","0.0-3.0-4.0-1.0-2.23","63d672fd60ac772cd04cc33b","6662009ae78f21dd82fcd179","66620c7122dbe3626d265e8f","null","","null","","","","","","","","./tasks/HMM-beads/Images/WhiteBeadChoiceWrong.png","","","","","","","","","",""
"image-keyboard-response","85","166666","0.0-3.0-4.0-1.0-0.24","63d672fd60ac772cd04cc33b","6662009ae78f21dd82fcd179","66620c7122dbe3626d265e8f","726","","f","","","","","","","","./tasks/HMM-beads/Images/NewTrialBC.png","practice","0","24","1","1","0","0","false","",""
"image-keyboard-response","86","166984","0.0-3.0-4.0-1.0-1.24","63d672fd60ac772cd04cc33b","6662009ae78f21dd82fcd179","66620c7122dbe3626d265e8f","null","","null","","","","","","","","./tasks/HMM-beads/Images/BlackBeadChoice.png","","","","","","","","","",""
"image-keyboard-response","87","167489","0.0-3.0-4.0-1.0-2.24","63d672fd60ac772cd04cc33b","6662009ae78f21dd82fcd179","66620c7122dbe3626d265e8f","null","","null","","","","","","","","./tasks/HMM-beads/Images/BlackBeadChoiceWrong.png","","","","","","","","","",""
"image-keyboard-response","88","167979","0.0-3.0-4.0-1.0-0.25","63d672fd60ac772cd04cc33b","6662009ae78f21dd82fcd179","66620c7122dbe3626d265e8f","485","","j","","","","","","","","./tasks/HMM-beads/Images/NewTrialWC.png","practice","0","25","1","1","1","1","true","",""
"image-keyboard-response","89","168287","0.0-3.0-4.0-1.0-1.25","63d672fd60ac772cd04cc33b","6662009ae78f21dd82fcd179","66620c7122dbe3626d265e8f","null","","null","","","","","","","","./tasks/HMM-beads/Images/WhiteBeadChoice.png","","","","","","","","","",""
"image-keyboard-response","90","168796","0.0-3.0-4.0-1.0-2.25","63d672fd60ac772cd04cc33b","6662009ae78f21dd82fcd179","66620c7122dbe3626d265e8f","null","","null","","","","","","","","./tasks/HMM-beads/Images/WhiteBeadChoiceCorrect.png","","","","","","","","","",""
"image-keyboard-response","91","169287","0.0-3.0-4.0-1.0-0.26","63d672fd60ac772cd04cc33b","6662009ae78f21dd82fcd179","66620c7122dbe3626d265e8f","488","","j","","","","","","","","./tasks/HMM-beads/Images/NewTrialWC.png","practice","0","26","1","1","1","1","true","",""
"image-keyboard-response","92","169596","0.0-3.0-4.0-1.0-1.26","63d672fd60ac772cd04cc33b","6662009ae78f21dd82fcd179","66620c7122dbe3626d265e8f","null","","null","","","","","","","","./tasks/HMM-beads/Images/WhiteBeadChoice.png","","","","","","","","","",""
"image-keyboard-response","93","170102","0.0-3.0-4.0-1.0-2.26","63d672fd60ac772cd04cc33b","6662009ae78f21dd82fcd179","66620c7122dbe3626d265e8f","null","","null","","","","","","","","./tasks/HMM-beads/Images/WhiteBeadChoiceCorrect.png","","","","","","","","","",""
"image-keyboard-response","94","170493","0.0-3.0-4.0-1.0-0.27","63d672fd60ac772cd04cc33b","6662009ae78f21dd82fcd179","66620c7122dbe3626d265e8f","385","","j","","","","","","","","./tasks/HMM-beads/Images/NewTrialWC.png","practice","0","27","1","1","1","1","true","",""
"image-keyboard-response","95","170800","0.0-3.0-4.0-1.0-1.27","63d672fd60ac772cd04cc33b","6662009ae78f21dd82fcd179","66620c7122dbe3626d265e8f","null","","null","","","","","","","","./tasks/HMM-beads/Images/WhiteBeadChoice.png","","","","","","","","","",""
"image-keyboard-response","96","171306","0.0-3.0-4.0-1.0-2.27","63d672fd60ac772cd04cc33b","6662009ae78f21dd82fcd179","66620c7122dbe3626d265e8f","null","","null","","","","","","","","./tasks/HMM-beads/Images/WhiteBeadChoiceCorrect.png","","","","","","","","","",""
"image-keyboard-response","97","171644","0.0-3.0-4.0-1.0-0.28","63d672fd60ac772cd04cc33b","6662009ae78f21dd82fcd179","66620c7122dbe3626d265e8f","331","","j","","","","","","","","./tasks/HMM-beads/Images/NewTrialWC.png","practice","0","28","1","0","1","1","false","",""
"image-keyboard-response","98","171951","0.0-3.0-4.0-1.0-1.28","63d672fd60ac772cd04cc33b","6662009ae78f21dd82fcd179","66620c7122dbe3626d265e8f","null","","null","","","","","","","","./tasks/HMM-beads/Images/WhiteBeadChoice.png","","","","","","","","","",""
"image-keyboard-response","99","172473","0.0-3.0-4.0-1.0-2.28","63d672fd60ac772cd04cc33b","6662009ae78f21dd82fcd179","66620c7122dbe3626d265e8f","null","","null","","","","","","","","./tasks/HMM-beads/Images/WhiteBeadChoiceWrong.png","","","","","","","","","",""
"image-keyboard-response","100","172742","0.0-3.0-4.0-1.0-0.29","63d672fd60ac772cd04cc33b","6662009ae78f21dd82fcd179","66620c7122dbe3626d265e8f","263","","f","","","","","","","","./tasks/HMM-beads/Images/NewTrialBC.png","practice","0","29","1","1","0","0","false","",""
"image-keyboard-response","101","173048","0.0-3.0-4.0-1.0-1.29","63d672fd60ac772cd04cc33b","6662009ae78f21dd82fcd179","66620c7122dbe3626d265e8f","null","","null","","","","","","","","./tasks/HMM-beads/Images/BlackBeadChoice.png","","","","","","","","","",""
"image-keyboard-response","102","173556","0.0-3.0-4.0-1.0-2.29","63d672fd60ac772cd04cc33b","6662009ae78f21dd82fcd179","66620c7122dbe3626d265e8f","null","","null","","","","","","","","./tasks/HMM-beads/Images/BlackBeadChoiceWrong.png","","","","","","","","","",""
"image-keyboard-response","103","173859","0.0-3.0-4.0-1.0-0.30","63d672fd60ac772cd04cc33b","6662009ae78f21dd82fcd179","66620c7122dbe3626d265e8f","295","","j","","","","","","","","./tasks/HMM-beads/Images/NewTrialWC.png","practice","0","30","1","0","1","1","false","",""
"image-keyboard-response","104","174164","0.0-3.0-4.0-1.0-1.30","63d672fd60ac772cd04cc33b","6662009ae78f21dd82fcd179","66620c7122dbe3626d265e8f","null","","null","","","","","","","","./tasks/HMM-beads/Images/WhiteBeadChoice.png","","","","","","","","","",""
"image-keyboard-response","105","174667","0.0-3.0-4.0-1.0-2.30","63d672fd60ac772cd04cc33b","6662009ae78f21dd82fcd179","66620c7122dbe3626d265e8f","null","","null","","","","","","","","./tasks/HMM-beads/Images/WhiteBeadChoiceWrong.png","","","","","","","","","",""
"image-keyboard-response","106","174956","0.0-3.0-4.0-1.0-0.31","63d672fd60ac772cd04cc33b","6662009ae78f21dd82fcd179","66620c7122dbe3626d265e8f","282","","f","","","","","","","","./tasks/HMM-beads/Images/NewTrialBC.png","practice","0","31","1","1","0","0","false","",""
"image-keyboard-response","107","175262","0.0-3.0-4.0-1.0-1.31","63d672fd60ac772cd04cc33b","6662009ae78f21dd82fcd179","66620c7122dbe3626d265e8f","null","","null","","","","","","","","./tasks/HMM-beads/Images/BlackBeadChoice.png","","","","","","","","","",""
"image-keyboard-response","108","175768","0.0-3.0-4.0-1.0-2.31","63d672fd60ac772cd04cc33b","6662009ae78f21dd82fcd179","66620c7122dbe3626d265e8f","null","","null","","","","","","","","./tasks/HMM-beads/Images/BlackBeadChoiceWrong.png","","","","","","","","","",""
"image-keyboard-response","109","176055","0.0-3.0-4.0-1.0-0.32","63d672fd60ac772cd04cc33b","6662009ae78f21dd82fcd179","66620c7122dbe3626d265e8f","280","","j","","","","","","","","./tasks/HMM-beads/Images/NewTrialWC.png","practice","0","32","1","1","1","1","true","",""
"image-keyboard-response","110","176362","0.0-3.0-4.0-1.0-1.32","63d672fd60ac772cd04cc33b","6662009ae78f21dd82fcd179","66620c7122dbe3626d265e8f","null","","null","","","","","","","","./tasks/HMM-beads/Images/WhiteBeadChoice.png","","","","","","","","","",""
"image-keyboard-response","111","176870","0.0-3.0-4.0-1.0-2.32","63d672fd60ac772cd04cc33b","6662009ae78f21dd82fcd179","66620c7122dbe3626d265e8f","null","","null","","","","","","","","./tasks/HMM-beads/Images/WhiteBeadChoiceCorrect.png","","","","","","","","","",""
"image-keyboard-response","112","177136","0.0-3.0-4.0-1.0-0.33","63d672fd60ac772cd04cc33b","6662009ae78f21dd82fcd179","66620c7122dbe3626d265e8f","244","","j","","","","","","","","./tasks/HMM-beads/Images/NewTrialWC.png","practice","0","33","1","1","1","1","true","",""
"image-keyboard-response","113","177440","0.0-3.0-4.0-1.0-1.33","63d672fd60ac772cd04cc33b","6662009ae78f21dd82fcd179","66620c7122dbe3626d265e8f","null","","null","","","","","","","","./tasks/HMM-beads/Images/WhiteBeadChoice.png","","","","","","","","","",""
"image-keyboard-response","114","177949","0.0-3.0-4.0-1.0-2.33","63d672fd60ac772cd04cc33b","6662009ae78f21dd82fcd179","66620c7122dbe3626d265e8f","null","","null","","","","","","","","./tasks/HMM-beads/Images/WhiteBeadChoiceCorrect.png","","","","","","","","","",""
"image-keyboard-response","115","178247","0.0-3.0-4.0-1.0-0.34","63d672fd60ac772cd04cc33b","6662009ae78f21dd82fcd179","66620c7122dbe3626d265e8f","290","","j","","","","","","","","./tasks/HMM-beads/Images/NewTrialWC.png","practice","0","34","1","1","1","1","true","",""
"image-keyboard-response","116","178555","0.0-3.0-4.0-1.0-1.34","63d672fd60ac772cd04cc33b","6662009ae78f21dd82fcd179","66620c7122dbe3626d265e8f","null","","null","","","","","","","","./tasks/HMM-beads/Images/WhiteBeadChoice.png","","","","","","","","","",""
"image-keyboard-response","117","179062","0.0-3.0-4.0-1.0-2.34","63d672fd60ac772cd04cc33b","6662009ae78f21dd82fcd179","66620c7122dbe3626d265e8f","null","","null","","","","","","","","./tasks/HMM-beads/Images/WhiteBeadChoiceCorrect.png","","","","","","","","","",""
"image-keyboard-response","118","179378","0.0-3.0-4.0-1.0-0.35","63d672fd60ac772cd04cc33b","6662009ae78f21dd82fcd179","66620c7122dbe3626d265e8f","307","","j","","","","","","","","./tasks/HMM-beads/Images/NewTrialWC.png","practice","0","35","1","1","1","1","true","",""
"image-keyboard-response","119","179686","0.0-3.0-4.0-1.0-1.35","63d672fd60ac772cd04cc33b","6662009ae78f21dd82fcd179","66620c7122dbe3626d265e8f","null","","null","","","","","","","","./tasks/HMM-beads/Images/WhiteBeadChoice.png","","","","","","","","","",""
"image-keyboard-response","120","180192","0.0-3.0-4.0-1.0-2.35","63d672fd60ac772cd04cc33b","6662009ae78f21dd82fcd179","66620c7122dbe3626d265e8f","null","","null","","","","","","","","./tasks/HMM-beads/Images/WhiteBeadChoiceCorrect.png","","","","","","","","","",""
"image-keyboard-response","121","180520","0.0-3.0-4.0-1.0-0.36","63d672fd60ac772cd04cc33b","6662009ae78f21dd82fcd179","66620c7122dbe3626d265e8f","321","","j","","","","","","","","./tasks/HMM-beads/Images/NewTrialWC.png","practice","0","36","1","0","1","1","false","",""
"image-keyboard-response","122","180825","0.0-3.0-4.0-1.0-1.36","63d672fd60ac772cd04cc33b","6662009ae78f21dd82fcd179","66620c7122dbe3626d265e8f","null","","null","","","","","","","","./tasks/HMM-beads/Images/WhiteBeadChoice.png","","","","","","","","","",""
"image-keyboard-response","123","181331","0.0-3.0-4.0-1.0-2.36","63d672fd60ac772cd04cc33b","6662009ae78f21dd82fcd179","66620c7122dbe3626d265e8f","null","","null","","","","","","","","./tasks/HMM-beads/Images/WhiteBeadChoiceWrong.png","","","","","","","","","",""
"image-keyboard-response","124","181543","0.0-3.0-4.0-1.0-0.37","63d672fd60ac772cd04cc33b","6662009ae78f21dd82fcd179","66620c7122dbe3626d265e8f","205","","f","","","","","","","","./tasks/HMM-beads/Images/NewTrialBC.png","practice","0","37","1","1","0","0","false","",""
"image-keyboard-response","125","181871","0.0-3.0-4.0-1.0-1.37","63d672fd60ac772cd04cc33b","6662009ae78f21dd82fcd179","66620c7122dbe3626d265e8f","null","","null","","","","","","","","./tasks/HMM-beads/Images/BlackBeadChoice.png","","","","","","","","","",""
"image-keyboard-response","126","182378","0.0-3.0-4.0-1.0-2.37","63d672fd60ac772cd04cc33b","6662009ae78f21dd82fcd179","66620c7122dbe3626d265e8f","null","","null","","","","","","","","./tasks/HMM-beads/Images/BlackBeadChoiceWrong.png","","","","","","","","","",""
"image-keyboard-response","127","182631","0.0-3.0-4.0-1.0-0.38","63d672fd60ac772cd04cc33b","6662009ae78f21dd82fcd179","66620c7122dbe3626d265e8f","246","","j","","","","","","","","./tasks/HMM-beads/Images/NewTrialWC.png","practice","0","38","1","1","1","1","true","",""
"image-keyboard-response","128","182937","0.0-3.0-4.0-1.0-1.38","63d672fd60ac772cd04cc33b","6662009ae78f21dd82fcd179","66620c7122dbe3626d265e8f","null","","null","","","","","","","","./tasks/HMM-beads/Images/WhiteBeadChoice.png","","","","","","","","","",""
"image-keyboard-response","129","183445","0.0-3.0-4.0-1.0-2.38","63d672fd60ac772cd04cc33b","6662009ae78f21dd82fcd179","66620c7122dbe3626d265e8f","null","","null","","","","","","","","./tasks/HMM-beads/Images/WhiteBeadChoiceCorrect.png","","","","","","","","","",""
"image-keyboard-response","130","183521","0.0-3.0-4.0-1.0-0.39","63d672fd60ac772cd04cc33b","6662009ae78f21dd82fcd179","66620c7122dbe3626d265e8f","68","","j","","","","","","","","./tasks/HMM-beads/Images/NewTrialWC.png","practice","0","39","1","1","1","1","true","",""
"image-keyboard-response","131","183831","0.0-3.0-4.0-1.0-1.39","63d672fd60ac772cd04cc33b","6662009ae78f21dd82fcd179","66620c7122dbe3626d265e8f","null","","null","","","","","","","","./tasks/HMM-beads/Images/WhiteBeadChoice.png","","","","","","","","","",""
"image-keyboard-response","132","184339","0.0-3.0-4.0-1.0-2.39","63d672fd60ac772cd04cc33b","6662009ae78f21dd82fcd179","66620c7122dbe3626d265e8f","null","","null","","","","","","","","./tasks/HMM-beads/Images/WhiteBeadChoiceCorrect.png","","","","","","","","","",""
"html-keyboard-response","133","187808","0.0-3.0-4.0-2.0","63d672fd60ac772cd04cc33b","6662009ae78f21dd82fcd179","66620c7122dbe3626d265e8f","3460",""," ","","","","","","","","","","","","","","","","","",""
"instructions","134","197574","0.0-3.0-5.0","63d672fd60ac772cd04cc33b","6662009ae78f21dd82fcd179","66620c7122dbe3626d265e8f","9760","","","","[{""page_index"":0,""viewing_time"":6531},{""page_index"":1,""viewing_time"":3227}]","","","","","","","","","","","","","","","",""
"html-keyboard-response","135","200726","0.0-3.0-6.0-0.0","63d672fd60ac772cd04cc33b","6662009ae78f21dd82fcd179","66620c7122dbe3626d265e8f","3147",""," ","","","","","","","","<div align=center>In this block, there will be a <b>1% chance</b> that the jar on the next trial will be different from the jar on the current trial.<br><br></div>","","","","","","","","","",""
"image-keyboard-response","136","201783","0.0-3.0-6.0-1.0-0.0","63d672fd60ac772cd04cc33b","6662009ae78f21dd82fcd179","66620c7122dbe3626d265e8f","1052","","f","","","","","","","","./tasks/HMM-beads/Images/NoChoice.png","lowH","1","0","1","0","9","0","true","",""
"image-keyboard-response","137","202089","0.0-3.0-6.0-1.0-1.0","63d672fd60ac772cd04cc33b","6662009ae78f21dd82fcd179","66620c7122dbe3626d265e8f","null","","null","","","","","","","","./tasks/HMM-beads/Images/BlackBeadChoice.png","","","","","","","","","",""
"image-keyboard-response","138","202594","0.0-3.0-6.0-1.0-2.0","63d672fd60ac772cd04cc33b","6662009ae78f21dd82fcd179","66620c7122dbe3626d265e8f","null","","null","","","","","","","","./tasks/HMM-beads/Images/BlackBeadChoiceCorrect.png","","","","","","","","","",""
"image-keyboard-response","139","203479","0.0-3.0-6.0-1.0-0.1","63d672fd60ac772cd04cc33b","6662009ae78f21dd82fcd179","66620c7122dbe3626d265e8f","880","","f","","","","","","","","./tasks/HMM-beads/Images/NewTrialBC.png","lowH","1","1","1","1","0","0","false","",""
"image-keyboard-response","140","203784","0.0-3.0-6.0-1.0-1.1","63d672fd60ac772cd04cc33b","6662009ae78f21dd82fcd179","66620c7122dbe3626d265e8f","null","","null","","","","","","","","./tasks/HMM-beads/Images/BlackBeadChoice.png","","","","","","","","","",""
"image-keyboard-response","141","204293","0.0-3.0-6.0-1.0-2.1","63d672fd60ac772cd04cc33b","6662009ae78f21dd82fcd179","66620c7122dbe3626d265e8f","null","","null","","","","","","","","./tasks/HMM-beads/Images/BlackBeadChoiceWrong.png","","","","","","","","","",""
"image-keyboard-response","142","204318","0.0-3.0-6.0-1.0-0.2","63d672fd60ac772cd04cc33b","6662009ae78f21dd82fcd179","66620c7122dbe3626d265e8f","17","","j","","","","","","","","./tasks/HMM-beads/Images/NewTrialWC.png","lowH","1","2","1","1","1","1","true","",""
"image-keyboard-response","143","204622","0.0-3.0-6.0-1.0-1.2","63d672fd60ac772cd04cc33b","6662009ae78f21dd82fcd179","66620c7122dbe3626d265e8f","null","","null","","","","","","","","./tasks/HMM-beads/Images/WhiteBeadChoice.png","","","","","","","","","",""
"image-keyboard-response","144","205129","0.0-3.0-6.0-1.0-2.2","63d672fd60ac772cd04cc33b","6662009ae78f21dd82fcd179","66620c7122dbe3626d265e8f","null","","null","","","","","","","","./tasks/HMM-beads/Images/WhiteBeadChoiceCorrect.png","","","","","","","","","",""
"image-keyboard-response","145","206252","0.0-3.0-6.0-1.0-0.3","63d672fd60ac772cd04cc33b","6662009ae78f21dd82fcd179","66620c7122dbe3626d265e8f","1118","","j","","","","","","","","./tasks/HMM-beads/Images/NewTrialWC.png","lowH","1","3","1","1","1","1","true","",""
"image-keyboard-response","146","206561","0.0-3.0-6.0-1.0-1.3","63d672fd60ac772cd04cc33b","6662009ae78f21dd82fcd179","66620c7122dbe3626d265e8f","null","","null","","","","","","","","./tasks/HMM-beads/Images/WhiteBeadChoice.png","","","","","","","","","",""
"image-keyboard-response","147","207070","0.0-3.0-6.0-1.0-2.3","63d672fd60ac772cd04cc33b","6662009ae78f21dd82fcd179","66620c7122dbe3626d265e8f","null","","null","","","","","","","","./tasks/HMM-beads/Images/WhiteBeadChoiceCorrect.png","","","","","","","","","",""
"image-keyboard-response","148","207344","0.0-3.0-6.0-1.0-0.4","63d672fd60ac772cd04cc33b","6662009ae78f21dd82fcd179","66620c7122dbe3626d265e8f","267","","j","","","","","","","","./tasks/HMM-beads/Images/NewTrialWC.png","lowH","1","4","1","1","1","1","true","",""
"image-keyboard-response","149","207651","0.0-3.0-6.0-1.0-1.4","63d672fd60ac772cd04cc33b","6662009ae78f21dd82fcd179","66620c7122dbe3626d265e8f","null","","null","","","","","","","","./tasks/HMM-beads/Images/WhiteBeadChoice.png","","","","","","","","","",""
"image-keyboard-response","150","208160","0.0-3.0-6.0-1.0-2.4","63d672fd60ac772cd04cc33b","6662009ae78f21dd82fcd179","66620c7122dbe3626d265e8f","null","","null","","","","","","","","./tasks/HMM-beads/Images/WhiteBeadChoiceCorrect.png","","","","","","","","","",""
"image-keyboard-response","151","208460","0.0-3.0-6.0-1.0-0.5","63d672fd60ac772cd04cc33b","6662009ae78f21dd82fcd179","66620c7122dbe3626d265e8f","279","","j","","","","","","","","./tasks/HMM-beads/Images/NewTrialWC.png","lowH","1","5","1","1","1","1","true","",""
"image-keyboard-response","152","208766","0.0-3.0-6.0-1.0-1.5","63d672fd60ac772cd04cc33b","6662009ae78f21dd82fcd179","66620c7122dbe3626d265e8f","null","","null","","","","","","","","./tasks/HMM-beads/Images/WhiteBeadChoice.png","","","","","","","","","",""
"image-keyboard-response","153","209274","0.0-3.0-6.0-1.0-2.5","63d672fd60ac772cd04cc33b","6662009ae78f21dd82fcd179","66620c7122dbe3626d265e8f","null","","null","","","","","","","","./tasks/HMM-beads/Images/WhiteBeadChoiceCorrect.png","","","","","","","","","",""
"image-keyboard-response","154","209562","0.0-3.0-6.0-1.0-0.6","63d672fd60ac772cd04cc33b","6662009ae78f21dd82fcd179","66620c7122dbe3626d265e8f","281","","j","","","","","","","","./tasks/HMM-beads/Images/NewTrialWC.png","lowH","1","6","1","0","1","1","false","",""
"image-keyboard-response","155","209866","0.0-3.0-6.0-1.0-1.6","63d672fd60ac772cd04cc33b","6662009ae78f21dd82fcd179","66620c7122dbe3626d265e8f","null","","null","","","","","","","","./tasks/HMM-beads/Images/WhiteBeadChoice.png","","","","","","","","","",""
"image-keyboard-response","156","210374","0.0-3.0-6.0-1.0-2.6","63d672fd60ac772cd04cc33b","6662009ae78f21dd82fcd179","66620c7122dbe3626d265e8f","null","","null","","","","","","","","./tasks/HMM-beads/Images/WhiteBeadChoiceWrong.png","","","","","","","","","",""
"image-keyboard-response","157","210552","0.0-3.0-6.0-1.0-0.7","63d672fd60ac772cd04cc33b","6662009ae78f21dd82fcd179","66620c7122dbe3626d265e8f","173","","f","","","","","","","","./tasks/HMM-beads/Images/NewTrialBC.png","lowH","1","7","1","1","0","0","false","",""
"image-keyboard-response","158","210859","0.0-3.0-6.0-1.0-1.7","63d672fd60ac772cd04cc33b","6662009ae78f21dd82fcd179","66620c7122dbe3626d265e8f","null","","null","","","","","","","","./tasks/HMM-beads/Images/BlackBeadChoice.png","","","","","","","","","",""
"image-keyboard-response","159","211369","0.0-3.0-6.0-1.0-2.7","63d672fd60ac772cd04cc33b","6662009ae78f21dd82fcd179","66620c7122dbe3626d265e8f","null","","null","","","","","","","","./tasks/HMM-beads/Images/BlackBeadChoiceWrong.png","","","","","","","","","",""
"image-keyboard-response","160","211692","0.0-3.0-6.0-1.0-0.8","63d672fd60ac772cd04cc33b","6662009ae78f21dd82fcd179","66620c7122dbe3626d265e8f","315","","j","","","","","","","","./tasks/HMM-beads/Images/NewTrialWC.png","lowH","1","8","1","1","1","1","true","",""
"image-keyboard-response","161","211997","0.0-3.0-6.0-1.0-1.8","63d672fd60ac772cd04cc33b","6662009ae78f21dd82fcd179","66620c7122dbe3626d265e8f","null","","null","","","","","","","","./tasks/HMM-beads/Images/WhiteBeadChoice.png","","","","","","","","","",""
"image-keyboard-response","162","212501","0.0-3.0-6.0-1.0-2.8","63d672fd60ac772cd04cc33b","6662009ae78f21dd82fcd179","66620c7122dbe3626d265e8f","null","","null","","","","","","","","./tasks/HMM-beads/Images/WhiteBeadChoiceCorrect.png","","","","","","","","","",""
"image-keyboard-response","163","212718","0.0-3.0-6.0-1.0-0.9","63d672fd60ac772cd04cc33b","6662009ae78f21dd82fcd179","66620c7122dbe3626d265e8f","210","","j","","","","","","","","./tasks/HMM-beads/Images/NewTrialWC.png","lowH","1","9","1","1","1","1","true","",""
"image-keyboard-response","164","213042","0.0-3.0-6.0-1.0-1.9","63d672fd60ac772cd04cc33b","6662009ae78f21dd82fcd179","66620c7122dbe3626d265e8f","null","","null","","","","","","","","./tasks/HMM-beads/Images/WhiteBeadChoice.png","","","","","","","","","",""
"image-keyboard-response","165","213547","0.0-3.0-6.0-1.0-2.9","63d672fd60ac772cd04cc33b","6662009ae78f21dd82fcd179","66620c7122dbe3626d265e8f","null","","null","","","","","","","","./tasks/HMM-beads/Images/WhiteBeadChoiceCorrect.png","","","","","","","","","",""
"image-keyboard-response","166","213842","0.0-3.0-6.0-1.0-0.10","63d672fd60ac772cd04cc33b","6662009ae78f21dd82fcd179","66620c7122dbe3626d265e8f","289","","j","","","","","","","","./tasks/HMM-beads/Images/NewTrialWC.png","lowH","1","10","1","1","1","1","true","",""
"image-keyboard-response","167","214149","0.0-3.0-6.0-1.0-1.10","63d672fd60ac772cd04cc33b","6662009ae78f21dd82fcd179","66620c7122dbe3626d265e8f","null","","null","","","","","","","","./tasks/HMM-beads/Images/WhiteBeadChoice.png","","","","","","","","","",""
"image-keyboard-response","168","214657","0.0-3.0-6.0-1.0-2.10","63d672fd60ac772cd04cc33b","6662009ae78f21dd82fcd179","66620c7122dbe3626d265e8f","null","","null","","","","","","","","./tasks/HMM-beads/Images/WhiteBeadChoiceCorrect.png","","","","","","","","","",""
"image-keyboard-response","169","214886","0.0-3.0-6.0-1.0-0.11","63d672fd60ac772cd04cc33b","6662009ae78f21dd82fcd179","66620c7122dbe3626d265e8f","221","","j","","","","","","","","./tasks/HMM-beads/Images/NewTrialWC.png","lowH","1","11","1","1","1","1","true","",""
"image-keyboard-response","170","215192","0.0-3.0-6.0-1.0-1.11","63d672fd60ac772cd04cc33b","6662009ae78f21dd82fcd179","66620c7122dbe3626d265e8f","null","","null","","","","","","","","./tasks/HMM-beads/Images/WhiteBeadChoice.png","","","","","","","","","",""
"image-keyboard-response","171","215700","0.0-3.0-6.0-1.0-2.11","63d672fd60ac772cd04cc33b","6662009ae78f21dd82fcd179","66620c7122dbe3626d265e8f","null","","null","","","","","","","","./tasks/HMM-beads/Images/WhiteBeadChoiceCorrect.png","","","","","","","","","",""
"image-keyboard-response","172","215952","0.0-3.0-6.0-1.0-0.12","63d672fd60ac772cd04cc33b","6662009ae78f21dd82fcd179","66620c7122dbe3626d265e8f","249","","j","","","","","","","","./tasks/HMM-beads/Images/NewTrialWC.png","lowH","1","12","1","1","1","1","true","",""
"image-keyboard-response","173","216261","0.0-3.0-6.0-1.0-1.12","63d672fd60ac772cd04cc33b","6662009ae78f21dd82fcd179","66620c7122dbe3626d265e8f","null","","null","","","","","","","","./tasks/HMM-beads/Images/WhiteBeadChoice.png","","","","","","","","","",""
"image-keyboard-response","174","216769","0.0-3.0-6.0-1.0-2.12","63d672fd60ac772cd04cc33b","6662009ae78f21dd82fcd179","66620c7122dbe3626d265e8f","null","","null","","","","","","","","./tasks/HMM-beads/Images/WhiteBeadChoiceCorrect.png","","","","","","","","","",""
"image-keyboard-response","175","216990","0.0-3.0-6.0-1.0-0.13","63d672fd60ac772cd04cc33b","6662009ae78f21dd82fcd179","66620c7122dbe3626d265e8f","214","","j","","","","","","","","./tasks/HMM-beads/Images/NewTrialWC.png","lowH","1","13","1","0","1","1","false","",""
"image-keyboard-response","176","217298","0.0-3.0-6.0-1.0-1.13","63d672fd60ac772cd04cc33b","6662009ae78f21dd82fcd179","66620c7122dbe3626d265e8f","null","","null","","","","","","","","./tasks/HMM-beads/Images/WhiteBeadChoice.png","","","","","","","","","",""
"image-keyboard-response","177","217805","0.0-3.0-6.0-1.0-2.13","63d672fd60ac772cd04cc33b","6662009ae78f21dd82fcd179","66620c7122dbe3626d265e8f","null","","null","","","","","","","","./tasks/HMM-beads/Images/WhiteBeadChoiceWrong.png","","","","","","","","","",""
"image-keyboard-response","178","218054","0.0-3.0-6.0-1.0-0.14","63d672fd60ac772cd04cc33b","6662009ae78f21dd82fcd179","66620c7122dbe3626d265e8f","241","","f","","","","","","","","./tasks/HMM-beads/Images/NewTrialBC.png","lowH","1","14","1","0","0","0","true","",""
"image-keyboard-response","179","218359","0.0-3.0-6.0-1.0-1.14","63d672fd60ac772cd04cc33b","6662009ae78f21dd82fcd179","66620c7122dbe3626d265e8f","null","","null","","","","","","","","./tasks/HMM-beads/Images/BlackBeadChoice.png","","","","","","","","","",""
"image-keyboard-response","180","218868","0.0-3.0-6.0-1.0-2.14","63d672fd60ac772cd04cc33b","6662009ae78f21dd82fcd179","66620c7122dbe3626d265e8f","null","","null","","","","","","","","./tasks/HMM-beads/Images/BlackBeadChoiceCorrect.png","","","","","","","","","",""
"image-keyboard-response","181","219123","0.0-3.0-6.0-1.0-0.15","63d672fd60ac772cd04cc33b","6662009ae78f21dd82fcd179","66620c7122dbe3626d265e8f","248","","f","","","","","","","","./tasks/HMM-beads/Images/NewTrialBC.png","lowH","1","15","1","1","0","0","false","",""
"image-keyboard-response","182","219431","0.0-3.0-6.0-1.0-1.15","63d672fd60ac772cd04cc33b","6662009ae78f21dd82fcd179","66620c7122dbe3626d265e8f","null","","null","","","","","","","","./tasks/HMM-beads/Images/BlackBeadChoice.png","","","","","","","","","",""
"image-keyboard-response","183","219940","0.0-3.0-6.0-1.0-2.15","63d672fd60ac772cd04cc33b","6662009ae78f21dd82fcd179","66620c7122dbe3626d265e8f","null","","null","","","","","","","","./tasks/HMM-beads/Images/BlackBeadChoiceWrong.png","","","","","","","","","",""
"image-keyboard-response","184","220130","0.0-3.0-6.0-1.0-0.16","63d672fd60ac772cd04cc33b","6662009ae78f21dd82fcd179","66620c7122dbe3626d265e8f","182","","j","","","","","","","","./tasks/HMM-beads/Images/NewTrialWC.png","lowH","1","16","1","1","1","1","true","",""
"image-keyboard-response","185","220437","0.0-3.0-6.0-1.0-1.16","63d672fd60ac772cd04cc33b","6662009ae78f21dd82fcd179","66620c7122dbe3626d265e8f","null","","null","","","","","","","","./tasks/HMM-beads/Images/WhiteBeadChoice.png","","","","","","","","","",""
"image-keyboard-response","186","220963","0.0-3.0-6.0-1.0-2.16","63d672fd60ac772cd04cc33b","6662009ae78f21dd82fcd179","66620c7122dbe3626d265e8f","null","","null","","","","","","","","./tasks/HMM-beads/Images/WhiteBeadChoiceCorrect.png","","","","","","","","","",""
"image-keyboard-response","187","221161","0.0-3.0-6.0-1.0-0.17","63d672fd60ac772cd04cc33b","6662009ae78f21dd82fcd179","66620c7122dbe3626d265e8f","189","","j","","","","","","","","./tasks/HMM-beads/Images/NewTrialWC.png","lowH","1","17","1","1","1","1","true","",""
"image-keyboard-response","188","221468","0.0-3.0-6.0-1.0-1.17","63d672fd60ac772cd04cc33b","6662009ae78f21dd82fcd179","66620c7122dbe3626d265e8f","null","","null","","","","","","","","./tasks/HMM-beads/Images/WhiteBeadChoice.png","","","","","","","","","",""
"image-keyboard-response","189","221975","0.0-3.0-6.0-1.0-2.17","63d672fd60ac772cd04cc33b","6662009ae78f21dd82fcd179","66620c7122dbe3626d265e8f","null","","null","","","","","","","","./tasks/HMM-beads/Images/WhiteBeadChoiceCorrect.png","","","","","","","","","",""
"image-keyboard-response","190","222213","0.0-3.0-6.0-1.0-0.18","63d672fd60ac772cd04cc33b","6662009ae78f21dd82fcd179","66620c7122dbe3626d265e8f","231","","j","","","","","","","","./tasks/HMM-beads/Images/NewTrialWC.png","lowH","1","18","1","1","1","1","true","",""
"image-keyboard-response","191","222518","0.0-3.0-6.0-1.0-1.18","63d672fd60ac772cd04cc33b","6662009ae78f21dd82fcd179","66620c7122dbe3626d265e8f","null","","null","","","","","","","","./tasks/HMM-beads/Images/WhiteBeadChoice.png","","","","","","","","","",""
"image-keyboard-response","192","223025","0.0-3.0-6.0-1.0-2.18","63d672fd60ac772cd04cc33b","6662009ae78f21dd82fcd179","66620c7122dbe3626d265e8f","null","","null","","","","","","","","./tasks/HMM-beads/Images/WhiteBeadChoiceCorrect.png","","","","","","","","","",""
"image-keyboard-response","193","223360","0.0-3.0-6.0-1.0-0.19","63d672fd60ac772cd04cc33b","6662009ae78f21dd82fcd179","66620c7122dbe3626d265e8f","329","","j","","","","","","","","./tasks/HMM-beads/Images/NewTrialWC.png","lowH","1","19","1","1","1","1","true","",""
"image-keyboard-response","194","223669","0.0-3.0-6.0-1.0-1.19","63d672fd60ac772cd04cc33b","6662009ae78f21dd82fcd179","66620c7122dbe3626d265e8f","null","","null","","","","","","","","./tasks/HMM-beads/Images/WhiteBeadChoice.png","","","","","","","","","",""
"image-keyboard-response","195","224179","0.0-3.0-6.0-1.0-2.19","63d672fd60ac772cd04cc33b","6662009ae78f21dd82fcd179","66620c7122dbe3626d265e8f","null","","null","","","","","","","","./tasks/HMM-beads/Images/WhiteBeadChoiceCorrect.png","","","","","","","","","",""
"image-keyboard-response","196","224426","0.0-3.0-6.0-1.0-0.20","63d672fd60ac772cd04cc33b","6662009ae78f21dd82fcd179","66620c7122dbe3626d265e8f","241","","j","","","","","","","","./tasks/HMM-beads/Images/NewTrialWC.png","lowH","1","20","1","1","1","1","true","",""
"image-keyboard-response","197","224734","0.0-3.0-6.0-1.0-1.20","63d672fd60ac772cd04cc33b","6662009ae78f21dd82fcd179","66620c7122dbe3626d265e8f","null","","null","","","","","","","","./tasks/HMM-beads/Images/WhiteBeadChoice.png","","","","","","","","","",""
"image-keyboard-response","198","225242","0.0-3.0-6.0-1.0-2.20","63d672fd60ac772cd04cc33b","6662009ae78f21dd82fcd179","66620c7122dbe3626d265e8f","null","","null","","","","","","","","./tasks/HMM-beads/Images/WhiteBeadChoiceCorrect.png","","","","","","","","","",""
"image-keyboard-response","199","225498","0.0-3.0-6.0-1.0-0.21","63d672fd60ac772cd04cc33b","6662009ae78f21dd82fcd179","66620c7122dbe3626d265e8f","232","","j","","","","","","","","./tasks/HMM-beads/Images/NewTrialWC.png","lowH","1","21","1","1","1","1","true","",""
"image-keyboard-response","200","225803","0.0-3.0-6.0-1.0-1.21","63d672fd60ac772cd04cc33b","6662009ae78f21dd82fcd179","66620c7122dbe3626d265e8f","null","","null","","","","","","","","./tasks/HMM-beads/Images/WhiteBeadChoice.png","","","","","","","","","",""
"image-keyboard-response","201","226311","0.0-3.0-6.0-1.0-2.21","63d672fd60ac772cd04cc33b","6662009ae78f21dd82fcd179","66620c7122dbe3626d265e8f","null","","null","","","","","","","","./tasks/HMM-beads/Images/WhiteBeadChoiceCorrect.png","","","","","","","","","",""
"image-keyboard-response","202","226514","0.0-3.0-6.0-1.0-0.22","63d672fd60ac772cd04cc33b","6662009ae78f21dd82fcd179","66620c7122dbe3626d265e8f","196","","j","","","","","","","","./tasks/HMM-beads/Images/NewTrialWC.png","lowH","1","22","1","1","1","1","true","",""
"image-keyboard-response","203","226820","0.0-3.0-6.0-1.0-1.22","63d672fd60ac772cd04cc33b","6662009ae78f21dd82fcd179","66620c7122dbe3626d265e8f","null","","null","","","","","","","","./tasks/HMM-beads/Images/WhiteBeadChoice.png","","","","","","","","","",""
"image-keyboard-response","204","227327","0.0-3.0-6.0-1.0-2.22","63d672fd60ac772cd04cc33b","6662009ae78f21dd82fcd179","66620c7122dbe3626d265e8f","null","","null","","","","","","","","./tasks/HMM-beads/Images/WhiteBeadChoiceCorrect.png","","","","","","","","","",""
"image-keyboard-response","205","227535","0.0-3.0-6.0-1.0-0.23","63d672fd60ac772cd04cc33b","6662009ae78f21dd82fcd179","66620c7122dbe3626d265e8f","199","","j","","","","","","","","./tasks/HMM-beads/Images/NewTrialWC.png","lowH","1","23","1","1","1","1","true","",""
"image-keyboard-response","206","227841","0.0-3.0-6.0-1.0-1.23","63d672fd60ac772cd04cc33b","6662009ae78f21dd82fcd179","66620c7122dbe3626d265e8f","null","","null","","","","","","","","./tasks/HMM-beads/Images/WhiteBeadChoice.png","","","","","","","","","",""
"image-keyboard-response","207","228350","0.0-3.0-6.0-1.0-2.23","63d672fd60ac772cd04cc33b","6662009ae78f21dd82fcd179","66620c7122dbe3626d265e8f","null","","null","","","","","","","","./tasks/HMM-beads/Images/WhiteBeadChoiceCorrect.png","","","","","","","","","",""
"image-keyboard-response","208","228615","0.0-3.0-6.0-1.0-0.24","63d672fd60ac772cd04cc33b","6662009ae78f21dd82fcd179","66620c7122dbe3626d265e8f","255","","j","","","","","","","","./tasks/HMM-beads/Images/NewTrialWC.png","lowH","1","24","1","0","1","1","false","",""
"image-keyboard-response","209","228919","0.0-3.0-6.0-1.0-1.24","63d672fd60ac772cd04cc33b","6662009ae78f21dd82fcd179","66620c7122dbe3626d265e8f","null","","null","","","","","","","","./tasks/HMM-beads/Images/WhiteBeadChoice.png","","","","","","","","","",""
"image-keyboard-response","210","229428","0.0-3.0-6.0-1.0-2.24","63d672fd60ac772cd04cc33b","6662009ae78f21dd82fcd179","66620c7122dbe3626d265e8f","null","","null","","","","","","","","./tasks/HMM-beads/Images/WhiteBeadChoiceWrong.png","","","","","","","","","",""
"image-keyboard-response","211","229684","0.0-3.0-6.0-1.0-0.25","63d672fd60ac772cd04cc33b","6662009ae78f21dd82fcd179","66620c7122dbe3626d265e8f","248","","f","","","","","","","","./tasks/HMM-beads/Images/NewTrialBC.png","lowH","1","25","1","1","0","0","false","",""
"image-keyboard-response","212","229989","0.0-3.0-6.0-1.0-1.25","63d672fd60ac772cd04cc33b","6662009ae78f21dd82fcd179","66620c7122dbe3626d265e8f","null","","null","","","","","","","","./tasks/HMM-beads/Images/BlackBeadChoice.png","","","","","","","","","",""
"image-keyboard-response","213","230497","0.0-3.0-6.0-1.0-2.25","63d672fd60ac772cd04cc33b","6662009ae78f21dd82fcd179","66620c7122dbe3626d265e8f","null","","null","","","","","","","","./tasks/HMM-beads/Images/BlackBeadChoiceWrong.png","","","","","","","","","",""
"image-keyboard-response","214","230686","0.0-3.0-6.0-1.0-0.26","63d672fd60ac772cd04cc33b","6662009ae78f21dd82fcd179","66620c7122dbe3626d265e8f","181","","j","","","","","","","","./tasks/HMM-beads/Images/NewTrialWC.png","lowH","1","26","1","0","1","1","false","",""
"image-keyboard-response","215","230992","0.0-3.0-6.0-1.0-1.26","63d672fd60ac772cd04cc33b","6662009ae78f21dd82fcd179","66620c7122dbe3626d265e8f","null","","null","","","","","","","","./tasks/HMM-beads/Images/WhiteBeadChoice.png","","","","","","","","","",""
"image-keyboard-response","216","231497","0.0-3.0-6.0-1.0-2.26","63d672fd60ac772cd04cc33b","6662009ae78f21dd82fcd179","66620c7122dbe3626d265e8f","null","","null","","","","","","","","./tasks/HMM-beads/Images/WhiteBeadChoiceWrong.png","","","","","","","","","",""
"image-keyboard-response","217","231699","0.0-3.0-6.0-1.0-0.27","63d672fd60ac772cd04cc33b","6662009ae78f21dd82fcd179","66620c7122dbe3626d265e8f","196","","f","","","","","","","","./tasks/HMM-beads/Images/NewTrialBC.png","lowH","1","27","1","1","0","0","false","",""
"image-keyboard-response","218","232008","0.0-3.0-6.0-1.0-1.27","63d672fd60ac772cd04cc33b","6662009ae78f21dd82fcd179","66620c7122dbe3626d265e8f","null","","null","","","","","","","","./tasks/HMM-beads/Images/BlackBeadChoice.png","","","","","","","","","",""
"image-keyboard-response","219","232517","0.0-3.0-6.0-1.0-2.27","63d672fd60ac772cd04cc33b","6662009ae78f21dd82fcd179","66620c7122dbe3626d265e8f","null","","null","","","","","","","","./tasks/HMM-beads/Images/BlackBeadChoiceWrong.png","","","","","","","","","",""
"image-keyboard-response","220","232700","0.0-3.0-6.0-1.0-0.28","63d672fd60ac772cd04cc33b","6662009ae78f21dd82fcd179","66620c7122dbe3626d265e8f","163","","j","","","","","","","","./tasks/HMM-beads/Images/NewTrialWC.png","lowH","1","28","1","1","1","1","true","",""
"image-keyboard-response","221","233007","0.0-3.0-6.0-1.0-1.28","63d672fd60ac772cd04cc33b","6662009ae78f21dd82fcd179","66620c7122dbe3626d265e8f","null","","null","","","","","","","","./tasks/HMM-beads/Images/WhiteBeadChoice.png","","","","","","","","","",""
"image-keyboard-response","222","233516","0.0-3.0-6.0-1.0-2.28","63d672fd60ac772cd04cc33b","6662009ae78f21dd82fcd179","66620c7122dbe3626d265e8f","null","","null","","","","","","","","./tasks/HMM-beads/Images/WhiteBeadChoiceCorrect.png","","","","","","","","","",""
"image-keyboard-response","223","233721","0.0-3.0-6.0-1.0-0.29","63d672fd60ac772cd04cc33b","6662009ae78f21dd82fcd179","66620c7122dbe3626d265e8f","199","","j","","","","","","","","./tasks/HMM-beads/Images/NewTrialWC.png","lowH","1","29","1","1","1","1","true","",""
"image-keyboard-response","224","234028","0.0-3.0-6.0-1.0-1.29","63d672fd60ac772cd04cc33b","6662009ae78f21dd82fcd179","66620c7122dbe3626d265e8f","null","","null","","","","","","","","./tasks/HMM-beads/Images/WhiteBeadChoice.png","","","","","","","","","",""
"image-keyboard-response","225","234537","0.0-3.0-6.0-1.0-2.29","63d672fd60ac772cd04cc33b","6662009ae78f21dd82fcd179","66620c7122dbe3626d265e8f","null","","null","","","","","","","","./tasks/HMM-beads/Images/WhiteBeadChoiceCorrect.png","","","","","","","","","",""
"image-keyboard-response","226","234798","0.0-3.0-6.0-1.0-0.30","63d672fd60ac772cd04cc33b","6662009ae78f21dd82fcd179","66620c7122dbe3626d265e8f","254","","j","","","","","","","","./tasks/HMM-beads/Images/NewTrialWC.png","lowH","1","30","1","1","1","1","true","",""
"image-keyboard-response","227","235104","0.0-3.0-6.0-1.0-1.30","63d672fd60ac772cd04cc33b","6662009ae78f21dd82fcd179","66620c7122dbe3626d265e8f","null","","null","","","","","","","","./tasks/HMM-beads/Images/WhiteBeadChoice.png","","","","","","","","","",""
"image-keyboard-response","228","235611","0.0-3.0-6.0-1.0-2.30","63d672fd60ac772cd04cc33b","6662009ae78f21dd82fcd179","66620c7122dbe3626d265e8f","null","","null","","","","","","","","./tasks/HMM-beads/Images/WhiteBeadChoiceCorrect.png","","","","","","","","","",""
"image-keyboard-response","229","235869","0.0-3.0-6.0-1.0-0.31","63d672fd60ac772cd04cc33b","6662009ae78f21dd82fcd179","66620c7122dbe3626d265e8f","247","","j","","","","","","","","./tasks/HMM-beads/Images/NewTrialWC.png","lowH","1","31","1","1","1","1","true","",""
"image-keyboard-response","230","236174","0.0-3.0-6.0-1.0-1.31","63d672fd60ac772cd04cc33b","6662009ae78f21dd82fcd179","66620c7122dbe3626d265e8f","null","","null","","","","","","","","./tasks/HMM-beads/Images/WhiteBeadChoice.png","","","","","","","","","",""
"image-keyboard-response","231","236686","0.0-3.0-6.0-1.0-2.31","63d672fd60ac772cd04cc33b","6662009ae78f21dd82fcd179","66620c7122dbe3626d265e8f","null","","null","","","","","","","","./tasks/HMM-beads/Images/WhiteBeadChoiceCorrect.png","","","","","","","","","",""
"image-keyboard-response","232","236943","0.0-3.0-6.0-1.0-0.32","63d672fd60ac772cd04cc33b","6662009ae78f21dd82fcd179","66620c7122dbe3626d265e8f","253","","j","","","","","","","","./tasks/HMM-beads/Images/NewTrialWC.png","lowH","1","32","1","1","1","1","true","",""
"image-keyboard-response","233","237264","0.0-3.0-6.0-1.0-1.32","63d672fd60ac772cd04cc33b","6662009ae78f21dd82fcd179","66620c7122dbe3626d265e8f","null","","null","","","","","","","","./tasks/HMM-beads/Images/WhiteBeadChoice.png","","","","","","","","","",""
"image-keyboard-response","234","237771","0.0-3.0-6.0-1.0-2.32","63d672fd60ac772cd04cc33b","6662009ae78f21dd82fcd179","66620c7122dbe3626d265e8f","null","","null","","","","","","","","./tasks/HMM-beads/Images/WhiteBeadChoiceCorrect.png","","","","","","","","","",""
"image-keyboard-response","235","237973","0.0-3.0-6.0-1.0-0.33","63d672fd60ac772cd04cc33b","6662009ae78f21dd82fcd179","66620c7122dbe3626d265e8f","194","","j","","","","","","","","./tasks/HMM-beads/Images/NewTrialWC.png","lowH","1","33","1","1","1","1","true","",""
"image-keyboard-response","236","238277","0.0-3.0-6.0-1.0-1.33","63d672fd60ac772cd04cc33b","6662009ae78f21dd82fcd179","66620c7122dbe3626d265e8f","null","","null","","","","","","","","./tasks/HMM-beads/Images/WhiteBeadChoice.png","","","","","","","","","",""
"image-keyboard-response","237","238784","0.0-3.0-6.0-1.0-2.33","63d672fd60ac772cd04cc33b","6662009ae78f21dd82fcd179","66620c7122dbe3626d265e8f","null","","null","","","","","","","","./tasks/HMM-beads/Images/WhiteBeadChoiceCorrect.png","","","","","","","","","",""
"image-keyboard-response","238","239006","0.0-3.0-6.0-1.0-0.34","63d672fd60ac772cd04cc33b","6662009ae78f21dd82fcd179","66620c7122dbe3626d265e8f","216","","j","","","","","","","","./tasks/HMM-beads/Images/NewTrialWC.png","lowH","1","34","1","1","1","1","true","",""
"image-keyboard-response","239","239314","0.0-3.0-6.0-1.0-1.34","63d672fd60ac772cd04cc33b","6662009ae78f21dd82fcd179","66620c7122dbe3626d265e8f","null","","null","","","","","","","","./tasks/HMM-beads/Images/WhiteBeadChoice.png","","","","","","","","","",""
"image-keyboard-response","240","239822","0.0-3.0-6.0-1.0-2.34","63d672fd60ac772cd04cc33b","6662009ae78f21dd82fcd179","66620c7122dbe3626d265e8f","null","","null","","","","","","","","./tasks/HMM-beads/Images/WhiteBeadChoiceCorrect.png","","","","","","","","","",""
"image-keyboard-response","241","240027","0.0-3.0-6.0-1.0-0.35","63d672fd60ac772cd04cc33b","6662009ae78f21dd82fcd179","66620c7122dbe3626d265e8f","199","","j","","","","","","","","./tasks/HMM-beads/Images/NewTrialWC.png","lowH","1","35","1","1","1","1","true","",""
"image-keyboard-response","242","240349","0.0-3.0-6.0-1.0-1.35","63d672fd60ac772cd04cc33b","6662009ae78f21dd82fcd179","66620c7122dbe3626d265e8f","null","","null","","","","","","","","./tasks/HMM-beads/Images/WhiteBeadChoice.png","","","","","","","","","",""
"image-keyboard-response","243","240854","0.0-3.0-6.0-1.0-2.35","63d672fd60ac772cd04cc33b","6662009ae78f21dd82fcd179","66620c7122dbe3626d265e8f","null","","null","","","","","","","","./tasks/HMM-beads/Images/WhiteBeadChoiceCorrect.png","","","","","","","","","",""
"image-keyboard-response","244","241078","0.0-3.0-6.0-1.0-0.36","63d672fd60ac772cd04cc33b","6662009ae78f21dd82fcd179","66620c7122dbe3626d265e8f","217","","j","","","","","","","","./tasks/HMM-beads/Images/NewTrialWC.png","lowH","1","36","1","1","1","1","true","",""
"image-keyboard-response","245","241383","0.0-3.0-6.0-1.0-1.36","63d672fd60ac772cd04cc33b","6662009ae78f21dd82fcd179","66620c7122dbe3626d265e8f","null","","null","","","","","","","","./tasks/HMM-beads/Images/WhiteBeadChoice.png","","","","","","","","","",""
"image-keyboard-response","246","241890","0.0-3.0-6.0-1.0-2.36","63d672fd60ac772cd04cc33b","6662009ae78f21dd82fcd179","66620c7122dbe3626d265e8f","null","","null","","","","","","","","./tasks/HMM-beads/Images/WhiteBeadChoiceCorrect.png","","","","","","","","","",""
"image-keyboard-response","247","242027","0.0-3.0-6.0-1.0-0.37","63d672fd60ac772cd04cc33b","6662009ae78f21dd82fcd179","66620c7122dbe3626d265e8f","129","","j","","","","","","","","./tasks/HMM-beads/Images/NewTrialWC.png","lowH","1","37","1","1","1","1","true","",""
"image-keyboard-response","248","242336","0.0-3.0-6.0-1.0-1.37","63d672fd60ac772cd04cc33b","6662009ae78f21dd82fcd179","66620c7122dbe3626d265e8f","null","","null","","","","","","","","./tasks/HMM-beads/Images/WhiteBeadChoice.png","","","","","","","","","",""
"image-keyboard-response","249","242841","0.0-3.0-6.0-1.0-2.37","63d672fd60ac772cd04cc33b","6662009ae78f21dd82fcd179","66620c7122dbe3626d265e8f","null","","null","","","","","","","","./tasks/HMM-beads/Images/WhiteBeadChoiceCorrect.png","","","","","","","","","",""
"image-keyboard-response","250","242986","0.0-3.0-6.0-1.0-0.38","63d672fd60ac772cd04cc33b","6662009ae78f21dd82fcd179","66620c7122dbe3626d265e8f","139","","j","","","","","","","","./tasks/HMM-beads/Images/NewTrialWC.png","lowH","1","38","1","1","1","1","true","",""
"image-keyboard-response","251","243291","0.0-3.0-6.0-1.0-1.38","63d672fd60ac772cd04cc33b","6662009ae78f21dd82fcd179","66620c7122dbe3626d265e8f","null","","null","","","","","","","","./tasks/HMM-beads/Images/WhiteBeadChoice.png","","","","","","","","","",""
"image-keyboard-response","252","243800","0.0-3.0-6.0-1.0-2.38","63d672fd60ac772cd04cc33b","6662009ae78f21dd82fcd179","66620c7122dbe3626d265e8f","null","","null","","","","","","","","./tasks/HMM-beads/Images/WhiteBeadChoiceCorrect.png","","","","","","","","","",""
"image-keyboard-response","253","243951","0.0-3.0-6.0-1.0-0.39","63d672fd60ac772cd04cc33b","6662009ae78f21dd82fcd179","66620c7122dbe3626d265e8f","143","","j","","","","","","","","./tasks/HMM-beads/Images/NewTrialWC.png","lowH","1","39","1","1","1","1","true","",""
"image-keyboard-response","254","244271","0.0-3.0-6.0-1.0-1.39","63d672fd60ac772cd04cc33b","6662009ae78f21dd82fcd179","66620c7122dbe3626d265e8f","null","","null","","","","","","","","./tasks/HMM-beads/Images/WhiteBeadChoice.png","","","","","","","","","",""
"image-keyboard-response","255","244779","0.0-3.0-6.0-1.0-2.39","63d672fd60ac772cd04cc33b","6662009ae78f21dd82fcd179","66620c7122dbe3626d265e8f","null","","null","","","","","","","","./tasks/HMM-beads/Images/WhiteBeadChoiceCorrect.png","","","","","","","","","",""
"image-keyboard-response","256","244954","0.0-3.0-6.0-1.0-0.40","63d672fd60ac772cd04cc33b","6662009ae78f21dd82fcd179","66620c7122dbe3626d265e8f","168","","j","","","","","","","","./tasks/HMM-beads/Images/NewTrialWC.png","lowH","1","40","1","1","1","1","true","",""
"image-keyboard-response","257","245263","0.0-3.0-6.0-1.0-1.40","63d672fd60ac772cd04cc33b","6662009ae78f21dd82fcd179","66620c7122dbe3626d265e8f","null","","null","","","","","","","","./tasks/HMM-beads/Images/WhiteBeadChoice.png","","","","","","","","","",""
"image-keyboard-response","258","245771","0.0-3.0-6.0-1.0-2.40","63d672fd60ac772cd04cc33b","6662009ae78f21dd82fcd179","66620c7122dbe3626d265e8f","null","","null","","","","","","","","./tasks/HMM-beads/Images/WhiteBeadChoiceCorrect.png","","","","","","","","","",""
"image-keyboard-response","259","245951","0.0-3.0-6.0-1.0-0.41","63d672fd60ac772cd04cc33b","6662009ae78f21dd82fcd179","66620c7122dbe3626d265e8f","173","","j","","","","","","","","./tasks/HMM-beads/Images/NewTrialWC.png","lowH","1","41","1","1","1","1","true","",""
"image-keyboard-response","260","246259","0.0-3.0-6.0-1.0-1.41","63d672fd60ac772cd04cc33b","6662009ae78f21dd82fcd179","66620c7122dbe3626d265e8f","null","","null","","","","","","","","./tasks/HMM-beads/Images/WhiteBeadChoice.png","","","","","","","","","",""
"image-keyboard-response","261","246769","0.0-3.0-6.0-1.0-2.41","63d672fd60ac772cd04cc33b","6662009ae78f21dd82fcd179","66620c7122dbe3626d265e8f","null","","null","","","","","","","","./tasks/HMM-beads/Images/WhiteBeadChoiceCorrect.png","","","","","","","","","",""
"image-keyboard-response","262","247030","0.0-3.0-6.0-1.0-0.42","63d672fd60ac772cd04cc33b","6662009ae78f21dd82fcd179","66620c7122dbe3626d265e8f","255","","j","","","","","","","","./tasks/HMM-beads/Images/NewTrialWC.png","lowH","1","42","1","1","1","1","true","",""
"image-keyboard-response","263","247337","0.0-3.0-6.0-1.0-1.42","63d672fd60ac772cd04cc33b","6662009ae78f21dd82fcd179","66620c7122dbe3626d265e8f","null","","null","","","","","","","","./tasks/HMM-beads/Images/WhiteBeadChoice.png","","","","","","","","","",""
"image-keyboard-response","264","247845","0.0-3.0-6.0-1.0-2.42","63d672fd60ac772cd04cc33b","6662009ae78f21dd82fcd179","66620c7122dbe3626d265e8f","null","","null","","","","","","","","./tasks/HMM-beads/Images/WhiteBeadChoiceCorrect.png","","","","","","","","","",""
"image-keyboard-response","265","248086","0.0-3.0-6.0-1.0-0.43","63d672fd60ac772cd04cc33b","6662009ae78f21dd82fcd179","66620c7122dbe3626d265e8f","235","","j","","","","","","","","./tasks/HMM-beads/Images/NewTrialWC.png","lowH","1","43","1","1","1","1","true","",""
"image-keyboard-response","266","248391","0.0-3.0-6.0-1.0-1.43","63d672fd60ac772cd04cc33b","6662009ae78f21dd82fcd179","66620c7122dbe3626d265e8f","null","","null","","","","","","","","./tasks/HMM-beads/Images/WhiteBeadChoice.png","","","","","","","","","",""
"image-keyboard-response","267","248916","0.0-3.0-6.0-1.0-2.43","63d672fd60ac772cd04cc33b","6662009ae78f21dd82fcd179","66620c7122dbe3626d265e8f","null","","null","","","","","","","","./tasks/HMM-beads/Images/WhiteBeadChoiceCorrect.png","","","","","","","","","",""
"image-keyboard-response","268","249097","0.0-3.0-6.0-1.0-0.44","63d672fd60ac772cd04cc33b","6662009ae78f21dd82fcd179","66620c7122dbe3626d265e8f","173","","j","","","","","","","","./tasks/HMM-beads/Images/NewTrialWC.png","lowH","1","44","1","1","1","1","true","",""
"image-keyboard-response","269","249405","0.0-3.0-6.0-1.0-1.44","63d672fd60ac772cd04cc33b","6662009ae78f21dd82fcd179","66620c7122dbe3626d265e8f","null","","null","","","","","","","","./tasks/HMM-beads/Images/WhiteBeadChoice.png","","","","","","","","","",""
"image-keyboard-response","270","249913","0.0-3.0-6.0-1.0-2.44","63d672fd60ac772cd04cc33b","6662009ae78f21dd82fcd179","66620c7122dbe3626d265e8f","null","","null","","","","","","","","./tasks/HMM-beads/Images/WhiteBeadChoiceCorrect.png","","","","","","","","","",""
"image-keyboard-response","271","250182","0.0-3.0-6.0-1.0-0.45","63d672fd60ac772cd04cc33b","6662009ae78f21dd82fcd179","66620c7122dbe3626d265e8f","260","","j","","","","","","","","./tasks/HMM-beads/Images/NewTrialWC.png","lowH","1","45","1","1","1","1","true","",""
"image-keyboard-response","272","250492","0.0-3.0-6.0-1.0-1.45","63d672fd60ac772cd04cc33b","6662009ae78f21dd82fcd179","66620c7122dbe3626d265e8f","null","","null","","","","","","","","./tasks/HMM-beads/Images/WhiteBeadChoice.png","","","","","","","","","",""
"image-keyboard-response","273","250998","0.0-3.0-6.0-1.0-2.45","63d672fd60ac772cd04cc33b","6662009ae78f21dd82fcd179","66620c7122dbe3626d265e8f","null","","null","","","","","","","","./tasks/HMM-beads/Images/WhiteBeadChoiceCorrect.png","","","","","","","","","",""
"image-keyboard-response","274","251195","0.0-3.0-6.0-1.0-0.46","63d672fd60ac772cd04cc33b","6662009ae78f21dd82fcd179","66620c7122dbe3626d265e8f","191","","j","","","","","","","","./tasks/HMM-beads/Images/NewTrialWC.png","lowH","1","46","1","1","1","1","true","",""
"image-keyboard-response","275","251502","0.0-3.0-6.0-1.0-1.46","63d672fd60ac772cd04cc33b","6662009ae78f21dd82fcd179","66620c7122dbe3626d265e8f","null","","null","","","","","","","","./tasks/HMM-beads/Images/WhiteBeadChoice.png","","","","","","","","","",""
"image-keyboard-response","276","252012","0.0-3.0-6.0-1.0-2.46","63d672fd60ac772cd04cc33b","6662009ae78f21dd82fcd179","66620c7122dbe3626d265e8f","null","","null","","","","","","","","./tasks/HMM-beads/Images/WhiteBeadChoiceCorrect.png","","","","","","","","","",""
"image-keyboard-response","277","252161","0.0-3.0-6.0-1.0-0.47","63d672fd60ac772cd04cc33b","6662009ae78f21dd82fcd179","66620c7122dbe3626d265e8f","142","","j","","","","","","","","./tasks/HMM-beads/Images/NewTrialWC.png","lowH","1","47","1","0","1","1","false","",""
"image-keyboard-response","278","252469","0.0-3.0-6.0-1.0-1.47","63d672fd60ac772cd04cc33b","6662009ae78f21dd82fcd179","66620c7122dbe3626d265e8f","null","","null","","","","","","","","./tasks/HMM-beads/Images/WhiteBeadChoice.png","","","","","","","","","",""
"image-keyboard-response","279","252976","0.0-3.0-6.0-1.0-2.47","63d672fd60ac772cd04cc33b","6662009ae78f21dd82fcd179","66620c7122dbe3626d265e8f","null","","null","","","","","","","","./tasks/HMM-beads/Images/WhiteBeadChoiceWrong.png","","","","","","","","","",""
"image-keyboard-response","280","253092","0.0-3.0-6.0-1.0-0.48","63d672fd60ac772cd04cc33b","6662009ae78f21dd82fcd179","66620c7122dbe3626d265e8f","111","","f","","","","","","","","./tasks/HMM-beads/Images/NewTrialBC.png","lowH","1","48","1","0","0","0","true","",""
"image-keyboard-response","281","253398","0.0-3.0-6.0-1.0-1.48","63d672fd60ac772cd04cc33b","6662009ae78f21dd82fcd179","66620c7122dbe3626d265e8f","null","","null","","","","","","","","./tasks/HMM-beads/Images/BlackBeadChoice.png","","","","","","","","","",""
"image-keyboard-response","282","253905","0.0-3.0-6.0-1.0-2.48","63d672fd60ac772cd04cc33b","6662009ae78f21dd82fcd179","66620c7122dbe3626d265e8f","null","","null","","","","","","","","./tasks/HMM-beads/Images/BlackBeadChoiceCorrect.png","","","","","","","","","",""
"image-keyboard-response","283","253946","0.0-3.0-6.0-1.0-0.49","63d672fd60ac772cd04cc33b","6662009ae78f21dd82fcd179","66620c7122dbe3626d265e8f","33","","f","","","","","","","","./tasks/HMM-beads/Images/NewTrialBC.png","lowH","1","49","1","0","0","0","true","",""
"image-keyboard-response","284","254251","0.0-3.0-6.0-1.0-1.49","63d672fd60ac772cd04cc33b","6662009ae78f21dd82fcd179","66620c7122dbe3626d265e8f","null","","null","","","","","","","","./tasks/HMM-beads/Images/BlackBeadChoice.png","","","","","","","","","",""
"image-keyboard-response","285","254759","0.0-3.0-6.0-1.0-2.49","63d672fd60ac772cd04cc33b","6662009ae78f21dd82fcd179","66620c7122dbe3626d265e8f","null","","null","","","","","","","","./tasks/HMM-beads/Images/BlackBeadChoiceCorrect.png","","","","","","","","","",""
"image-keyboard-response","286","254796","0.0-3.0-6.0-1.0-0.50","63d672fd60ac772cd04cc33b","6662009ae78f21dd82fcd179","66620c7122dbe3626d265e8f","29","","f","","","","","","","","./tasks/HMM-beads/Images/NewTrialBC.png","lowH","1","50","1","1","0","0","false","",""
"image-keyboard-response","287","255101","0.0-3.0-6.0-1.0-1.50","63d672fd60ac772cd04cc33b","6662009ae78f21dd82fcd179","66620c7122dbe3626d265e8f","null","","null","","","","","","","","./tasks/HMM-beads/Images/BlackBeadChoice.png","","","","","","","","","",""
"image-keyboard-response","288","255627","0.0-3.0-6.0-1.0-2.50","63d672fd60ac772cd04cc33b","6662009ae78f21dd82fcd179","66620c7122dbe3626d265e8f","null","","null","","","","","","","","./tasks/HMM-beads/Images/BlackBeadChoiceWrong.png","","","","","","","","","",""
"image-keyboard-response","289","255990","0.0-3.0-6.0-1.0-0.51","63d672fd60ac772cd04cc33b","6662009ae78f21dd82fcd179","66620c7122dbe3626d265e8f","356","","j","","","","","","","","./tasks/HMM-beads/Images/NewTrialWC.png","lowH","1","51","1","1","1","1","true","",""
"image-keyboard-response","290","256294","0.0-3.0-6.0-1.0-1.51","63d672fd60ac772cd04cc33b","6662009ae78f21dd82fcd179","66620c7122dbe3626d265e8f","null","","null","","","","","","","","./tasks/HMM-beads/Images/WhiteBeadChoice.png","","","","","","","","","",""
"image-keyboard-response","291","256803","0.0-3.0-6.0-1.0-2.51","63d672fd60ac772cd04cc33b","6662009ae78f21dd82fcd179","66620c7122dbe3626d265e8f","null","","null","","","","","","","","./tasks/HMM-beads/Images/WhiteBeadChoiceCorrect.png","","","","","","","","","",""
"image-keyboard-response","292","256832","0.0-3.0-6.0-1.0-0.52","63d672fd60ac772cd04cc33b","6662009ae78f21dd82fcd179","66620c7122dbe3626d265e8f","17","","j","","","","","","","","./tasks/HMM-beads/Images/NewTrialWC.png","lowH","1","52","1","1","1","1","true","",""
"image-keyboard-response","293","257136","0.0-3.0-6.0-1.0-1.52","63d672fd60ac772cd04cc33b","6662009ae78f21dd82fcd179","66620c7122dbe3626d265e8f","null","","null","","","","","","","","./tasks/HMM-beads/Images/WhiteBeadChoice.png","","","","","","","","","",""
"image-keyboard-response","294","257644","0.0-3.0-6.0-1.0-2.52","63d672fd60ac772cd04cc33b","6662009ae78f21dd82fcd179","66620c7122dbe3626d265e8f","null","","null","","","","","","","","./tasks/HMM-beads/Images/WhiteBeadChoiceCorrect.png","","","","","","","","","",""
"image-keyboard-response","295","258027","0.0-3.0-6.0-1.0-0.53","63d672fd60ac772cd04cc33b","6662009ae78f21dd82fcd179","66620c7122dbe3626d265e8f","378","","j","","","","","","","","./tasks/HMM-beads/Images/NewTrialWC.png","lowH","1","53","1","1","1","1","true","",""
"image-keyboard-response","296","258334","0.0-3.0-6.0-1.0-1.53","63d672fd60ac772cd04cc33b","6662009ae78f21dd82fcd179","66620c7122dbe3626d265e8f","null","","null","","","","","","","","./tasks/HMM-beads/Images/WhiteBeadChoice.png","","","","","","","","","",""
"image-keyboard-response","297","258842","0.0-3.0-6.0-1.0-2.53","63d672fd60ac772cd04cc33b","6662009ae78f21dd82fcd179","66620c7122dbe3626d265e8f","null","","null","","","","","","","","./tasks/HMM-beads/Images/WhiteBeadChoiceCorrect.png","","","","","","","","","",""
"image-keyboard-response","298","259144","0.0-3.0-6.0-1.0-0.54","63d672fd60ac772cd04cc33b","6662009ae78f21dd82fcd179","66620c7122dbe3626d265e8f","278","","j","","","","","","","","./tasks/HMM-beads/Images/NewTrialWC.png","lowH","1","54","1","1","1","1","true","",""
"image-keyboard-response","299","259450","0.0-3.0-6.0-1.0-1.54","63d672fd60ac772cd04cc33b","6662009ae78f21dd82fcd179","66620c7122dbe3626d265e8f","null","","null","","","","","","","","./tasks/HMM-beads/Images/WhiteBeadChoice.png","","","","","","","","","",""
"image-keyboard-response","300","259959","0.0-3.0-6.0-1.0-2.54","63d672fd60ac772cd04cc33b","6662009ae78f21dd82fcd179","66620c7122dbe3626d265e8f","null","","null","","","","","","","","./tasks/HMM-beads/Images/WhiteBeadChoiceCorrect.png","","","","","","","","","",""
"image-keyboard-response","301","260015","0.0-3.0-6.0-1.0-0.55","63d672fd60ac772cd04cc33b","6662009ae78f21dd82fcd179","66620c7122dbe3626d265e8f","49","","j","","","","","","","","./tasks/HMM-beads/Images/NewTrialWC.png","lowH","1","55","1","1","1","1","true","",""
"image-keyboard-response","302","260322","0.0-3.0-6.0-1.0-1.55","63d672fd60ac772cd04cc33b","6662009ae78f21dd82fcd179","66620c7122dbe3626d265e8f","null","","null","","","","","","","","./tasks/HMM-beads/Images/WhiteBeadChoice.png","","","","","","","","","",""
"image-keyboard-response","303","260832","0.0-3.0-6.0-1.0-2.55","63d672fd60ac772cd04cc33b","6662009ae78f21dd82fcd179","66620c7122dbe3626d265e8f","null","","null","","","","","","","","./tasks/HMM-beads/Images/WhiteBeadChoiceCorrect.png","","","","","","","","","",""
"image-keyboard-response","304","261031","0.0-3.0-6.0-1.0-0.56","63d672fd60ac772cd04cc33b","6662009ae78f21dd82fcd179","66620c7122dbe3626d265e8f","194","","j","","","","","","","","./tasks/HMM-beads/Images/NewTrialWC.png","lowH","1","56","1","1","1","1","true","",""
"image-keyboard-response","305","261338","0.0-3.0-6.0-1.0-1.56","63d672fd60ac772cd04cc33b","6662009ae78f21dd82fcd179","66620c7122dbe3626d265e8f","null","","null","","","","","","","","./tasks/HMM-beads/Images/WhiteBeadChoice.png","","","","","","","","","",""
"image-keyboard-response","306","261843","0.0-3.0-6.0-1.0-2.56","63d672fd60ac772cd04cc33b","6662009ae78f21dd82fcd179","66620c7122dbe3626d265e8f","null","","null","","","","","","","","./tasks/HMM-beads/Images/WhiteBeadChoiceCorrect.png","","","","","","","","","",""
"image-keyboard-response","307","261992","0.0-3.0-6.0-1.0-0.57","63d672fd60ac772cd04cc33b","6662009ae78f21dd82fcd179","66620c7122dbe3626d265e8f","146","","j","","","","","","","","./tasks/HMM-beads/Images/NewTrialWC.png","lowH","1","57","1","1","1","1","true","",""
"image-keyboard-response","308","262295","0.0-3.0-6.0-1.0-1.57","63d672fd60ac772cd04cc33b","6662009ae78f21dd82fcd179","66620c7122dbe3626d265e8f","null","","null","","","","","","","","./tasks/HMM-beads/Images/WhiteBeadChoice.png","","","","","","","","","",""
"image-keyboard-response","309","262802","0.0-3.0-6.0-1.0-2.57","63d672fd60ac772cd04cc33b","6662009ae78f21dd82fcd179","66620c7122dbe3626d265e8f","null","","null","","","","","","","","./tasks/HMM-beads/Images/WhiteBeadChoiceCorrect.png","","","","","","","","","",""
"image-keyboard-response","310","263046","0.0-3.0-6.0-1.0-0.58","63d672fd60ac772cd04cc33b","6662009ae78f21dd82fcd179","66620c7122dbe3626d265e8f","236","","j","","","","","","","","./tasks/HMM-beads/Images/NewTrialWC.png","lowH","1","58","1","1","1","1","true","",""
"image-keyboard-response","311","263368","0.0-3.0-6.0-1.0-1.58","63d672fd60ac772cd04cc33b","6662009ae78f21dd82fcd179","66620c7122dbe3626d265e8f","null","","null","","","","","","","","./tasks/HMM-beads/Images/WhiteBeadChoice.png","","","","","","","","","",""
"image-keyboard-response","312","263876","0.0-3.0-6.0-1.0-2.58","63d672fd60ac772cd04cc33b","6662009ae78f21dd82fcd179","66620c7122dbe3626d265e8f","null","","null","","","","","","","","./tasks/HMM-beads/Images/WhiteBeadChoiceCorrect.png","","","","","","","","","",""
"image-keyboard-response","313","264030","0.0-3.0-6.0-1.0-0.59","63d672fd60ac772cd04cc33b","6662009ae78f21dd82fcd179","66620c7122dbe3626d265e8f","146","","j","","","","","","","","./tasks/HMM-beads/Images/NewTrialWC.png","lowH","1","59","1","0","1","1","false","",""
"image-keyboard-response","314","264337","0.0-3.0-6.0-1.0-1.59","63d672fd60ac772cd04cc33b","6662009ae78f21dd82fcd179","66620c7122dbe3626d265e8f","null","","null","","","","","","","","./tasks/HMM-beads/Images/WhiteBeadChoice.png","","","","","","","","","",""
"image-keyboard-response","315","264850","0.0-3.0-6.0-1.0-2.59","63d672fd60ac772cd04cc33b","6662009ae78f21dd82fcd179","66620c7122dbe3626d265e8f","null","","null","","","","","","","","./tasks/HMM-beads/Images/WhiteBeadChoiceWrong.png","","","","","","","","","",""
"image-keyboard-response","316","264926","0.0-3.0-6.0-1.0-0.60","63d672fd60ac772cd04cc33b","6662009ae78f21dd82fcd179","66620c7122dbe3626d265e8f","74","","f","","","","","","","","./tasks/HMM-beads/Images/NewTrialBC.png","lowH","1","60","1","1","0","0","false","",""
"image-keyboard-response","317","265231","0.0-3.0-6.0-1.0-1.60","63d672fd60ac772cd04cc33b","6662009ae78f21dd82fcd179","66620c7122dbe3626d265e8f","null","","null","","","","","","","","./tasks/HMM-beads/Images/BlackBeadChoice.png","","","","","","","","","",""
"image-keyboard-response","318","265739","0.0-3.0-6.0-1.0-2.60","63d672fd60ac772cd04cc33b","6662009ae78f21dd82fcd179","66620c7122dbe3626d265e8f","null","","null","","","","","","","","./tasks/HMM-beads/Images/BlackBeadChoiceWrong.png","","","","","","","","","",""
"image-keyboard-response","319","265818","0.0-3.0-6.0-1.0-0.61","63d672fd60ac772cd04cc33b","6662009ae78f21dd82fcd179","66620c7122dbe3626d265e8f","74","","j","","","","","","","","./tasks/HMM-beads/Images/NewTrialWC.png","lowH","1","61","1","1","1","1","true","",""
"image-keyboard-response","320","266125","0.0-3.0-6.0-1.0-1.61","63d672fd60ac772cd04cc33b","6662009ae78f21dd82fcd179","66620c7122dbe3626d265e8f","null","","null","","","","","","","","./tasks/HMM-beads/Images/WhiteBeadChoice.png","","","","","","","","","",""
"image-keyboard-response","321","266634","0.0-3.0-6.0-1.0-2.61","63d672fd60ac772cd04cc33b","6662009ae78f21dd82fcd179","66620c7122dbe3626d265e8f","null","","null","","","","","","","","./tasks/HMM-beads/Images/WhiteBeadChoiceCorrect.png","","","","","","","","","",""
"image-keyboard-response","322","267031","0.0-3.0-6.0-1.0-0.62","63d672fd60ac772cd04cc33b","6662009ae78f21dd82fcd179","66620c7122dbe3626d265e8f","372","","j","","","","","","","","./tasks/HMM-beads/Images/NewTrialWC.png","lowH","1","62","1","0","1","1","false","",""
"image-keyboard-response","323","267340","0.0-3.0-6.0-1.0-1.62","63d672fd60ac772cd04cc33b","6662009ae78f21dd82fcd179","66620c7122dbe3626d265e8f","null","","null","","","","","","","","./tasks/HMM-beads/Images/WhiteBeadChoice.png","","","","","","","","","",""
"image-keyboard-response","324","267849","0.0-3.0-6.0-1.0-2.62","63d672fd60ac772cd04cc33b","6662009ae78f21dd82fcd179","66620c7122dbe3626d265e8f","null","","null","","","","","","","","./tasks/HMM-beads/Images/WhiteBeadChoiceWrong.png","","","","","","","","","",""
"image-keyboard-response","325","267876","0.0-3.0-6.0-1.0-0.63","63d672fd60ac772cd04cc33b","6662009ae78f21dd82fcd179","66620c7122dbe3626d265e8f","21","","f","","","","","","","","./tasks/HMM-beads/Images/NewTrialBC.png","lowH","1","63","1","1","0","0","false","",""
"image-keyboard-response","326","268180","0.0-3.0-6.0-1.0-1.63","63d672fd60ac772cd04cc33b","6662009ae78f21dd82fcd179","66620c7122dbe3626d265e8f","null","","null","","","","","","","","./tasks/HMM-beads/Images/BlackBeadChoice.png","","","","","","","","","",""
"image-keyboard-response","327","268687","0.0-3.0-6.0-1.0-2.63","63d672fd60ac772cd04cc33b","6662009ae78f21dd82fcd179","66620c7122dbe3626d265e8f","null","","null","","","","","","","","./tasks/HMM-beads/Images/BlackBeadChoiceWrong.png","","","","","","","","","",""
"image-keyboard-response","328","269062","0.0-3.0-6.0-1.0-0.64","63d672fd60ac772cd04cc33b","6662009ae78f21dd82fcd179","66620c7122dbe3626d265e8f","373","","j","","","","","","","","./tasks/HMM-beads/Images/NewTrialWC.png","lowH","1","64","1","1","1","1","true","",""
"image-keyboard-response","329","269370","0.0-3.0-6.0-1.0-1.64","63d672fd60ac772cd04cc33b","6662009ae78f21dd82fcd179","66620c7122dbe3626d265e8f","null","","null","","","","","","","","./tasks/HMM-beads/Images/WhiteBeadChoice.png","","","","","","","","","",""
"image-keyboard-response","330","269878","0.0-3.0-6.0-1.0-2.64","63d672fd60ac772cd04cc33b","6662009ae78f21dd82fcd179","66620c7122dbe3626d265e8f","null","","null","","","","","","","","./tasks/HMM-beads/Images/WhiteBeadChoiceCorrect.png","","","","","","","","","",""
"image-keyboard-response","331","270135","0.0-3.0-6.0-1.0-0.65","63d672fd60ac772cd04cc33b","6662009ae78f21dd82fcd179","66620c7122dbe3626d265e8f","253","","j","","","","","","","","./tasks/HMM-beads/Images/NewTrialWC.png","lowH","1","65","1","1","1","1","true","",""
"image-keyboard-response","332","270442","0.0-3.0-6.0-1.0-1.65","63d672fd60ac772cd04cc33b","6662009ae78f21dd82fcd179","66620c7122dbe3626d265e8f","null","","null","","","","","","","","./tasks/HMM-beads/Images/WhiteBeadChoice.png","","","","","","","","","",""
"image-keyboard-response","333","270950","0.0-3.0-6.0-1.0-2.65","63d672fd60ac772cd04cc33b","6662009ae78f21dd82fcd179","66620c7122dbe3626d265e8f","null","","null","","","","","","","","./tasks/HMM-beads/Images/WhiteBeadChoiceCorrect.png","","","","","","","","","",""
"image-keyboard-response","334","271043","0.0-3.0-6.0-1.0-0.66","63d672fd60ac772cd04cc33b","6662009ae78f21dd82fcd179","66620c7122dbe3626d265e8f","86","","j","","","","","","","","./tasks/HMM-beads/Images/NewTrialWC.png","lowH","1","66","1","1","1","1","true","",""
"image-keyboard-response","335","271348","0.0-3.0-6.0-1.0-1.66","63d672fd60ac772cd04cc33b","6662009ae78f21dd82fcd179","66620c7122dbe3626d265e8f","null","","null","","","","","","","","./tasks/HMM-beads/Images/WhiteBeadChoice.png","","","","","","","","","",""
"image-keyboard-response","336","271857","0.0-3.0-6.0-1.0-2.66","63d672fd60ac772cd04cc33b","6662009ae78f21dd82fcd179","66620c7122dbe3626d265e8f","null","","null","","","","","","","","./tasks/HMM-beads/Images/WhiteBeadChoiceCorrect.png","","","","","","","","","",""
"image-keyboard-response","337","272135","0.0-3.0-6.0-1.0-0.67","63d672fd60ac772cd04cc33b","6662009ae78f21dd82fcd179","66620c7122dbe3626d265e8f","270","","j","","","","","","","","./tasks/HMM-beads/Images/NewTrialWC.png","lowH","1","67","1","0","1","1","false","",""
"image-keyboard-response","338","272442","0.0-3.0-6.0-1.0-1.67","63d672fd60ac772cd04cc33b","6662009ae78f21dd82fcd179","66620c7122dbe3626d265e8f","null","","null","","","","","","","","./tasks/HMM-beads/Images/WhiteBeadChoice.png","","","","","","","","","",""
"image-keyboard-response","339","272950","0.0-3.0-6.0-1.0-2.67","63d672fd60ac772cd04cc33b","6662009ae78f21dd82fcd179","66620c7122dbe3626d265e8f","null","","null","","","","","","","","./tasks/HMM-beads/Images/WhiteBeadChoiceWrong.png","","","","","","","","","",""
"image-keyboard-response","340","272998","0.0-3.0-6.0-1.0-0.68","63d672fd60ac772cd04cc33b","6662009ae78f21dd82fcd179","66620c7122dbe3626d265e8f","41","","f","","","","","","","","./tasks/HMM-beads/Images/NewTrialBC.png","lowH","1","68","1","1","0","0","false","",""
"image-keyboard-response","341","273304","0.0-3.0-6.0-1.0-1.68","63d672fd60ac772cd04cc33b","6662009ae78f21dd82fcd179","66620c7122dbe3626d265e8f","null","","null","","","","","","","","./tasks/HMM-beads/Images/BlackBeadChoice.png","","","","","","","","","",""
"image-keyboard-response","342","273812","0.0-3.0-6.0-1.0-2.68","63d672fd60ac772cd04cc33b","6662009ae78f21dd82fcd179","66620c7122dbe3626d265e8f","null","","null","","","","","","","","./tasks/HMM-beads/Images/BlackBeadChoiceWrong.png","","","","","","","","","",""
"image-keyboard-response","343","273928","0.0-3.0-6.0-1.0-0.69","63d672fd60ac772cd04cc33b","6662009ae78f21dd82fcd179","66620c7122dbe3626d265e8f","109","","j","","","","","","","","./tasks/HMM-beads/Images/NewTrialWC.png","lowH","1","69","0","1","1","1","true","",""
"image-keyboard-response","344","274234","0.0-3.0-6.0-1.0-1.69","63d672fd60ac772cd04cc33b","6662009ae78f21dd82fcd179","66620c7122dbe3626d265e8f","null","","null","","","","","","","","./tasks/HMM-beads/Images/WhiteBeadChoice.png","","","","","","","","","",""
"image-keyboard-response","345","274743","0.0-3.0-6.0-1.0-2.69","63d672fd60ac772cd04cc33b","6662009ae78f21dd82fcd179","66620c7122dbe3626d265e8f","null","","null","","","","","","","","./tasks/HMM-beads/Images/WhiteBeadChoiceCorrect.png","","","","","","","","","",""
"image-keyboard-response","346","275125","0.0-3.0-6.0-1.0-0.70","63d672fd60ac772cd04cc33b","6662009ae78f21dd82fcd179","66620c7122dbe3626d265e8f","376","","j","","","","","","","","./tasks/HMM-beads/Images/NewTrialWC.png","lowH","1","70","0","1","1","1","true","",""
"image-keyboard-response","347","275446","0.0-3.0-6.0-1.0-1.70","63d672fd60ac772cd04cc33b","6662009ae78f21dd82fcd179","66620c7122dbe3626d265e8f","null","","null","","","","","","","","./tasks/HMM-beads/Images/WhiteBeadChoice.png","","","","","","","","","",""
"image-keyboard-response","348","275958","0.0-3.0-6.0-1.0-2.70","63d672fd60ac772cd04cc33b","6662009ae78f21dd82fcd179","66620c7122dbe3626d265e8f","null","","null","","","","","","","","./tasks/HMM-beads/Images/WhiteBeadChoiceCorrect.png","","","","","","","","","",""
"image-keyboard-response","349","275978","0.0-3.0-6.0-1.0-0.71","63d672fd60ac772cd04cc33b","6662009ae78f21dd82fcd179","66620c7122dbe3626d265e8f","15","","j","","","","","","","","./tasks/HMM-beads/Images/NewTrialWC.png","lowH","1","71","0","0","1","1","false","",""
"image-keyboard-response","350","276284","0.0-3.0-6.0-1.0-1.71","63d672fd60ac772cd04cc33b","6662009ae78f21dd82fcd179","66620c7122dbe3626d265e8f","null","","null","","","","","","","","./tasks/HMM-beads/Images/WhiteBeadChoice.png","","","","","","","","","",""
"image-keyboard-response","351","276792","0.0-3.0-6.0-1.0-2.71","63d672fd60ac772cd04cc33b","6662009ae78f21dd82fcd179","66620c7122dbe3626d265e8f","null","","null","","","","","","","","./tasks/HMM-beads/Images/WhiteBeadChoiceWrong.png","","","","","","","","","",""
"image-keyboard-response","352","276865","0.0-3.0-6.0-1.0-0.72","63d672fd60ac772cd04cc33b","6662009ae78f21dd82fcd179","66620c7122dbe3626d265e8f","65","","f","","","","","","","","./tasks/HMM-beads/Images/NewTrialBC.png","lowH","1","72","0","0","0","0","true","",""
"image-keyboard-response","353","277173","0.0-3.0-6.0-1.0-1.72","63d672fd60ac772cd04cc33b","6662009ae78f21dd82fcd179","66620c7122dbe3626d265e8f","null","","null","","","","","","","","./tasks/HMM-beads/Images/BlackBeadChoice.png","","","","","","","","","",""
"image-keyboard-response","354","277680","0.0-3.0-6.0-1.0-2.72","63d672fd60ac772cd04cc33b","6662009ae78f21dd82fcd179","66620c7122dbe3626d265e8f","null","","null","","","","","","","","./tasks/HMM-beads/Images/BlackBeadChoiceCorrect.png","","","","","","","","","",""
"image-keyboard-response","355","278078","0.0-3.0-6.0-1.0-0.73","63d672fd60ac772cd04cc33b","6662009ae78f21dd82fcd179","66620c7122dbe3626d265e8f","390","","f","","","","","","","","./tasks/HMM-beads/Images/NewTrialBC.png","lowH","1","73","0","1","0","0","false","",""
"image-keyboard-response","356","278381","0.0-3.0-6.0-1.0-1.73","63d672fd60ac772cd04cc33b","6662009ae78f21dd82fcd179","66620c7122dbe3626d265e8f","null","","null","","","","","","","","./tasks/HMM-beads/Images/BlackBeadChoice.png","","","","","","","","","",""
"image-keyboard-response","357","278889","0.0-3.0-6.0-1.0-2.73","63d672fd60ac772cd04cc33b","6662009ae78f21dd82fcd179","66620c7122dbe3626d265e8f","null","","null","","","","","","","","./tasks/HMM-beads/Images/BlackBeadChoiceWrong.png","","","","","","","","","",""
"image-keyboard-response","358","279166","0.0-3.0-6.0-1.0-0.74","63d672fd60ac772cd04cc33b","6662009ae78f21dd82fcd179","66620c7122dbe3626d265e8f","271","","j","","","","","","","","./tasks/HMM-beads/Images/NewTrialWC.png","lowH","1","74","0","0","1","1","false","",""
"image-keyboard-response","359","279473","0.0-3.0-6.0-1.0-1.74","63d672fd60ac772cd04cc33b","6662009ae78f21dd82fcd179","66620c7122dbe3626d265e8f","null","","null","","","","","","","","./tasks/HMM-beads/Images/WhiteBeadChoice.png","","","","","","","","","",""
"image-keyboard-response","360","279996","0.0-3.0-6.0-1.0-2.74","63d672fd60ac772cd04cc33b","6662009ae78f21dd82fcd179","66620c7122dbe3626d265e8f","null","","null","","","","","","","","./tasks/HMM-beads/Images/WhiteBeadChoiceWrong.png","","","","","","","","","",""
"image-keyboard-response","361","280277","0.0-3.0-6.0-1.0-0.75","63d672fd60ac772cd04cc33b","6662009ae78f21dd82fcd179","66620c7122dbe3626d265e8f","274","","f","","","","","","","","./tasks/HMM-beads/Images/NewTrialBC.png","lowH","1","75","0","1","0","0","false","",""
"image-keyboard-response","362","280583","0.0-3.0-6.0-1.0-1.75","63d672fd60ac772cd04cc33b","6662009ae78f21dd82fcd179","66620c7122dbe3626d265e8f","null","","null","","","","","","","","./tasks/HMM-beads/Images/BlackBeadChoice.png","","","","","","","","","",""
"image-keyboard-response","363","281091","0.0-3.0-6.0-1.0-2.75","63d672fd60ac772cd04cc33b","6662009ae78f21dd82fcd179","66620c7122dbe3626d265e8f","null","","null","","","","","","","","./tasks/HMM-beads/Images/BlackBeadChoiceWrong.png","","","","","","","","","",""
"image-keyboard-response","364","281381","0.0-3.0-6.0-1.0-0.76","63d672fd60ac772cd04cc33b","6662009ae78f21dd82fcd179","66620c7122dbe3626d265e8f","285","","j","","","","","","","","./tasks/HMM-beads/Images/NewTrialWC.png","lowH","1","76","0","1","1","1","true","",""
"image-keyboard-response","365","281688","0.0-3.0-6.0-1.0-1.76","63d672fd60ac772cd04cc33b","6662009ae78f21dd82fcd179","66620c7122dbe3626d265e8f","null","","null","","","","","","","","./tasks/HMM-beads/Images/WhiteBeadChoice.png","","","","","","","","","",""
"image-keyboard-response","366","282198","0.0-3.0-6.0-1.0-2.76","63d672fd60ac772cd04cc33b","6662009ae78f21dd82fcd179","66620c7122dbe3626d265e8f","null","","null","","","","","","","","./tasks/HMM-beads/Images/WhiteBeadChoiceCorrect.png","","","","","","","","","",""
"image-keyboard-response","367","282439","0.0-3.0-6.0-1.0-0.77","63d672fd60ac772cd04cc33b","6662009ae78f21dd82fcd179","66620c7122dbe3626d265e8f","233","","j","","","","","","","","./tasks/HMM-beads/Images/NewTrialWC.png","lowH","1","77","0","0","1","1","false","",""
"image-keyboard-response","368","282744","0.0-3.0-6.0-1.0-1.77","63d672fd60ac772cd04cc33b","6662009ae78f21dd82fcd179","66620c7122dbe3626d265e8f","null","","null","","","","","","","","./tasks/HMM-beads/Images/WhiteBeadChoice.png","","","","","","","","","",""
"image-keyboard-response","369","283262","0.0-3.0-6.0-1.0-2.77","63d672fd60ac772cd04cc33b","6662009ae78f21dd82fcd179","66620c7122dbe3626d265e8f","null","","null","","","","","","","","./tasks/HMM-beads/Images/WhiteBeadChoiceWrong.png","","","","","","","","","",""
"image-keyboard-response","370","283280","0.0-3.0-6.0-1.0-0.78","63d672fd60ac772cd04cc33b","6662009ae78f21dd82fcd179","66620c7122dbe3626d265e8f","16","","f","","","","","","","","./tasks/HMM-beads/Images/NewTrialBC.png","lowH","1","78","0","0","0","0","true","",""
"image-keyboard-response","371","283584","0.0-3.0-6.0-1.0-1.78","63d672fd60ac772cd04cc33b","6662009ae78f21dd82fcd179","66620c7122dbe3626d265e8f","null","","null","","","","","","","","./tasks/HMM-beads/Images/BlackBeadChoice.png","","","","","","","","","",""
"image-keyboard-response","372","284091","0.0-3.0-6.0-1.0-2.78","63d672fd60ac772cd04cc33b","6662009ae78f21dd82fcd179","66620c7122dbe3626d265e8f","null","","null","","","","","","","","./tasks/HMM-beads/Images/BlackBeadChoiceCorrect.png","","","","","","","","","",""
"image-keyboard-response","373","284396","0.0-3.0-6.0-1.0-0.79","63d672fd60ac772cd04cc33b","6662009ae78f21dd82fcd179","66620c7122dbe3626d265e8f","286","","f","","","","","","","","./tasks/HMM-beads/Images/NewTrialBC.png","lowH","1","79","0","0","0","0","true","",""
"image-keyboard-response","374","284705","0.0-3.0-6.0-1.0-1.79","63d672fd60ac772cd04cc33b","6662009ae78f21dd82fcd179","66620c7122dbe3626d265e8f","null","","null","","","","","","","","./tasks/HMM-beads/Images/BlackBeadChoice.png","","","","","","","","","",""
