"trial_type","trial_index","time_elapsed","internal_node_id","subject_id","study_id","session_id","rt","url","response","question_order","view_history","success","timeout","failed_images","failed_audio","failed_video","stimulus","block","block_rep","trial_number","jar","bead","previous_bead","choice","correct","lowH_score","total_bonus"
"pavlovia","0","1394","0.0-0.0","6501f64fbe9a0a65bd5f7891","6662009ae78f21dd82fcd179","66620b6d97325bfb95f3b37b","","","","","","","","","","","","","","","","","","","","",""
"external-html","1","10282","0.0-1.0-0.0","6501f64fbe9a0a65bd5f7891","6662009ae78f21dd82fcd179","66620b6d97325bfb95f3b37b","8702","new_consent.html","","","","","","","","","","","","","","","","","","",""
"survey-multi-choice","2","15909","0.0-1.0-1.0","6501f64fbe9a0a65bd5f7891","6662009ae78f21dd82fcd179","66620b6d97325bfb95f3b37b","5625","","{""Q0"":""Non-binary"",""Q1"":""White""}","[0,1]","","","","","","","","","","","","","","","","",""
"survey-text","3","18086","0.0-1.0-2.0","6501f64fbe9a0a65bd5f7891","6662009ae78f21dd82fcd179","66620b6d97325bfb95f3b37b","2174","","{""Q0"":""31""}","","","","","","","","","","","","","","","","","",""
"instructions","4","20022","0.0-2.0","6501f64fbe9a0a65bd5f7891","6662009ae78f21dd82fcd179","66620b6d97325bfb95f3b37b","1835","","","","[{""page_index"":0,""viewing_time"":1835}]","","","","","","","","","","","","","","","",""
"preload","5","21696","0.0-3.0-0.0","6501f64fbe9a0a65bd5f7891","6662009ae78f21dd82fcd179","66620b6d97325bfb95f3b37b","","","","","","true","false","[]","[]","[]","","","","","","","","","","",""
"instructions","6","136120","0.0-3.0-1.0","6501f64fbe9a0a65bd5f7891","6662009ae78f21dd82fcd179","66620b6d97325bfb95f3b37b","114424","","","","[{""page_index"":0,""viewing_time"":17446},{""page_index"":1,""viewing_time"":6759},{""page_index"":2,""viewing_time"":5892},{""page_index"":3,""viewing_time"":2065},{""page_index"":4,""viewing_time"":15594},{""page_index"":5,""viewing_time"":22444},{""page_index"":6,""viewing_time"":7247},{""page_index"":7,""viewing_time"":10180},{""page_index"":8,""viewing_time"":5821},{""page_index"":9,""viewing_time"":6292},{""page_index"":10,""viewing_time"":13077},{""page_index"":11,""viewing_time"":1607}]","","","","","","","","","","","","","","","",""
"html-button-response","7","139898","0.0-3.0-2.0-0.0-0.0","6501f64fbe9a0a65bd5f7891","6662009ae78f21dd82fcd179","66620b6d97325bfb95f3b37b","3776","","1","","","","","","","","<div align=center>Your goal is to predict…?<br><br></div>","","","","","","","","","",""
"html-button-response","8","146797","0.0-3.0-2.0-1.0-0.0","6501f64fbe9a0a65bd5f7891","6662009ae78f21dd82fcd179","66620b6d97325bfb95f3b37b","5483","","2","","","","","","","","<div align=center>In the jar with mostly white beads, there are ___% white beads and ___% black beads?<br><br></div>","","","","","","","","","",""
"html-button-response","9","155931","0.0-3.0-2.0-2.0-0.0","6501f64fbe9a0a65bd5f7891","6662009ae78f21dd82fcd179","66620b6d97325bfb95f3b37b","8277","","0","","","","","","","","<div align=center>When there is a 1% probability that the jars will switch, the next bead will most likely be drawn from the…<br><br></div>","","","","","","","","","",""
"html-button-response","10","163211","0.0-3.0-2.0-3.0-0.0","6501f64fbe9a0a65bd5f7891","6662009ae78f21dd82fcd179","66620b6d97325bfb95f3b37b","6215","","1","","","","","","","","<div align=center>When there is a 99% probability that the jars will switch, the next bead will most likely be drawn from the…<br><br></div>","","","","","","","","","",""
"instructions","11","184901","0.0-3.0-3.0","6501f64fbe9a0a65bd5f7891","6662009ae78f21dd82fcd179","66620b6d97325bfb95f3b37b","20816","","","","[{""page_index"":0,""viewing_time"":20816}]","","","","","","","","","","","","","","","",""
"html-keyboard-response","12","189158","0.0-3.0-4.0-0.0","6501f64fbe9a0a65bd5f7891","6662009ae78f21dd82fcd179","66620b6d97325bfb95f3b37b","4257",""," ","","","","","","","","<div align=center>In this practice block, there will be a <b>1% chance</b> that the jar on the next trial will be different from the jar on the current trial.<br><br></div>","","","","","","","","","",""
"image-keyboard-response","13","193702","0.0-3.0-4.0-1.0-0.0","6501f64fbe9a0a65bd5f7891","6662009ae78f21dd82fcd179","66620b6d97325bfb95f3b37b","4534","","f","","","","","","","","./tasks/HMM-beads/Images/NoChoice.png","practice","0","0","0","0","9","0","true","",""
"image-keyboard-response","14","194014","0.0-3.0-4.0-1.0-1.0","6501f64fbe9a0a65bd5f7891","6662009ae78f21dd82fcd179","66620b6d97325bfb95f3b37b","null","","null","","","","","","","","./tasks/HMM-beads/Images/BlackBeadChoice.png","","","","","","","","","",""
"image-keyboard-response","15","194532","0.0-3.0-4.0-1.0-2.0","6501f64fbe9a0a65bd5f7891","6662009ae78f21dd82fcd179","66620b6d97325bfb95f3b37b","null","","null","","","","","","","","./tasks/HMM-beads/Images/BlackBeadChoiceCorrect.png","","","","","","","","","",""
"image-keyboard-response","16","196351","0.0-3.0-4.0-1.0-0.1","6501f64fbe9a0a65bd5f7891","6662009ae78f21dd82fcd179","66620b6d97325bfb95f3b37b","1808","","f","","","","","","","","./tasks/HMM-beads/Images/NewTrialBC.png","practice","0","1","0","0","0","0","true","",""
"image-keyboard-response","17","196657","0.0-3.0-4.0-1.0-1.1","6501f64fbe9a0a65bd5f7891","6662009ae78f21dd82fcd179","66620b6d97325bfb95f3b37b","null","","null","","","","","","","","./tasks/HMM-beads/Images/BlackBeadChoice.png","","","","","","","","","",""
"image-keyboard-response","18","197162","0.0-3.0-4.0-1.0-2.1","6501f64fbe9a0a65bd5f7891","6662009ae78f21dd82fcd179","66620b6d97325bfb95f3b37b","null","","null","","","","","","","","./tasks/HMM-beads/Images/BlackBeadChoiceCorrect.png","","","","","","","","","",""
"image-keyboard-response","19","197927","0.0-3.0-4.0-1.0-0.2","6501f64fbe9a0a65bd5f7891","6662009ae78f21dd82fcd179","66620b6d97325bfb95f3b37b","760","","f","","","","","","","","./tasks/HMM-beads/Images/NewTrialBC.png","practice","0","2","0","1","0","0","false","",""
"image-keyboard-response","20","198232","0.0-3.0-4.0-1.0-1.2","6501f64fbe9a0a65bd5f7891","6662009ae78f21dd82fcd179","66620b6d97325bfb95f3b37b","null","","null","","","","","","","","./tasks/HMM-beads/Images/BlackBeadChoice.png","","","","","","","","","",""
"image-keyboard-response","21","198743","0.0-3.0-4.0-1.0-2.2","6501f64fbe9a0a65bd5f7891","6662009ae78f21dd82fcd179","66620b6d97325bfb95f3b37b","null","","null","","","","","","","","./tasks/HMM-beads/Images/BlackBeadChoiceWrong.png","","","","","","","","","",""
"image-keyboard-response","22","199642","0.0-3.0-4.0-1.0-0.3","6501f64fbe9a0a65bd5f7891","6662009ae78f21dd82fcd179","66620b6d97325bfb95f3b37b","887","","f","","","","","","","","./tasks/HMM-beads/Images/NewTrialWC.png","practice","0","3","0","0","1","0","true","",""
"image-keyboard-response","23","199947","0.0-3.0-4.0-1.0-1.3","6501f64fbe9a0a65bd5f7891","6662009ae78f21dd82fcd179","66620b6d97325bfb95f3b37b","null","","null","","","","","","","","./tasks/HMM-beads/Images/BlackBeadChoice.png","","","","","","","","","",""
"image-keyboard-response","24","200452","0.0-3.0-4.0-1.0-2.3","6501f64fbe9a0a65bd5f7891","6662009ae78f21dd82fcd179","66620b6d97325bfb95f3b37b","null","","null","","","","","","","","./tasks/HMM-beads/Images/BlackBeadChoiceCorrect.png","","","","","","","","","",""
"image-keyboard-response","25","201111","0.0-3.0-4.0-1.0-0.4","6501f64fbe9a0a65bd5f7891","6662009ae78f21dd82fcd179","66620b6d97325bfb95f3b37b","653","","f","","","","","","","","./tasks/HMM-beads/Images/NewTrialBC.png","practice","0","4","0","0","0","0","true","",""
"image-keyboard-response","26","201416","0.0-3.0-4.0-1.0-1.4","6501f64fbe9a0a65bd5f7891","6662009ae78f21dd82fcd179","66620b6d97325bfb95f3b37b","null","","null","","","","","","","","./tasks/HMM-beads/Images/BlackBeadChoice.png","","","","","","","","","",""
"image-keyboard-response","27","201947","0.0-3.0-4.0-1.0-2.4","6501f64fbe9a0a65bd5f7891","6662009ae78f21dd82fcd179","66620b6d97325bfb95f3b37b","null","","null","","","","","","","","./tasks/HMM-beads/Images/BlackBeadChoiceCorrect.png","","","","","","","","","",""
"image-keyboard-response","28","202591","0.0-3.0-4.0-1.0-0.5","6501f64fbe9a0a65bd5f7891","6662009ae78f21dd82fcd179","66620b6d97325bfb95f3b37b","638","","f","","","","","","","","./tasks/HMM-beads/Images/NewTrialBC.png","practice","0","5","0","1","0","0","false","",""
"image-keyboard-response","29","202895","0.0-3.0-4.0-1.0-1.5","6501f64fbe9a0a65bd5f7891","6662009ae78f21dd82fcd179","66620b6d97325bfb95f3b37b","null","","null","","","","","","","","./tasks/HMM-beads/Images/BlackBeadChoice.png","","","","","","","","","",""
"image-keyboard-response","30","203400","0.0-3.0-4.0-1.0-2.5","6501f64fbe9a0a65bd5f7891","6662009ae78f21dd82fcd179","66620b6d97325bfb95f3b37b","null","","null","","","","","","","","./tasks/HMM-beads/Images/BlackBeadChoiceWrong.png","","","","","","","","","",""
"image-keyboard-response","31","204183","0.0-3.0-4.0-1.0-0.6","6501f64fbe9a0a65bd5f7891","6662009ae78f21dd82fcd179","66620b6d97325bfb95f3b37b","777","","f","","","","","","","","./tasks/HMM-beads/Images/NewTrialWC.png","practice","0","6","0","0","1","0","true","",""
"image-keyboard-response","32","204488","0.0-3.0-4.0-1.0-1.6","6501f64fbe9a0a65bd5f7891","6662009ae78f21dd82fcd179","66620b6d97325bfb95f3b37b","null","","null","","","","","","","","./tasks/HMM-beads/Images/BlackBeadChoice.png","","","","","","","","","",""
"image-keyboard-response","33","204993","0.0-3.0-4.0-1.0-2.6","6501f64fbe9a0a65bd5f7891","6662009ae78f21dd82fcd179","66620b6d97325bfb95f3b37b","null","","null","","","","","","","","./tasks/HMM-beads/Images/BlackBeadChoiceCorrect.png","","","","","","","","","",""
"image-keyboard-response","34","205654","0.0-3.0-4.0-1.0-0.7","6501f64fbe9a0a65bd5f7891","6662009ae78f21dd82fcd179","66620b6d97325bfb95f3b37b","656","","f","","","","","","","","./tasks/HMM-beads/Images/NewTrialBC.png","practice","0","7","0","0","0","0","true","",""
"image-keyboard-response","35","205959","0.0-3.0-4.0-1.0-1.7","6501f64fbe9a0a65bd5f7891","6662009ae78f21dd82fcd179","66620b6d97325bfb95f3b37b","null","","null","","","","","","","","./tasks/HMM-beads/Images/BlackBeadChoice.png","","","","","","","","","",""
"image-keyboard-response","36","206465","0.0-3.0-4.0-1.0-2.7","6501f64fbe9a0a65bd5f7891","6662009ae78f21dd82fcd179","66620b6d97325bfb95f3b37b","null","","null","","","","","","","","./tasks/HMM-beads/Images/BlackBeadChoiceCorrect.png","","","","","","","","","",""
"image-keyboard-response","37","207174","0.0-3.0-4.0-1.0-0.8","6501f64fbe9a0a65bd5f7891","6662009ae78f21dd82fcd179","66620b6d97325bfb95f3b37b","705","","f","","","","","","","","./tasks/HMM-beads/Images/NewTrialBC.png","practice","0","8","0","0","0","0","true","",""
"image-keyboard-response","38","207480","0.0-3.0-4.0-1.0-1.8","6501f64fbe9a0a65bd5f7891","6662009ae78f21dd82fcd179","66620b6d97325bfb95f3b37b","null","","null","","","","","","","","./tasks/HMM-beads/Images/BlackBeadChoice.png","","","","","","","","","",""
"image-keyboard-response","39","207987","0.0-3.0-4.0-1.0-2.8","6501f64fbe9a0a65bd5f7891","6662009ae78f21dd82fcd179","66620b6d97325bfb95f3b37b","null","","null","","","","","","","","./tasks/HMM-beads/Images/BlackBeadChoiceCorrect.png","","","","","","","","","",""
"image-keyboard-response","40","208487","0.0-3.0-4.0-1.0-0.9","6501f64fbe9a0a65bd5f7891","6662009ae78f21dd82fcd179","66620b6d97325bfb95f3b37b","495","","f","","","","","","","","./tasks/HMM-beads/Images/NewTrialBC.png","practice","0","9","0","1","0","0","false","",""
"image-keyboard-response","41","208792","0.0-3.0-4.0-1.0-1.9","6501f64fbe9a0a65bd5f7891","6662009ae78f21dd82fcd179","66620b6d97325bfb95f3b37b","null","","null","","","","","","","","./tasks/HMM-beads/Images/BlackBeadChoice.png","","","","","","","","","",""
"image-keyboard-response","42","209297","0.0-3.0-4.0-1.0-2.9","6501f64fbe9a0a65bd5f7891","6662009ae78f21dd82fcd179","66620b6d97325bfb95f3b37b","null","","null","","","","","","","","./tasks/HMM-beads/Images/BlackBeadChoiceWrong.png","","","","","","","","","",""
"image-keyboard-response","43","209878","0.0-3.0-4.0-1.0-0.10","6501f64fbe9a0a65bd5f7891","6662009ae78f21dd82fcd179","66620b6d97325bfb95f3b37b","576","","f","","","","","","","","./tasks/HMM-beads/Images/NewTrialWC.png","practice","0","10","0","0","1","0","true","",""
"image-keyboard-response","44","210184","0.0-3.0-4.0-1.0-1.10","6501f64fbe9a0a65bd5f7891","6662009ae78f21dd82fcd179","66620b6d97325bfb95f3b37b","null","","null","","","","","","","","./tasks/HMM-beads/Images/BlackBeadChoice.png","","","","","","","","","",""
"image-keyboard-response","45","210713","0.0-3.0-4.0-1.0-2.10","6501f64fbe9a0a65bd5f7891","6662009ae78f21dd82fcd179","66620b6d97325bfb95f3b37b","null","","null","","","","","","","","./tasks/HMM-beads/Images/BlackBeadChoiceCorrect.png","","","","","","","","","",""
"image-keyboard-response","46","211232","0.0-3.0-4.0-1.0-0.11","6501f64fbe9a0a65bd5f7891","6662009ae78f21dd82fcd179","66620b6d97325bfb95f3b37b","512","","f","","","","","","","","./tasks/HMM-beads/Images/NewTrialBC.png","practice","0","11","0","1","0","0","false","",""
"image-keyboard-response","47","211541","0.0-3.0-4.0-1.0-1.11","6501f64fbe9a0a65bd5f7891","6662009ae78f21dd82fcd179","66620b6d97325bfb95f3b37b","null","","null","","","","","","","","./tasks/HMM-beads/Images/BlackBeadChoice.png","","","","","","","","","",""
"image-keyboard-response","48","212046","0.0-3.0-4.0-1.0-2.11","6501f64fbe9a0a65bd5f7891","6662009ae78f21dd82fcd179","66620b6d97325bfb95f3b37b","null","","null","","","","","","","","./tasks/HMM-beads/Images/BlackBeadChoiceWrong.png","","","","","","","","","",""
"image-keyboard-response","49","212566","0.0-3.0-4.0-1.0-0.12","6501f64fbe9a0a65bd5f7891","6662009ae78f21dd82fcd179","66620b6d97325bfb95f3b37b","514","","f","","","","","","","","./tasks/HMM-beads/Images/NewTrialWC.png","practice","0","12","0","0","1","0","true","",""
"image-keyboard-response","50","212872","0.0-3.0-4.0-1.0-1.12","6501f64fbe9a0a65bd5f7891","6662009ae78f21dd82fcd179","66620b6d97325bfb95f3b37b","null","","null","","","","","","","","./tasks/HMM-beads/Images/BlackBeadChoice.png","","","","","","","","","",""
"image-keyboard-response","51","213377","0.0-3.0-4.0-1.0-2.12","6501f64fbe9a0a65bd5f7891","6662009ae78f21dd82fcd179","66620b6d97325bfb95f3b37b","null","","null","","","","","","","","./tasks/HMM-beads/Images/BlackBeadChoiceCorrect.png","","","","","","","","","",""
"image-keyboard-response","52","214022","0.0-3.0-4.0-1.0-0.13","6501f64fbe9a0a65bd5f7891","6662009ae78f21dd82fcd179","66620b6d97325bfb95f3b37b","640","","f","","","","","","","","./tasks/HMM-beads/Images/NewTrialBC.png","practice","0","13","0","0","0","0","true","",""
"image-keyboard-response","53","214328","0.0-3.0-4.0-1.0-1.13","6501f64fbe9a0a65bd5f7891","6662009ae78f21dd82fcd179","66620b6d97325bfb95f3b37b","null","","null","","","","","","","","./tasks/HMM-beads/Images/BlackBeadChoice.png","","","","","","","","","",""
"image-keyboard-response","54","214832","0.0-3.0-4.0-1.0-2.13","6501f64fbe9a0a65bd5f7891","6662009ae78f21dd82fcd179","66620b6d97325bfb95f3b37b","null","","null","","","","","","","","./tasks/HMM-beads/Images/BlackBeadChoiceCorrect.png","","","","","","","","","",""
"image-keyboard-response","55","215526","0.0-3.0-4.0-1.0-0.14","6501f64fbe9a0a65bd5f7891","6662009ae78f21dd82fcd179","66620b6d97325bfb95f3b37b","689","","f","","","","","","","","./tasks/HMM-beads/Images/NewTrialBC.png","practice","0","14","0","0","0","0","true","",""
"image-keyboard-response","56","215832","0.0-3.0-4.0-1.0-1.14","6501f64fbe9a0a65bd5f7891","6662009ae78f21dd82fcd179","66620b6d97325bfb95f3b37b","null","","null","","","","","","","","./tasks/HMM-beads/Images/BlackBeadChoice.png","","","","","","","","","",""
"image-keyboard-response","57","216337","0.0-3.0-4.0-1.0-2.14","6501f64fbe9a0a65bd5f7891","6662009ae78f21dd82fcd179","66620b6d97325bfb95f3b37b","null","","null","","","","","","","","./tasks/HMM-beads/Images/BlackBeadChoiceCorrect.png","","","","","","","","","",""
"image-keyboard-response","58","216991","0.0-3.0-4.0-1.0-0.15","6501f64fbe9a0a65bd5f7891","6662009ae78f21dd82fcd179","66620b6d97325bfb95f3b37b","647","","f","","","","","","","","./tasks/HMM-beads/Images/NewTrialBC.png","practice","0","15","0","0","0","0","true","",""
"image-keyboard-response","59","217296","0.0-3.0-4.0-1.0-1.15","6501f64fbe9a0a65bd5f7891","6662009ae78f21dd82fcd179","66620b6d97325bfb95f3b37b","null","","null","","","","","","","","./tasks/HMM-beads/Images/BlackBeadChoice.png","","","","","","","","","",""
"image-keyboard-response","60","217801","0.0-3.0-4.0-1.0-2.15","6501f64fbe9a0a65bd5f7891","6662009ae78f21dd82fcd179","66620b6d97325bfb95f3b37b","null","","null","","","","","","","","./tasks/HMM-beads/Images/BlackBeadChoiceCorrect.png","","","","","","","","","",""
"image-keyboard-response","61","218575","0.0-3.0-4.0-1.0-0.16","6501f64fbe9a0a65bd5f7891","6662009ae78f21dd82fcd179","66620b6d97325bfb95f3b37b","769","","f","","","","","","","","./tasks/HMM-beads/Images/NewTrialBC.png","practice","0","16","0","0","0","0","true","",""
"image-keyboard-response","62","218879","0.0-3.0-4.0-1.0-1.16","6501f64fbe9a0a65bd5f7891","6662009ae78f21dd82fcd179","66620b6d97325bfb95f3b37b","null","","null","","","","","","","","./tasks/HMM-beads/Images/BlackBeadChoice.png","","","","","","","","","",""
"image-keyboard-response","63","219385","0.0-3.0-4.0-1.0-2.16","6501f64fbe9a0a65bd5f7891","6662009ae78f21dd82fcd179","66620b6d97325bfb95f3b37b","null","","null","","","","","","","","./tasks/HMM-beads/Images/BlackBeadChoiceCorrect.png","","","","","","","","","",""
"image-keyboard-response","64","219958","0.0-3.0-4.0-1.0-0.17","6501f64fbe9a0a65bd5f7891","6662009ae78f21dd82fcd179","66620b6d97325bfb95f3b37b","570","","f","","","","","","","","./tasks/HMM-beads/Images/NewTrialBC.png","practice","0","17","0","0","0","0","true","",""
"image-keyboard-response","65","220264","0.0-3.0-4.0-1.0-1.17","6501f64fbe9a0a65bd5f7891","6662009ae78f21dd82fcd179","66620b6d97325bfb95f3b37b","null","","null","","","","","","","","./tasks/HMM-beads/Images/BlackBeadChoice.png","","","","","","","","","",""
"image-keyboard-response","66","220768","0.0-3.0-4.0-1.0-2.17","6501f64fbe9a0a65bd5f7891","6662009ae78f21dd82fcd179","66620b6d97325bfb95f3b37b","null","","null","","","","","","","","./tasks/HMM-beads/Images/BlackBeadChoiceCorrect.png","","","","","","","","","",""
"image-keyboard-response","67","221374","0.0-3.0-4.0-1.0-0.18","6501f64fbe9a0a65bd5f7891","6662009ae78f21dd82fcd179","66620b6d97325bfb95f3b37b","595","","f","","","","","","","","./tasks/HMM-beads/Images/NewTrialBC.png","practice","0","18","0","1","0","0","false","",""
"image-keyboard-response","68","221680","0.0-3.0-4.0-1.0-1.18","6501f64fbe9a0a65bd5f7891","6662009ae78f21dd82fcd179","66620b6d97325bfb95f3b37b","null","","null","","","","","","","","./tasks/HMM-beads/Images/BlackBeadChoice.png","","","","","","","","","",""
"image-keyboard-response","69","222184","0.0-3.0-4.0-1.0-2.18","6501f64fbe9a0a65bd5f7891","6662009ae78f21dd82fcd179","66620b6d97325bfb95f3b37b","null","","null","","","","","","","","./tasks/HMM-beads/Images/BlackBeadChoiceWrong.png","","","","","","","","","",""
"image-keyboard-response","70","222710","0.0-3.0-4.0-1.0-0.19","6501f64fbe9a0a65bd5f7891","6662009ae78f21dd82fcd179","66620b6d97325bfb95f3b37b","520","","f","","","","","","","","./tasks/HMM-beads/Images/NewTrialWC.png","practice","0","19","0","0","1","0","true","",""
"image-keyboard-response","71","223016","0.0-3.0-4.0-1.0-1.19","6501f64fbe9a0a65bd5f7891","6662009ae78f21dd82fcd179","66620b6d97325bfb95f3b37b","null","","null","","","","","","","","./tasks/HMM-beads/Images/BlackBeadChoice.png","","","","","","","","","",""
"image-keyboard-response","72","223521","0.0-3.0-4.0-1.0-2.19","6501f64fbe9a0a65bd5f7891","6662009ae78f21dd82fcd179","66620b6d97325bfb95f3b37b","null","","null","","","","","","","","./tasks/HMM-beads/Images/BlackBeadChoiceCorrect.png","","","","","","","","","",""
"image-keyboard-response","73","224407","0.0-3.0-4.0-1.0-0.20","6501f64fbe9a0a65bd5f7891","6662009ae78f21dd82fcd179","66620b6d97325bfb95f3b37b","881","","f","","","","","","","","./tasks/HMM-beads/Images/NewTrialBC.png","practice","0","20","0","0","0","0","true","",""
"image-keyboard-response","74","224712","0.0-3.0-4.0-1.0-1.20","6501f64fbe9a0a65bd5f7891","6662009ae78f21dd82fcd179","66620b6d97325bfb95f3b37b","null","","null","","","","","","","","./tasks/HMM-beads/Images/BlackBeadChoice.png","","","","","","","","","",""
"image-keyboard-response","75","225223","0.0-3.0-4.0-1.0-2.20","6501f64fbe9a0a65bd5f7891","6662009ae78f21dd82fcd179","66620b6d97325bfb95f3b37b","null","","null","","","","","","","","./tasks/HMM-beads/Images/BlackBeadChoiceCorrect.png","","","","","","","","","",""
"image-keyboard-response","76","225879","0.0-3.0-4.0-1.0-0.21","6501f64fbe9a0a65bd5f7891","6662009ae78f21dd82fcd179","66620b6d97325bfb95f3b37b","650","","f","","","","","","","","./tasks/HMM-beads/Images/NewTrialBC.png","practice","0","21","0","1","0","0","false","",""
"image-keyboard-response","77","226184","0.0-3.0-4.0-1.0-1.21","6501f64fbe9a0a65bd5f7891","6662009ae78f21dd82fcd179","66620b6d97325bfb95f3b37b","null","","null","","","","","","","","./tasks/HMM-beads/Images/BlackBeadChoice.png","","","","","","","","","",""
"image-keyboard-response","78","226689","0.0-3.0-4.0-1.0-2.21","6501f64fbe9a0a65bd5f7891","6662009ae78f21dd82fcd179","66620b6d97325bfb95f3b37b","null","","null","","","","","","","","./tasks/HMM-beads/Images/BlackBeadChoiceWrong.png","","","","","","","","","",""
"image-keyboard-response","79","227159","0.0-3.0-4.0-1.0-0.22","6501f64fbe9a0a65bd5f7891","6662009ae78f21dd82fcd179","66620b6d97325bfb95f3b37b","466","","f","","","","","","","","./tasks/HMM-beads/Images/NewTrialWC.png","practice","0","22","1","1","1","0","false","",""
"image-keyboard-response","80","227464","0.0-3.0-4.0-1.0-1.22","6501f64fbe9a0a65bd5f7891","6662009ae78f21dd82fcd179","66620b6d97325bfb95f3b37b","null","","null","","","","","","","","./tasks/HMM-beads/Images/BlackBeadChoice.png","","","","","","","","","",""
"image-keyboard-response","81","227973","0.0-3.0-4.0-1.0-2.22","6501f64fbe9a0a65bd5f7891","6662009ae78f21dd82fcd179","66620b6d97325bfb95f3b37b","null","","null","","","","","","","","./tasks/HMM-beads/Images/BlackBeadChoiceWrong.png","","","","","","","","","",""
"image-keyboard-response","82","228679","0.0-3.0-4.0-1.0-0.23","6501f64fbe9a0a65bd5f7891","6662009ae78f21dd82fcd179","66620b6d97325bfb95f3b37b","701","","f","","","","","","","","./tasks/HMM-beads/Images/NewTrialWC.png","practice","0","23","1","0","1","0","true","",""
"image-keyboard-response","83","228984","0.0-3.0-4.0-1.0-1.23","6501f64fbe9a0a65bd5f7891","6662009ae78f21dd82fcd179","66620b6d97325bfb95f3b37b","null","","null","","","","","","","","./tasks/HMM-beads/Images/BlackBeadChoice.png","","","","","","","","","",""
"image-keyboard-response","84","229490","0.0-3.0-4.0-1.0-2.23","6501f64fbe9a0a65bd5f7891","6662009ae78f21dd82fcd179","66620b6d97325bfb95f3b37b","null","","null","","","","","","","","./tasks/HMM-beads/Images/BlackBeadChoiceCorrect.png","","","","","","","","","",""
"image-keyboard-response","85","230150","0.0-3.0-4.0-1.0-0.24","6501f64fbe9a0a65bd5f7891","6662009ae78f21dd82fcd179","66620b6d97325bfb95f3b37b","655","","f","","","","","","","","./tasks/HMM-beads/Images/NewTrialBC.png","practice","0","24","1","1","0","0","false","",""
"image-keyboard-response","86","230455","0.0-3.0-4.0-1.0-1.24","6501f64fbe9a0a65bd5f7891","6662009ae78f21dd82fcd179","66620b6d97325bfb95f3b37b","null","","null","","","","","","","","./tasks/HMM-beads/Images/BlackBeadChoice.png","","","","","","","","","",""
"image-keyboard-response","87","230974","0.0-3.0-4.0-1.0-2.24","6501f64fbe9a0a65bd5f7891","6662009ae78f21dd82fcd179","66620b6d97325bfb95f3b37b","null","","null","","","","","","","","./tasks/HMM-beads/Images/BlackBeadChoiceWrong.png","","","","","","","","","",""
"image-keyboard-response","88","232350","0.0-3.0-4.0-1.0-0.25","6501f64fbe9a0a65bd5f7891","6662009ae78f21dd82fcd179","66620b6d97325bfb95f3b37b","1372","","j","","","","","","","","./tasks/HMM-beads/Images/NewTrialWC.png","practice","0","25","1","1","1","1","true","",""
"image-keyboard-response","89","232661","0.0-3.0-4.0-1.0-1.25","6501f64fbe9a0a65bd5f7891","6662009ae78f21dd82fcd179","66620b6d97325bfb95f3b37b","null","","null","","","","","","","","./tasks/HMM-beads/Images/WhiteBeadChoice.png","","","","","","","","","",""
"image-keyboard-response","90","233172","0.0-3.0-4.0-1.0-2.25","6501f64fbe9a0a65bd5f7891","6662009ae78f21dd82fcd179","66620b6d97325bfb95f3b37b","null","","null","","","","","","","","./tasks/HMM-beads/Images/WhiteBeadChoiceCorrect.png","","","","","","","","","",""
"image-keyboard-response","91","233735","0.0-3.0-4.0-1.0-0.26","6501f64fbe9a0a65bd5f7891","6662009ae78f21dd82fcd179","66620b6d97325bfb95f3b37b","558","","j","","","","","","","","./tasks/HMM-beads/Images/NewTrialWC.png","practice","0","26","1","1","1","1","true","",""
"image-keyboard-response","92","234043","0.0-3.0-4.0-1.0-1.26","6501f64fbe9a0a65bd5f7891","6662009ae78f21dd82fcd179","66620b6d97325bfb95f3b37b","null","","null","","","","","","","","./tasks/HMM-beads/Images/WhiteBeadChoice.png","","","","","","","","","",""
"image-keyboard-response","93","234549","0.0-3.0-4.0-1.0-2.26","6501f64fbe9a0a65bd5f7891","6662009ae78f21dd82fcd179","66620b6d97325bfb95f3b37b","null","","null","","","","","","","","./tasks/HMM-beads/Images/WhiteBeadChoiceCorrect.png","","","","","","","","","",""
"image-keyboard-response","94","235118","0.0-3.0-4.0-1.0-0.27","6501f64fbe9a0a65bd5f7891","6662009ae78f21dd82fcd179","66620b6d97325bfb95f3b37b","566","","j","","","","","","","","./tasks/HMM-beads/Images/NewTrialWC.png","practice","0","27","1","1","1","1","true","",""
"image-keyboard-response","95","235423","0.0-3.0-4.0-1.0-1.27","6501f64fbe9a0a65bd5f7891","6662009ae78f21dd82fcd179","66620b6d97325bfb95f3b37b","null","","null","","","","","","","","./tasks/HMM-beads/Images/WhiteBeadChoice.png","","","","","","","","","",""
"image-keyboard-response","96","235929","0.0-3.0-4.0-1.0-2.27","6501f64fbe9a0a65bd5f7891","6662009ae78f21dd82fcd179","66620b6d97325bfb95f3b37b","null","","null","","","","","","","","./tasks/HMM-beads/Images/WhiteBeadChoiceCorrect.png","","","","","","","","","",""
"image-keyboard-response","97","236495","0.0-3.0-4.0-1.0-0.28","6501f64fbe9a0a65bd5f7891","6662009ae78f21dd82fcd179","66620b6d97325bfb95f3b37b","559","","j","","","","","","","","./tasks/HMM-beads/Images/NewTrialWC.png","practice","0","28","1","0","1","1","false","",""
"image-keyboard-response","98","236801","0.0-3.0-4.0-1.0-1.28","6501f64fbe9a0a65bd5f7891","6662009ae78f21dd82fcd179","66620b6d97325bfb95f3b37b","null","","null","","","","","","","","./tasks/HMM-beads/Images/WhiteBeadChoice.png","","","","","","","","","",""
"image-keyboard-response","99","237323","0.0-3.0-4.0-1.0-2.28","6501f64fbe9a0a65bd5f7891","6662009ae78f21dd82fcd179","66620b6d97325bfb95f3b37b","null","","null","","","","","","","","./tasks/HMM-beads/Images/WhiteBeadChoiceWrong.png","","","","","","","","","",""
"image-keyboard-response","100","237846","0.0-3.0-4.0-1.0-0.29","6501f64fbe9a0a65bd5f7891","6662009ae78f21dd82fcd179","66620b6d97325bfb95f3b37b","519","","j","","","","","","","","./tasks/HMM-beads/Images/NewTrialBC.png","practice","0","29","1","1","0","1","true","",""
"image-keyboard-response","101","238152","0.0-3.0-4.0-1.0-1.29","6501f64fbe9a0a65bd5f7891","6662009ae78f21dd82fcd179","66620b6d97325bfb95f3b37b","null","","null","","","","","","","","./tasks/HMM-beads/Images/WhiteBeadChoice.png","","","","","","","","","",""
"image-keyboard-response","102","238658","0.0-3.0-4.0-1.0-2.29","6501f64fbe9a0a65bd5f7891","6662009ae78f21dd82fcd179","66620b6d97325bfb95f3b37b","null","","null","","","","","","","","./tasks/HMM-beads/Images/WhiteBeadChoiceCorrect.png","","","","","","","","","",""
"image-keyboard-response","103","239199","0.0-3.0-4.0-1.0-0.30","6501f64fbe9a0a65bd5f7891","6662009ae78f21dd82fcd179","66620b6d97325bfb95f3b37b","534","","j","","","","","","","","./tasks/HMM-beads/Images/NewTrialWC.png","practice","0","30","1","0","1","1","false","",""
"image-keyboard-response","104","239503","0.0-3.0-4.0-1.0-1.30","6501f64fbe9a0a65bd5f7891","6662009ae78f21dd82fcd179","66620b6d97325bfb95f3b37b","null","","null","","","","","","","","./tasks/HMM-beads/Images/WhiteBeadChoice.png","","","","","","","","","",""
"image-keyboard-response","105","240008","0.0-3.0-4.0-1.0-2.30","6501f64fbe9a0a65bd5f7891","6662009ae78f21dd82fcd179","66620b6d97325bfb95f3b37b","null","","null","","","","","","","","./tasks/HMM-beads/Images/WhiteBeadChoiceWrong.png","","","","","","","","","",""
"image-keyboard-response","106","240646","0.0-3.0-4.0-1.0-0.31","6501f64fbe9a0a65bd5f7891","6662009ae78f21dd82fcd179","66620b6d97325bfb95f3b37b","633","","j","","","","","","","","./tasks/HMM-beads/Images/NewTrialBC.png","practice","0","31","1","1","0","1","true","",""
"image-keyboard-response","107","240951","0.0-3.0-4.0-1.0-1.31","6501f64fbe9a0a65bd5f7891","6662009ae78f21dd82fcd179","66620b6d97325bfb95f3b37b","null","","null","","","","","","","","./tasks/HMM-beads/Images/WhiteBeadChoice.png","","","","","","","","","",""
"image-keyboard-response","108","241456","0.0-3.0-4.0-1.0-2.31","6501f64fbe9a0a65bd5f7891","6662009ae78f21dd82fcd179","66620b6d97325bfb95f3b37b","null","","null","","","","","","","","./tasks/HMM-beads/Images/WhiteBeadChoiceCorrect.png","","","","","","","","","",""
"image-keyboard-response","109","242008","0.0-3.0-4.0-1.0-0.32","6501f64fbe9a0a65bd5f7891","6662009ae78f21dd82fcd179","66620b6d97325bfb95f3b37b","545","","j","","","","","","","","./tasks/HMM-beads/Images/NewTrialWC.png","practice","0","32","1","1","1","1","true","",""
"image-keyboard-response","110","242317","0.0-3.0-4.0-1.0-1.32","6501f64fbe9a0a65bd5f7891","6662009ae78f21dd82fcd179","66620b6d97325bfb95f3b37b","null","","null","","","","","","","","./tasks/HMM-beads/Images/WhiteBeadChoice.png","","","","","","","","","",""
"image-keyboard-response","111","242821","0.0-3.0-4.0-1.0-2.32","6501f64fbe9a0a65bd5f7891","6662009ae78f21dd82fcd179","66620b6d97325bfb95f3b37b","null","","null","","","","","","","","./tasks/HMM-beads/Images/WhiteBeadChoiceCorrect.png","","","","","","","","","",""
"image-keyboard-response","112","244007","0.0-3.0-4.0-1.0-0.33","6501f64fbe9a0a65bd5f7891","6662009ae78f21dd82fcd179","66620b6d97325bfb95f3b37b","1179","","j","","","","","","","","./tasks/HMM-beads/Images/NewTrialWC.png","practice","0","33","1","1","1","1","true","",""
"image-keyboard-response","113","244316","0.0-3.0-4.0-1.0-1.33","6501f64fbe9a0a65bd5f7891","6662009ae78f21dd82fcd179","66620b6d97325bfb95f3b37b","null","","null","","","","","","","","./tasks/HMM-beads/Images/WhiteBeadChoice.png","","","","","","","","","",""
"image-keyboard-response","114","244822","0.0-3.0-4.0-1.0-2.33","6501f64fbe9a0a65bd5f7891","6662009ae78f21dd82fcd179","66620b6d97325bfb95f3b37b","null","","null","","","","","","","","./tasks/HMM-beads/Images/WhiteBeadChoiceCorrect.png","","","","","","","","","",""
"image-keyboard-response","115","245447","0.0-3.0-4.0-1.0-0.34","6501f64fbe9a0a65bd5f7891","6662009ae78f21dd82fcd179","66620b6d97325bfb95f3b37b","618","","j","","","","","","","","./tasks/HMM-beads/Images/NewTrialWC.png","practice","0","34","1","1","1","1","true","",""
"image-keyboard-response","116","245751","0.0-3.0-4.0-1.0-1.34","6501f64fbe9a0a65bd5f7891","6662009ae78f21dd82fcd179","66620b6d97325bfb95f3b37b","null","","null","","","","","","","","./tasks/HMM-beads/Images/WhiteBeadChoice.png","","","","","","","","","",""
"image-keyboard-response","117","246257","0.0-3.0-4.0-1.0-2.34","6501f64fbe9a0a65bd5f7891","6662009ae78f21dd82fcd179","66620b6d97325bfb95f3b37b","null","","null","","","","","","","","./tasks/HMM-beads/Images/WhiteBeadChoiceCorrect.png","","","","","","","","","",""
"image-keyboard-response","118","246927","0.0-3.0-4.0-1.0-0.35","6501f64fbe9a0a65bd5f7891","6662009ae78f21dd82fcd179","66620b6d97325bfb95f3b37b","666","","j","","","","","","","","./tasks/HMM-beads/Images/NewTrialWC.png","practice","0","35","1","1","1","1","true","",""
"image-keyboard-response","119","247240","0.0-3.0-4.0-1.0-1.35","6501f64fbe9a0a65bd5f7891","6662009ae78f21dd82fcd179","66620b6d97325bfb95f3b37b","null","","null","","","","","","","","./tasks/HMM-beads/Images/WhiteBeadChoice.png","","","","","","","","","",""
"image-keyboard-response","120","247744","0.0-3.0-4.0-1.0-2.35","6501f64fbe9a0a65bd5f7891","6662009ae78f21dd82fcd179","66620b6d97325bfb95f3b37b","null","","null","","","","","","","","./tasks/HMM-beads/Images/WhiteBeadChoiceCorrect.png","","","","","","","","","",""
"image-keyboard-response","121","248391","0.0-3.0-4.0-1.0-0.36","6501f64fbe9a0a65bd5f7891","6662009ae78f21dd82fcd179","66620b6d97325bfb95f3b37b","639","","j","","","","","","","","./tasks/HMM-beads/Images/NewTrialWC.png","practice","0","36","1","0","1","1","false","",""
"image-keyboard-response","122","248696","0.0-3.0-4.0-1.0-1.36","6501f64fbe9a0a65bd5f7891","6662009ae78f21dd82fcd179","66620b6d97325bfb95f3b37b","null","","null","","","","","","","","./tasks/HMM-beads/Images/WhiteBeadChoice.png","","","","","","","","","",""
"image-keyboard-response","123","249201","0.0-3.0-4.0-1.0-2.36","6501f64fbe9a0a65bd5f7891","6662009ae78f21dd82fcd179","66620b6d97325bfb95f3b37b","null","","null","","","","","","","","./tasks/HMM-beads/Images/WhiteBeadChoiceWrong.png","","","","","","","","","",""
"image-keyboard-response","124","249871","0.0-3.0-4.0-1.0-0.37","6501f64fbe9a0a65bd5f7891","6662009ae78f21dd82fcd179","66620b6d97325bfb95f3b37b","665","","j","","","","","","","","./tasks/HMM-beads/Images/NewTrialBC.png","practice","0","37","1","1","0","1","true","",""
"image-keyboard-response","125","250175","0.0-3.0-4.0-1.0-1.37","6501f64fbe9a0a65bd5f7891","6662009ae78f21dd82fcd179","66620b6d97325bfb95f3b37b","null","","null","","","","","","","","./tasks/HMM-beads/Images/WhiteBeadChoice.png","","","","","","","","","",""
"image-keyboard-response","126","250681","0.0-3.0-4.0-1.0-2.37","6501f64fbe9a0a65bd5f7891","6662009ae78f21dd82fcd179","66620b6d97325bfb95f3b37b","null","","null","","","","","","","","./tasks/HMM-beads/Images/WhiteBeadChoiceCorrect.png","","","","","","","","","",""
"image-keyboard-response","127","251262","0.0-3.0-4.0-1.0-0.38","6501f64fbe9a0a65bd5f7891","6662009ae78f21dd82fcd179","66620b6d97325bfb95f3b37b","577","","j","","","","","","","","./tasks/HMM-beads/Images/NewTrialWC.png","practice","0","38","1","1","1","1","true","",""
"image-keyboard-response","128","251568","0.0-3.0-4.0-1.0-1.38","6501f64fbe9a0a65bd5f7891","6662009ae78f21dd82fcd179","66620b6d97325bfb95f3b37b","null","","null","","","","","","","","./tasks/HMM-beads/Images/WhiteBeadChoice.png","","","","","","","","","",""
"image-keyboard-response","129","252078","0.0-3.0-4.0-1.0-2.38","6501f64fbe9a0a65bd5f7891","6662009ae78f21dd82fcd179","66620b6d97325bfb95f3b37b","null","","null","","","","","","","","./tasks/HMM-beads/Images/WhiteBeadChoiceCorrect.png","","","","","","","","","",""
"image-keyboard-response","130","252791","0.0-3.0-4.0-1.0-0.39","6501f64fbe9a0a65bd5f7891","6662009ae78f21dd82fcd179","66620b6d97325bfb95f3b37b","708","","j","","","","","","","","./tasks/HMM-beads/Images/NewTrialWC.png","practice","0","39","1","1","1","1","true","",""
"image-keyboard-response","131","253096","0.0-3.0-4.0-1.0-1.39","6501f64fbe9a0a65bd5f7891","6662009ae78f21dd82fcd179","66620b6d97325bfb95f3b37b","null","","null","","","","","","","","./tasks/HMM-beads/Images/WhiteBeadChoice.png","","","","","","","","","",""
"image-keyboard-response","132","253602","0.0-3.0-4.0-1.0-2.39","6501f64fbe9a0a65bd5f7891","6662009ae78f21dd82fcd179","66620b6d97325bfb95f3b37b","null","","null","","","","","","","","./tasks/HMM-beads/Images/WhiteBeadChoiceCorrect.png","","","","","","","","","",""
"html-keyboard-response","133","256687","0.0-3.0-4.0-2.0","6501f64fbe9a0a65bd5f7891","6662009ae78f21dd82fcd179","66620b6d97325bfb95f3b37b","3086",""," ","","","","","","","","","","","","","","","","","",""
"instructions","134","273093","0.0-3.0-5.0","6501f64fbe9a0a65bd5f7891","6662009ae78f21dd82fcd179","66620b6d97325bfb95f3b37b","16405","","","","[{""page_index"":0,""viewing_time"":13095},{""page_index"":1,""viewing_time"":3310}]","","","","","","","","","","","","","","","",""
"html-keyboard-response","135","276062","0.0-3.0-6.0-0.0","6501f64fbe9a0a65bd5f7891","6662009ae78f21dd82fcd179","66620b6d97325bfb95f3b37b","2968",""," ","","","","","","","","<div align=center>In this block, there will be a <b>1% chance</b> that the jar on the next trial will be different from the jar on the current trial.<br><br></div>","","","","","","","","","",""
"image-keyboard-response","136","277159","0.0-3.0-6.0-1.0-0.0","6501f64fbe9a0a65bd5f7891","6662009ae78f21dd82fcd179","66620b6d97325bfb95f3b37b","1090","","f","","","","","","","","./tasks/HMM-beads/Images/NoChoice.png","lowH","1","0","1","0","9","0","true","",""
"image-keyboard-response","137","277464","0.0-3.0-6.0-1.0-1.0","6501f64fbe9a0a65bd5f7891","6662009ae78f21dd82fcd179","66620b6d97325bfb95f3b37b","null","","null","","","","","","","","./tasks/HMM-beads/Images/BlackBeadChoice.png","","","","","","","","","",""
"image-keyboard-response","138","277969","0.0-3.0-6.0-1.0-2.0","6501f64fbe9a0a65bd5f7891","6662009ae78f21dd82fcd179","66620b6d97325bfb95f3b37b","null","","null","","","","","","","","./tasks/HMM-beads/Images/BlackBeadChoiceCorrect.png","","","","","","","","","",""
"image-keyboard-response","139","278351","0.0-3.0-6.0-1.0-0.1","6501f64fbe9a0a65bd5f7891","6662009ae78f21dd82fcd179","66620b6d97325bfb95f3b37b","378","","f","","","","","","","","./tasks/HMM-beads/Images/NewTrialBC.png","lowH","1","1","1","1","0","0","false","",""
"image-keyboard-response","140","278656","0.0-3.0-6.0-1.0-1.1","6501f64fbe9a0a65bd5f7891","6662009ae78f21dd82fcd179","66620b6d97325bfb95f3b37b","null","","null","","","","","","","","./tasks/HMM-beads/Images/BlackBeadChoice.png","","","","","","","","","",""
"image-keyboard-response","141","279162","0.0-3.0-6.0-1.0-2.1","6501f64fbe9a0a65bd5f7891","6662009ae78f21dd82fcd179","66620b6d97325bfb95f3b37b","null","","null","","","","","","","","./tasks/HMM-beads/Images/BlackBeadChoiceWrong.png","","","","","","","","","",""
"image-keyboard-response","142","279631","0.0-3.0-6.0-1.0-0.2","6501f64fbe9a0a65bd5f7891","6662009ae78f21dd82fcd179","66620b6d97325bfb95f3b37b","453","","f","","","","","","","","./tasks/HMM-beads/Images/NewTrialWC.png","lowH","1","2","1","1","1","0","false","",""
"image-keyboard-response","143","279936","0.0-3.0-6.0-1.0-1.2","6501f64fbe9a0a65bd5f7891","6662009ae78f21dd82fcd179","66620b6d97325bfb95f3b37b","null","","null","","","","","","","","./tasks/HMM-beads/Images/BlackBeadChoice.png","","","","","","","","","",""
"image-keyboard-response","144","280441","0.0-3.0-6.0-1.0-2.2","6501f64fbe9a0a65bd5f7891","6662009ae78f21dd82fcd179","66620b6d97325bfb95f3b37b","null","","null","","","","","","","","./tasks/HMM-beads/Images/BlackBeadChoiceWrong.png","","","","","","","","","",""
"image-keyboard-response","145","281759","0.0-3.0-6.0-1.0-0.3","6501f64fbe9a0a65bd5f7891","6662009ae78f21dd82fcd179","66620b6d97325bfb95f3b37b","1314","","j","","","","","","","","./tasks/HMM-beads/Images/NewTrialWC.png","lowH","1","3","1","1","1","1","true","",""
"image-keyboard-response","146","282066","0.0-3.0-6.0-1.0-1.3","6501f64fbe9a0a65bd5f7891","6662009ae78f21dd82fcd179","66620b6d97325bfb95f3b37b","null","","null","","","","","","","","./tasks/HMM-beads/Images/WhiteBeadChoice.png","","","","","","","","","",""
"image-keyboard-response","147","282571","0.0-3.0-6.0-1.0-2.3","6501f64fbe9a0a65bd5f7891","6662009ae78f21dd82fcd179","66620b6d97325bfb95f3b37b","null","","null","","","","","","","","./tasks/HMM-beads/Images/WhiteBeadChoiceCorrect.png","","","","","","","","","",""
"image-keyboard-response","148","283031","0.0-3.0-6.0-1.0-0.4","6501f64fbe9a0a65bd5f7891","6662009ae78f21dd82fcd179","66620b6d97325bfb95f3b37b","455","","j","","","","","","","","./tasks/HMM-beads/Images/NewTrialWC.png","lowH","1","4","1","1","1","1","true","",""
"image-keyboard-response","149","283335","0.0-3.0-6.0-1.0-1.4","6501f64fbe9a0a65bd5f7891","6662009ae78f21dd82fcd179","66620b6d97325bfb95f3b37b","null","","null","","","","","","","","./tasks/HMM-beads/Images/WhiteBeadChoice.png","","","","","","","","","",""
"image-keyboard-response","150","283841","0.0-3.0-6.0-1.0-2.4","6501f64fbe9a0a65bd5f7891","6662009ae78f21dd82fcd179","66620b6d97325bfb95f3b37b","null","","null","","","","","","","","./tasks/HMM-beads/Images/WhiteBeadChoiceCorrect.png","","","","","","","","","",""
"image-keyboard-response","151","284279","0.0-3.0-6.0-1.0-0.5","6501f64fbe9a0a65bd5f7891","6662009ae78f21dd82fcd179","66620b6d97325bfb95f3b37b","433","","j","","","","","","","","./tasks/HMM-beads/Images/NewTrialWC.png","lowH","1","5","1","1","1","1","true","",""
"image-keyboard-response","152","284584","0.0-3.0-6.0-1.0-1.5","6501f64fbe9a0a65bd5f7891","6662009ae78f21dd82fcd179","66620b6d97325bfb95f3b37b","null","","null","","","","","","","","./tasks/HMM-beads/Images/WhiteBeadChoice.png","","","","","","","","","",""
"image-keyboard-response","153","285089","0.0-3.0-6.0-1.0-2.5","6501f64fbe9a0a65bd5f7891","6662009ae78f21dd82fcd179","66620b6d97325bfb95f3b37b","null","","null","","","","","","","","./tasks/HMM-beads/Images/WhiteBeadChoiceCorrect.png","","","","","","","","","",""
"image-keyboard-response","154","285606","0.0-3.0-6.0-1.0-0.6","6501f64fbe9a0a65bd5f7891","6662009ae78f21dd82fcd179","66620b6d97325bfb95f3b37b","514","","j","","","","","","","","./tasks/HMM-beads/Images/NewTrialWC.png","lowH","1","6","1","0","1","1","false","",""
"image-keyboard-response","155","285911","0.0-3.0-6.0-1.0-1.6","6501f64fbe9a0a65bd5f7891","6662009ae78f21dd82fcd179","66620b6d97325bfb95f3b37b","null","","null","","","","","","","","./tasks/HMM-beads/Images/WhiteBeadChoice.png","","","","","","","","","",""
"image-keyboard-response","156","286418","0.0-3.0-6.0-1.0-2.6","6501f64fbe9a0a65bd5f7891","6662009ae78f21dd82fcd179","66620b6d97325bfb95f3b37b","null","","null","","","","","","","","./tasks/HMM-beads/Images/WhiteBeadChoiceWrong.png","","","","","","","","","",""
"image-keyboard-response","157","286760","0.0-3.0-6.0-1.0-0.7","6501f64fbe9a0a65bd5f7891","6662009ae78f21dd82fcd179","66620b6d97325bfb95f3b37b","335","","j","","","","","","","","./tasks/HMM-beads/Images/NewTrialBC.png","lowH","1","7","1","1","0","1","true","",""
"image-keyboard-response","158","287066","0.0-3.0-6.0-1.0-1.7","6501f64fbe9a0a65bd5f7891","6662009ae78f21dd82fcd179","66620b6d97325bfb95f3b37b","null","","null","","","","","","","","./tasks/HMM-beads/Images/WhiteBeadChoice.png","","","","","","","","","",""
"image-keyboard-response","159","287571","0.0-3.0-6.0-1.0-2.7","6501f64fbe9a0a65bd5f7891","6662009ae78f21dd82fcd179","66620b6d97325bfb95f3b37b","null","","null","","","","","","","","./tasks/HMM-beads/Images/WhiteBeadChoiceCorrect.png","","","","","","","","","",""
"image-keyboard-response","160","287927","0.0-3.0-6.0-1.0-0.8","6501f64fbe9a0a65bd5f7891","6662009ae78f21dd82fcd179","66620b6d97325bfb95f3b37b","351","","j","","","","","","","","./tasks/HMM-beads/Images/NewTrialWC.png","lowH","1","8","1","1","1","1","true","",""
"image-keyboard-response","161","288231","0.0-3.0-6.0-1.0-1.8","6501f64fbe9a0a65bd5f7891","6662009ae78f21dd82fcd179","66620b6d97325bfb95f3b37b","null","","null","","","","","","","","./tasks/HMM-beads/Images/WhiteBeadChoice.png","","","","","","","","","",""
"image-keyboard-response","162","288737","0.0-3.0-6.0-1.0-2.8","6501f64fbe9a0a65bd5f7891","6662009ae78f21dd82fcd179","66620b6d97325bfb95f3b37b","null","","null","","","","","","","","./tasks/HMM-beads/Images/WhiteBeadChoiceCorrect.png","","","","","","","","","",""
"image-keyboard-response","163","289175","0.0-3.0-6.0-1.0-0.9","6501f64fbe9a0a65bd5f7891","6662009ae78f21dd82fcd179","66620b6d97325bfb95f3b37b","433","","j","","","","","","","","./tasks/HMM-beads/Images/NewTrialWC.png","lowH","1","9","1","1","1","1","true","",""
"image-keyboard-response","164","289481","0.0-3.0-6.0-1.0-1.9","6501f64fbe9a0a65bd5f7891","6662009ae78f21dd82fcd179","66620b6d97325bfb95f3b37b","null","","null","","","","","","","","./tasks/HMM-beads/Images/WhiteBeadChoice.png","","","","","","","","","",""
"image-keyboard-response","165","289986","0.0-3.0-6.0-1.0-2.9","6501f64fbe9a0a65bd5f7891","6662009ae78f21dd82fcd179","66620b6d97325bfb95f3b37b","null","","null","","","","","","","","./tasks/HMM-beads/Images/WhiteBeadChoiceCorrect.png","","","","","","","","","",""
"image-keyboard-response","166","290359","0.0-3.0-6.0-1.0-0.10","6501f64fbe9a0a65bd5f7891","6662009ae78f21dd82fcd179","66620b6d97325bfb95f3b37b","367","","j","","","","","","","","./tasks/HMM-beads/Images/NewTrialWC.png","lowH","1","10","1","1","1","1","true","",""
"image-keyboard-response","167","290663","0.0-3.0-6.0-1.0-1.10","6501f64fbe9a0a65bd5f7891","6662009ae78f21dd82fcd179","66620b6d97325bfb95f3b37b","null","","null","","","","","","","","./tasks/HMM-beads/Images/WhiteBeadChoice.png","","","","","","","","","",""
"image-keyboard-response","168","291190","0.0-3.0-6.0-1.0-2.10","6501f64fbe9a0a65bd5f7891","6662009ae78f21dd82fcd179","66620b6d97325bfb95f3b37b","null","","null","","","","","","","","./tasks/HMM-beads/Images/WhiteBeadChoiceCorrect.png","","","","","","","","","",""
"image-keyboard-response","169","291543","0.0-3.0-6.0-1.0-0.11","6501f64fbe9a0a65bd5f7891","6662009ae78f21dd82fcd179","66620b6d97325bfb95f3b37b","347","","j","","","","","","","","./tasks/HMM-beads/Images/NewTrialWC.png","lowH","1","11","1","1","1","1","true","",""
"image-keyboard-response","170","291848","0.0-3.0-6.0-1.0-1.11","6501f64fbe9a0a65bd5f7891","6662009ae78f21dd82fcd179","66620b6d97325bfb95f3b37b","null","","null","","","","","","","","./tasks/HMM-beads/Images/WhiteBeadChoice.png","","","","","","","","","",""
"image-keyboard-response","171","292354","0.0-3.0-6.0-1.0-2.11","6501f64fbe9a0a65bd5f7891","6662009ae78f21dd82fcd179","66620b6d97325bfb95f3b37b","null","","null","","","","","","","","./tasks/HMM-beads/Images/WhiteBeadChoiceCorrect.png","","","","","","","","","",""
"image-keyboard-response","172","292775","0.0-3.0-6.0-1.0-0.12","6501f64fbe9a0a65bd5f7891","6662009ae78f21dd82fcd179","66620b6d97325bfb95f3b37b","416","","j","","","","","","","","./tasks/HMM-beads/Images/NewTrialWC.png","lowH","1","12","1","1","1","1","true","",""
"image-keyboard-response","173","293080","0.0-3.0-6.0-1.0-1.12","6501f64fbe9a0a65bd5f7891","6662009ae78f21dd82fcd179","66620b6d97325bfb95f3b37b","null","","null","","","","","","","","./tasks/HMM-beads/Images/WhiteBeadChoice.png","","","","","","","","","",""
"image-keyboard-response","174","293585","0.0-3.0-6.0-1.0-2.12","6501f64fbe9a0a65bd5f7891","6662009ae78f21dd82fcd179","66620b6d97325bfb95f3b37b","null","","null","","","","","","","","./tasks/HMM-beads/Images/WhiteBeadChoiceCorrect.png","","","","","","","","","",""
"image-keyboard-response","175","293999","0.0-3.0-6.0-1.0-0.13","6501f64fbe9a0a65bd5f7891","6662009ae78f21dd82fcd179","66620b6d97325bfb95f3b37b","406","","j","","","","","","","","./tasks/HMM-beads/Images/NewTrialWC.png","lowH","1","13","1","0","1","1","false","",""
"image-keyboard-response","176","294304","0.0-3.0-6.0-1.0-1.13","6501f64fbe9a0a65bd5f7891","6662009ae78f21dd82fcd179","66620b6d97325bfb95f3b37b","null","","null","","","","","","","","./tasks/HMM-beads/Images/WhiteBeadChoice.png","","","","","","","","","",""
"image-keyboard-response","177","294808","0.0-3.0-6.0-1.0-2.13","6501f64fbe9a0a65bd5f7891","6662009ae78f21dd82fcd179","66620b6d97325bfb95f3b37b","null","","null","","","","","","","","./tasks/HMM-beads/Images/WhiteBeadChoiceWrong.png","","","","","","","","","",""
"image-keyboard-response","178","295199","0.0-3.0-6.0-1.0-0.14","6501f64fbe9a0a65bd5f7891","6662009ae78f21dd82fcd179","66620b6d97325bfb95f3b37b","386","","j","","","","","","","","./tasks/HMM-beads/Images/NewTrialBC.png","lowH","1","14","1","0","0","1","false","",""
"image-keyboard-response","179","295504","0.0-3.0-6.0-1.0-1.14","6501f64fbe9a0a65bd5f7891","6662009ae78f21dd82fcd179","66620b6d97325bfb95f3b37b","null","","null","","","","","","","","./tasks/HMM-beads/Images/WhiteBeadChoice.png","","","","","","","","","",""
"image-keyboard-response","180","296019","0.0-3.0-6.0-1.0-2.14","6501f64fbe9a0a65bd5f7891","6662009ae78f21dd82fcd179","66620b6d97325bfb95f3b37b","null","","null","","","","","","","","./tasks/HMM-beads/Images/WhiteBeadChoiceWrong.png","","","","","","","","","",""
"image-keyboard-response","181","296495","0.0-3.0-6.0-1.0-0.15","6501f64fbe9a0a65bd5f7891","6662009ae78f21dd82fcd179","66620b6d97325bfb95f3b37b","470","","j","","","","","","","","./tasks/HMM-beads/Images/NewTrialBC.png","lowH","1","15","1","1","0","1","true","",""
"image-keyboard-response","182","296809","0.0-3.0-6.0-1.0-1.15","6501f64fbe9a0a65bd5f7891","6662009ae78f21dd82fcd179","66620b6d97325bfb95f3b37b","null","","null","","","","","","","","./tasks/HMM-beads/Images/WhiteBeadChoice.png","","","","","","","","","",""
"image-keyboard-response","183","297314","0.0-3.0-6.0-1.0-2.15","6501f64fbe9a0a65bd5f7891","6662009ae78f21dd82fcd179","66620b6d97325bfb95f3b37b","null","","null","","","","","","","","./tasks/HMM-beads/Images/WhiteBeadChoiceCorrect.png","","","","","","","","","",""
"image-keyboard-response","184","297703","0.0-3.0-6.0-1.0-0.16","6501f64fbe9a0a65bd5f7891","6662009ae78f21dd82fcd179","66620b6d97325bfb95f3b37b","383","","j","","","","","","","","./tasks/HMM-beads/Images/NewTrialWC.png","lowH","1","16","1","1","1","1","true","",""
"image-keyboard-response","185","298008","0.0-3.0-6.0-1.0-1.16","6501f64fbe9a0a65bd5f7891","6662009ae78f21dd82fcd179","66620b6d97325bfb95f3b37b","null","","null","","","","","","","","./tasks/HMM-beads/Images/WhiteBeadChoice.png","","","","","","","","","",""
"image-keyboard-response","186","298514","0.0-3.0-6.0-1.0-2.16","6501f64fbe9a0a65bd5f7891","6662009ae78f21dd82fcd179","66620b6d97325bfb95f3b37b","null","","null","","","","","","","","./tasks/HMM-beads/Images/WhiteBeadChoiceCorrect.png","","","","","","","","","",""
"image-keyboard-response","187","299086","0.0-3.0-6.0-1.0-0.17","6501f64fbe9a0a65bd5f7891","6662009ae78f21dd82fcd179","66620b6d97325bfb95f3b37b","568","","j","","","","","","","","./tasks/HMM-beads/Images/NewTrialWC.png","lowH","1","17","1","1","1","1","true","",""
"image-keyboard-response","188","299392","0.0-3.0-6.0-1.0-1.17","6501f64fbe9a0a65bd5f7891","6662009ae78f21dd82fcd179","66620b6d97325bfb95f3b37b","null","","null","","","","","","","","./tasks/HMM-beads/Images/WhiteBeadChoice.png","","","","","","","","","",""
"image-keyboard-response","189","299907","0.0-3.0-6.0-1.0-2.17","6501f64fbe9a0a65bd5f7891","6662009ae78f21dd82fcd179","66620b6d97325bfb95f3b37b","null","","null","","","","","","","","./tasks/HMM-beads/Images/WhiteBeadChoiceCorrect.png","","","","","","","","","",""
"image-keyboard-response","190","300254","0.0-3.0-6.0-1.0-0.18","6501f64fbe9a0a65bd5f7891","6662009ae78f21dd82fcd179","66620b6d97325bfb95f3b37b","344","","j","","","","","","","","./tasks/HMM-beads/Images/NewTrialWC.png","lowH","1","18","1","1","1","1","true","",""
"image-keyboard-response","191","300560","0.0-3.0-6.0-1.0-1.18","6501f64fbe9a0a65bd5f7891","6662009ae78f21dd82fcd179","66620b6d97325bfb95f3b37b","null","","null","","","","","","","","./tasks/HMM-beads/Images/WhiteBeadChoice.png","","","","","","","","","",""
"image-keyboard-response","192","301087","0.0-3.0-6.0-1.0-2.18","6501f64fbe9a0a65bd5f7891","6662009ae78f21dd82fcd179","66620b6d97325bfb95f3b37b","null","","null","","","","","","","","./tasks/HMM-beads/Images/WhiteBeadChoiceCorrect.png","","","","","","","","","",""
"image-keyboard-response","193","301495","0.0-3.0-6.0-1.0-0.19","6501f64fbe9a0a65bd5f7891","6662009ae78f21dd82fcd179","66620b6d97325bfb95f3b37b","403","","j","","","","","","","","./tasks/HMM-beads/Images/NewTrialWC.png","lowH","1","19","1","1","1","1","true","",""
"image-keyboard-response","194","301800","0.0-3.0-6.0-1.0-1.19","6501f64fbe9a0a65bd5f7891","6662009ae78f21dd82fcd179","66620b6d97325bfb95f3b37b","null","","null","","","","","","","","./tasks/HMM-beads/Images/WhiteBeadChoice.png","","","","","","","","","",""
"image-keyboard-response","195","302305","0.0-3.0-6.0-1.0-2.19","6501f64fbe9a0a65bd5f7891","6662009ae78f21dd82fcd179","66620b6d97325bfb95f3b37b","null","","null","","","","","","","","./tasks/HMM-beads/Images/WhiteBeadChoiceCorrect.png","","","","","","","","","",""
"image-keyboard-response","196","302711","0.0-3.0-6.0-1.0-0.20","6501f64fbe9a0a65bd5f7891","6662009ae78f21dd82fcd179","66620b6d97325bfb95f3b37b","401","","j","","","","","","","","./tasks/HMM-beads/Images/NewTrialWC.png","lowH","1","20","1","1","1","1","true","",""
"image-keyboard-response","197","303016","0.0-3.0-6.0-1.0-1.20","6501f64fbe9a0a65bd5f7891","6662009ae78f21dd82fcd179","66620b6d97325bfb95f3b37b","null","","null","","","","","","","","./tasks/HMM-beads/Images/WhiteBeadChoice.png","","","","","","","","","",""
"image-keyboard-response","198","303522","0.0-3.0-6.0-1.0-2.20","6501f64fbe9a0a65bd5f7891","6662009ae78f21dd82fcd179","66620b6d97325bfb95f3b37b","null","","null","","","","","","","","./tasks/HMM-beads/Images/WhiteBeadChoiceCorrect.png","","","","","","","","","",""
"image-keyboard-response","199","303942","0.0-3.0-6.0-1.0-0.21","6501f64fbe9a0a65bd5f7891","6662009ae78f21dd82fcd179","66620b6d97325bfb95f3b37b","409","","j","","","","","","","","./tasks/HMM-beads/Images/NewTrialWC.png","lowH","1","21","1","1","1","1","true","",""
"image-keyboard-response","200","304248","0.0-3.0-6.0-1.0-1.21","6501f64fbe9a0a65bd5f7891","6662009ae78f21dd82fcd179","66620b6d97325bfb95f3b37b","null","","null","","","","","","","","./tasks/HMM-beads/Images/WhiteBeadChoice.png","","","","","","","","","",""
"image-keyboard-response","201","304752","0.0-3.0-6.0-1.0-2.21","6501f64fbe9a0a65bd5f7891","6662009ae78f21dd82fcd179","66620b6d97325bfb95f3b37b","null","","null","","","","","","","","./tasks/HMM-beads/Images/WhiteBeadChoiceCorrect.png","","","","","","","","","",""
"image-keyboard-response","202","305207","0.0-3.0-6.0-1.0-0.22","6501f64fbe9a0a65bd5f7891","6662009ae78f21dd82fcd179","66620b6d97325bfb95f3b37b","450","","j","","","","","","","","./tasks/HMM-beads/Images/NewTrialWC.png","lowH","1","22","1","1","1","1","true","",""
"image-keyboard-response","203","305522","0.0-3.0-6.0-1.0-1.22","6501f64fbe9a0a65bd5f7891","6662009ae78f21dd82fcd179","66620b6d97325bfb95f3b37b","null","","null","","","","","","","","./tasks/HMM-beads/Images/WhiteBeadChoice.png","","","","","","","","","",""
"image-keyboard-response","204","306028","0.0-3.0-6.0-1.0-2.22","6501f64fbe9a0a65bd5f7891","6662009ae78f21dd82fcd179","66620b6d97325bfb95f3b37b","null","","null","","","","","","","","./tasks/HMM-beads/Images/WhiteBeadChoiceCorrect.png","","","","","","","","","",""
"image-keyboard-response","205","306479","0.0-3.0-6.0-1.0-0.23","6501f64fbe9a0a65bd5f7891","6662009ae78f21dd82fcd179","66620b6d97325bfb95f3b37b","447","","j","","","","","","","","./tasks/HMM-beads/Images/NewTrialWC.png","lowH","1","23","1","1","1","1","true","",""
"image-keyboard-response","206","306784","0.0-3.0-6.0-1.0-1.23","6501f64fbe9a0a65bd5f7891","6662009ae78f21dd82fcd179","66620b6d97325bfb95f3b37b","null","","null","","","","","","","","./tasks/HMM-beads/Images/WhiteBeadChoice.png","","","","","","","","","",""
"image-keyboard-response","207","307289","0.0-3.0-6.0-1.0-2.23","6501f64fbe9a0a65bd5f7891","6662009ae78f21dd82fcd179","66620b6d97325bfb95f3b37b","null","","null","","","","","","","","./tasks/HMM-beads/Images/WhiteBeadChoiceCorrect.png","","","","","","","","","",""
"image-keyboard-response","208","307678","0.0-3.0-6.0-1.0-0.24","6501f64fbe9a0a65bd5f7891","6662009ae78f21dd82fcd179","66620b6d97325bfb95f3b37b","385","","j","","","","","","","","./tasks/HMM-beads/Images/NewTrialWC.png","lowH","1","24","1","0","1","1","false","",""
"image-keyboard-response","209","307984","0.0-3.0-6.0-1.0-1.24","6501f64fbe9a0a65bd5f7891","6662009ae78f21dd82fcd179","66620b6d97325bfb95f3b37b","null","","null","","","","","","","","./tasks/HMM-beads/Images/WhiteBeadChoice.png","","","","","","","","","",""
"image-keyboard-response","210","308489","0.0-3.0-6.0-1.0-2.24","6501f64fbe9a0a65bd5f7891","6662009ae78f21dd82fcd179","66620b6d97325bfb95f3b37b","null","","null","","","","","","","","./tasks/HMM-beads/Images/WhiteBeadChoiceWrong.png","","","","","","","","","",""
"image-keyboard-response","211","308943","0.0-3.0-6.0-1.0-0.25","6501f64fbe9a0a65bd5f7891","6662009ae78f21dd82fcd179","66620b6d97325bfb95f3b37b","447","","j","","","","","","","","./tasks/HMM-beads/Images/NewTrialBC.png","lowH","1","25","1","1","0","1","true","",""
"image-keyboard-response","212","309249","0.0-3.0-6.0-1.0-1.25","6501f64fbe9a0a65bd5f7891","6662009ae78f21dd82fcd179","66620b6d97325bfb95f3b37b","null","","null","","","","","","","","./tasks/HMM-beads/Images/WhiteBeadChoice.png","","","","","","","","","",""
"image-keyboard-response","213","309766","0.0-3.0-6.0-1.0-2.25","6501f64fbe9a0a65bd5f7891","6662009ae78f21dd82fcd179","66620b6d97325bfb95f3b37b","null","","null","","","","","","","","./tasks/HMM-beads/Images/WhiteBeadChoiceCorrect.png","","","","","","","","","",""
"image-keyboard-response","214","310111","0.0-3.0-6.0-1.0-0.26","6501f64fbe9a0a65bd5f7891","6662009ae78f21dd82fcd179","66620b6d97325bfb95f3b37b","340","","j","","","","","","","","./tasks/HMM-beads/Images/NewTrialWC.png","lowH","1","26","1","0","1","1","false","",""
"image-keyboard-response","215","310417","0.0-3.0-6.0-1.0-1.26","6501f64fbe9a0a65bd5f7891","6662009ae78f21dd82fcd179","66620b6d97325bfb95f3b37b","null","","null","","","","","","","","./tasks/HMM-beads/Images/WhiteBeadChoice.png","","","","","","","","","",""
"image-keyboard-response","216","310922","0.0-3.0-6.0-1.0-2.26","6501f64fbe9a0a65bd5f7891","6662009ae78f21dd82fcd179","66620b6d97325bfb95f3b37b","null","","null","","","","","","","","./tasks/HMM-beads/Images/WhiteBeadChoiceWrong.png","","","","","","","","","",""
"image-keyboard-response","217","311399","0.0-3.0-6.0-1.0-0.27","6501f64fbe9a0a65bd5f7891","6662009ae78f21dd82fcd179","66620b6d97325bfb95f3b37b","471","","j","","","","","","","","./tasks/HMM-beads/Images/NewTrialBC.png","lowH","1","27","1","1","0","1","true","",""
"image-keyboard-response","218","311704","0.0-3.0-6.0-1.0-1.27","6501f64fbe9a0a65bd5f7891","6662009ae78f21dd82fcd179","66620b6d97325bfb95f3b37b","null","","null","","","","","","","","./tasks/HMM-beads/Images/WhiteBeadChoice.png","","","","","","","","","",""
"image-keyboard-response","219","312209","0.0-3.0-6.0-1.0-2.27","6501f64fbe9a0a65bd5f7891","6662009ae78f21dd82fcd179","66620b6d97325bfb95f3b37b","null","","null","","","","","","","","./tasks/HMM-beads/Images/WhiteBeadChoiceCorrect.png","","","","","","","","","",""
"image-keyboard-response","220","312727","0.0-3.0-6.0-1.0-0.28","6501f64fbe9a0a65bd5f7891","6662009ae78f21dd82fcd179","66620b6d97325bfb95f3b37b","513","","j","","","","","","","","./tasks/HMM-beads/Images/NewTrialWC.png","lowH","1","28","1","1","1","1","true","",""
"image-keyboard-response","221","313035","0.0-3.0-6.0-1.0-1.28","6501f64fbe9a0a65bd5f7891","6662009ae78f21dd82fcd179","66620b6d97325bfb95f3b37b","null","","null","","","","","","","","./tasks/HMM-beads/Images/WhiteBeadChoice.png","","","","","","","","","",""
"image-keyboard-response","222","313554","0.0-3.0-6.0-1.0-2.28","6501f64fbe9a0a65bd5f7891","6662009ae78f21dd82fcd179","66620b6d97325bfb95f3b37b","null","","null","","","","","","","","./tasks/HMM-beads/Images/WhiteBeadChoiceCorrect.png","","","","","","","","","",""
"image-keyboard-response","223","314007","0.0-3.0-6.0-1.0-0.29","6501f64fbe9a0a65bd5f7891","6662009ae78f21dd82fcd179","66620b6d97325bfb95f3b37b","448","","j","","","","","","","","./tasks/HMM-beads/Images/NewTrialWC.png","lowH","1","29","1","1","1","1","true","",""
"image-keyboard-response","224","314316","0.0-3.0-6.0-1.0-1.29","6501f64fbe9a0a65bd5f7891","6662009ae78f21dd82fcd179","66620b6d97325bfb95f3b37b","null","","null","","","","","","","","./tasks/HMM-beads/Images/WhiteBeadChoice.png","","","","","","","","","",""
"image-keyboard-response","225","314821","0.0-3.0-6.0-1.0-2.29","6501f64fbe9a0a65bd5f7891","6662009ae78f21dd82fcd179","66620b6d97325bfb95f3b37b","null","","null","","","","","","","","./tasks/HMM-beads/Images/WhiteBeadChoiceCorrect.png","","","","","","","","","",""
"image-keyboard-response","226","315159","0.0-3.0-6.0-1.0-0.30","6501f64fbe9a0a65bd5f7891","6662009ae78f21dd82fcd179","66620b6d97325bfb95f3b37b","332","","j","","","","","","","","./tasks/HMM-beads/Images/NewTrialWC.png","lowH","1","30","1","1","1","1","true","",""
"image-keyboard-response","227","315464","0.0-3.0-6.0-1.0-1.30","6501f64fbe9a0a65bd5f7891","6662009ae78f21dd82fcd179","66620b6d97325bfb95f3b37b","null","","null","","","","","","","","./tasks/HMM-beads/Images/WhiteBeadChoice.png","","","","","","","","","",""
"image-keyboard-response","228","315969","0.0-3.0-6.0-1.0-2.30","6501f64fbe9a0a65bd5f7891","6662009ae78f21dd82fcd179","66620b6d97325bfb95f3b37b","null","","null","","","","","","","","./tasks/HMM-beads/Images/WhiteBeadChoiceCorrect.png","","","","","","","","","",""
"image-keyboard-response","229","316286","0.0-3.0-6.0-1.0-0.31","6501f64fbe9a0a65bd5f7891","6662009ae78f21dd82fcd179","66620b6d97325bfb95f3b37b","313","","j","","","","","","","","./tasks/HMM-beads/Images/NewTrialWC.png","lowH","1","31","1","1","1","1","true","",""
"image-keyboard-response","230","316591","0.0-3.0-6.0-1.0-1.31","6501f64fbe9a0a65bd5f7891","6662009ae78f21dd82fcd179","66620b6d97325bfb95f3b37b","null","","null","","","","","","","","./tasks/HMM-beads/Images/WhiteBeadChoice.png","","","","","","","","","",""
"image-keyboard-response","231","317096","0.0-3.0-6.0-1.0-2.31","6501f64fbe9a0a65bd5f7891","6662009ae78f21dd82fcd179","66620b6d97325bfb95f3b37b","null","","null","","","","","","","","./tasks/HMM-beads/Images/WhiteBeadChoiceCorrect.png","","","","","","","","","",""
"image-keyboard-response","232","317615","0.0-3.0-6.0-1.0-0.32","6501f64fbe9a0a65bd5f7891","6662009ae78f21dd82fcd179","66620b6d97325bfb95f3b37b","515","","j","","","","","","","","./tasks/HMM-beads/Images/NewTrialWC.png","lowH","1","32","1","1","1","1","true","",""
"image-keyboard-response","233","317921","0.0-3.0-6.0-1.0-1.32","6501f64fbe9a0a65bd5f7891","6662009ae78f21dd82fcd179","66620b6d97325bfb95f3b37b","null","","null","","","","","","","","./tasks/HMM-beads/Images/WhiteBeadChoice.png","","","","","","","","","",""
"image-keyboard-response","234","318425","0.0-3.0-6.0-1.0-2.32","6501f64fbe9a0a65bd5f7891","6662009ae78f21dd82fcd179","66620b6d97325bfb95f3b37b","null","","null","","","","","","","","./tasks/HMM-beads/Images/WhiteBeadChoiceCorrect.png","","","","","","","","","",""
"image-keyboard-response","235","318839","0.0-3.0-6.0-1.0-0.33","6501f64fbe9a0a65bd5f7891","6662009ae78f21dd82fcd179","66620b6d97325bfb95f3b37b","406","","j","","","","","","","","./tasks/HMM-beads/Images/NewTrialWC.png","lowH","1","33","1","1","1","1","true","",""
"image-keyboard-response","236","319144","0.0-3.0-6.0-1.0-1.33","6501f64fbe9a0a65bd5f7891","6662009ae78f21dd82fcd179","66620b6d97325bfb95f3b37b","null","","null","","","","","","","","./tasks/HMM-beads/Images/WhiteBeadChoice.png","","","","","","","","","",""
"image-keyboard-response","237","319648","0.0-3.0-6.0-1.0-2.33","6501f64fbe9a0a65bd5f7891","6662009ae78f21dd82fcd179","66620b6d97325bfb95f3b37b","null","","null","","","","","","","","./tasks/HMM-beads/Images/WhiteBeadChoiceCorrect.png","","","","","","","","","",""
"image-keyboard-response","238","320063","0.0-3.0-6.0-1.0-0.34","6501f64fbe9a0a65bd5f7891","6662009ae78f21dd82fcd179","66620b6d97325bfb95f3b37b","409","","j","","","","","","","","./tasks/HMM-beads/Images/NewTrialWC.png","lowH","1","34","1","1","1","1","true","",""
"image-keyboard-response","239","320367","0.0-3.0-6.0-1.0-1.34","6501f64fbe9a0a65bd5f7891","6662009ae78f21dd82fcd179","66620b6d97325bfb95f3b37b","null","","null","","","","","","","","./tasks/HMM-beads/Images/WhiteBeadChoice.png","","","","","","","","","",""
"image-keyboard-response","240","320882","0.0-3.0-6.0-1.0-2.34","6501f64fbe9a0a65bd5f7891","6662009ae78f21dd82fcd179","66620b6d97325bfb95f3b37b","null","","null","","","","","","","","./tasks/HMM-beads/Images/WhiteBeadChoiceCorrect.png","","","","","","","","","",""
"image-keyboard-response","241","321295","0.0-3.0-6.0-1.0-0.35","6501f64fbe9a0a65bd5f7891","6662009ae78f21dd82fcd179","66620b6d97325bfb95f3b37b","408","","j","","","","","","","","./tasks/HMM-beads/Images/NewTrialWC.png","lowH","1","35","1","1","1","1","true","",""
"image-keyboard-response","242","321600","0.0-3.0-6.0-1.0-1.35","6501f64fbe9a0a65bd5f7891","6662009ae78f21dd82fcd179","66620b6d97325bfb95f3b37b","null","","null","","","","","","","","./tasks/HMM-beads/Images/WhiteBeadChoice.png","","","","","","","","","",""
"image-keyboard-response","243","322105","0.0-3.0-6.0-1.0-2.35","6501f64fbe9a0a65bd5f7891","6662009ae78f21dd82fcd179","66620b6d97325bfb95f3b37b","null","","null","","","","","","","","./tasks/HMM-beads/Images/WhiteBeadChoiceCorrect.png","","","","","","","","","",""
"image-keyboard-response","244","322471","0.0-3.0-6.0-1.0-0.36","6501f64fbe9a0a65bd5f7891","6662009ae78f21dd82fcd179","66620b6d97325bfb95f3b37b","361","","j","","","","","","","","./tasks/HMM-beads/Images/NewTrialWC.png","lowH","1","36","1","1","1","1","true","",""
"image-keyboard-response","245","322776","0.0-3.0-6.0-1.0-1.36","6501f64fbe9a0a65bd5f7891","6662009ae78f21dd82fcd179","66620b6d97325bfb95f3b37b","null","","null","","","","","","","","./tasks/HMM-beads/Images/WhiteBeadChoice.png","","","","","","","","","",""
"image-keyboard-response","246","323282","0.0-3.0-6.0-1.0-2.36","6501f64fbe9a0a65bd5f7891","6662009ae78f21dd82fcd179","66620b6d97325bfb95f3b37b","null","","null","","","","","","","","./tasks/HMM-beads/Images/WhiteBeadChoiceCorrect.png","","","","","","","","","",""
"image-keyboard-response","247","323671","0.0-3.0-6.0-1.0-0.37","6501f64fbe9a0a65bd5f7891","6662009ae78f21dd82fcd179","66620b6d97325bfb95f3b37b","385","","j","","","","","","","","./tasks/HMM-beads/Images/NewTrialWC.png","lowH","1","37","1","1","1","1","true","",""
"image-keyboard-response","248","323976","0.0-3.0-6.0-1.0-1.37","6501f64fbe9a0a65bd5f7891","6662009ae78f21dd82fcd179","66620b6d97325bfb95f3b37b","null","","null","","","","","","","","./tasks/HMM-beads/Images/WhiteBeadChoice.png","","","","","","","","","",""
"image-keyboard-response","249","324482","0.0-3.0-6.0-1.0-2.37","6501f64fbe9a0a65bd5f7891","6662009ae78f21dd82fcd179","66620b6d97325bfb95f3b37b","null","","null","","","","","","","","./tasks/HMM-beads/Images/WhiteBeadChoiceCorrect.png","","","","","","","","","",""
"image-keyboard-response","250","324895","0.0-3.0-6.0-1.0-0.38","6501f64fbe9a0a65bd5f7891","6662009ae78f21dd82fcd179","66620b6d97325bfb95f3b37b","408","","j","","","","","","","","./tasks/HMM-beads/Images/NewTrialWC.png","lowH","1","38","1","1","1","1","true","",""
"image-keyboard-response","251","325200","0.0-3.0-6.0-1.0-1.38","6501f64fbe9a0a65bd5f7891","6662009ae78f21dd82fcd179","66620b6d97325bfb95f3b37b","null","","null","","","","","","","","./tasks/HMM-beads/Images/WhiteBeadChoice.png","","","","","","","","","",""
"image-keyboard-response","252","325705","0.0-3.0-6.0-1.0-2.38","6501f64fbe9a0a65bd5f7891","6662009ae78f21dd82fcd179","66620b6d97325bfb95f3b37b","null","","null","","","","","","","","./tasks/HMM-beads/Images/WhiteBeadChoiceCorrect.png","","","","","","","","","",""
"image-keyboard-response","253","326167","0.0-3.0-6.0-1.0-0.39","6501f64fbe9a0a65bd5f7891","6662009ae78f21dd82fcd179","66620b6d97325bfb95f3b37b","457","","j","","","","","","","","./tasks/HMM-beads/Images/NewTrialWC.png","lowH","1","39","1","1","1","1","true","",""
"image-keyboard-response","254","326472","0.0-3.0-6.0-1.0-1.39","6501f64fbe9a0a65bd5f7891","6662009ae78f21dd82fcd179","66620b6d97325bfb95f3b37b","null","","null","","","","","","","","./tasks/HMM-beads/Images/WhiteBeadChoice.png","","","","","","","","","",""
"image-keyboard-response","255","326978","0.0-3.0-6.0-1.0-2.39","6501f64fbe9a0a65bd5f7891","6662009ae78f21dd82fcd179","66620b6d97325bfb95f3b37b","null","","null","","","","","","","","./tasks/HMM-beads/Images/WhiteBeadChoiceCorrect.png","","","","","","","","","",""
"image-keyboard-response","256","327406","0.0-3.0-6.0-1.0-0.40","6501f64fbe9a0a65bd5f7891","6662009ae78f21dd82fcd179","66620b6d97325bfb95f3b37b","425","","j","","","","","","","","./tasks/HMM-beads/Images/NewTrialWC.png","lowH","1","40","1","1","1","1","true","",""
"image-keyboard-response","257","327712","0.0-3.0-6.0-1.0-1.40","6501f64fbe9a0a65bd5f7891","6662009ae78f21dd82fcd179","66620b6d97325bfb95f3b37b","null","","null","","","","","","","","./tasks/HMM-beads/Images/WhiteBeadChoice.png","","","","","","","","","",""
"image-keyboard-response","258","328217","0.0-3.0-6.0-1.0-2.40","6501f64fbe9a0a65bd5f7891","6662009ae78f21dd82fcd179","66620b6d97325bfb95f3b37b","null","","null","","","","","","","","./tasks/HMM-beads/Images/WhiteBeadChoiceCorrect.png","","","","","","","","","",""
"image-keyboard-response","259","328783","0.0-3.0-6.0-1.0-0.41","6501f64fbe9a0a65bd5f7891","6662009ae78f21dd82fcd179","66620b6d97325bfb95f3b37b","561","","j","","","","","","","","./tasks/HMM-beads/Images/NewTrialWC.png","lowH","1","41","1","1","1","1","true","",""
"image-keyboard-response","260","329088","0.0-3.0-6.0-1.0-1.41","6501f64fbe9a0a65bd5f7891","6662009ae78f21dd82fcd179","66620b6d97325bfb95f3b37b","null","","null","","","","","","","","./tasks/HMM-beads/Images/WhiteBeadChoice.png","","","","","","","","","",""
"image-keyboard-response","261","329594","0.0-3.0-6.0-1.0-2.41","6501f64fbe9a0a65bd5f7891","6662009ae78f21dd82fcd179","66620b6d97325bfb95f3b37b","null","","null","","","","","","","","./tasks/HMM-beads/Images/WhiteBeadChoiceCorrect.png","","","","","","","","","",""
"image-keyboard-response","262","330063","0.0-3.0-6.0-1.0-0.42","6501f64fbe9a0a65bd5f7891","6662009ae78f21dd82fcd179","66620b6d97325bfb95f3b37b","464","","j","","","","","","","","./tasks/HMM-beads/Images/NewTrialWC.png","lowH","1","42","1","1","1","1","true","",""
"image-keyboard-response","263","330368","0.0-3.0-6.0-1.0-1.42","6501f64fbe9a0a65bd5f7891","6662009ae78f21dd82fcd179","66620b6d97325bfb95f3b37b","null","","null","","","","","","","","./tasks/HMM-beads/Images/WhiteBeadChoice.png","","","","","","","","","",""
"image-keyboard-response","264","330875","0.0-3.0-6.0-1.0-2.42","6501f64fbe9a0a65bd5f7891","6662009ae78f21dd82fcd179","66620b6d97325bfb95f3b37b","null","","null","","","","","","","","./tasks/HMM-beads/Images/WhiteBeadChoiceCorrect.png","","","","","","","","","",""
"image-keyboard-response","265","331223","0.0-3.0-6.0-1.0-0.43","6501f64fbe9a0a65bd5f7891","6662009ae78f21dd82fcd179","66620b6d97325bfb95f3b37b","339","","j","","","","","","","","./tasks/HMM-beads/Images/NewTrialWC.png","lowH","1","43","1","1","1","1","true","",""
"image-keyboard-response","266","331528","0.0-3.0-6.0-1.0-1.43","6501f64fbe9a0a65bd5f7891","6662009ae78f21dd82fcd179","66620b6d97325bfb95f3b37b","null","","null","","","","","","","","./tasks/HMM-beads/Images/WhiteBeadChoice.png","","","","","","","","","",""
"image-keyboard-response","267","332032","0.0-3.0-6.0-1.0-2.43","6501f64fbe9a0a65bd5f7891","6662009ae78f21dd82fcd179","66620b6d97325bfb95f3b37b","null","","null","","","","","","","","./tasks/HMM-beads/Images/WhiteBeadChoiceCorrect.png","","","","","","","","","",""
"image-keyboard-response","268","332511","0.0-3.0-6.0-1.0-0.44","6501f64fbe9a0a65bd5f7891","6662009ae78f21dd82fcd179","66620b6d97325bfb95f3b37b","473","","j","","","","","","","","./tasks/HMM-beads/Images/NewTrialWC.png","lowH","1","44","1","1","1","1","true","",""
"image-keyboard-response","269","332816","0.0-3.0-6.0-1.0-1.44","6501f64fbe9a0a65bd5f7891","6662009ae78f21dd82fcd179","66620b6d97325bfb95f3b37b","null","","null","","","","","","","","./tasks/HMM-beads/Images/WhiteBeadChoice.png","","","","","","","","","",""
"image-keyboard-response","270","333322","0.0-3.0-6.0-1.0-2.44","6501f64fbe9a0a65bd5f7891","6662009ae78f21dd82fcd179","66620b6d97325bfb95f3b37b","null","","null","","","","","","","","./tasks/HMM-beads/Images/WhiteBeadChoiceCorrect.png","","","","","","","","","",""
"image-keyboard-response","271","333695","0.0-3.0-6.0-1.0-0.45","6501f64fbe9a0a65bd5f7891","6662009ae78f21dd82fcd179","66620b6d97325bfb95f3b37b","369","","j","","","","","","","","./tasks/HMM-beads/Images/NewTrialWC.png","lowH","1","45","1","1","1","1","true","",""
"image-keyboard-response","272","334033","0.0-3.0-6.0-1.0-1.45","6501f64fbe9a0a65bd5f7891","6662009ae78f21dd82fcd179","66620b6d97325bfb95f3b37b","null","","null","","","","","","","","./tasks/HMM-beads/Images/WhiteBeadChoice.png","","","","","","","","","",""
"image-keyboard-response","273","334557","0.0-3.0-6.0-1.0-2.45","6501f64fbe9a0a65bd5f7891","6662009ae78f21dd82fcd179","66620b6d97325bfb95f3b37b","null","","null","","","","","","","","./tasks/HMM-beads/Images/WhiteBeadChoiceCorrect.png","","","","","","","","","",""
"image-keyboard-response","274","335055","0.0-3.0-6.0-1.0-0.46","6501f64fbe9a0a65bd5f7891","6662009ae78f21dd82fcd179","66620b6d97325bfb95f3b37b","492","","j","","","","","","","","./tasks/HMM-beads/Images/NewTrialWC.png","lowH","1","46","1","1","1","1","true","",""
"image-keyboard-response","275","335360","0.0-3.0-6.0-1.0-1.46","6501f64fbe9a0a65bd5f7891","6662009ae78f21dd82fcd179","66620b6d97325bfb95f3b37b","null","","null","","","","","","","","./tasks/HMM-beads/Images/WhiteBeadChoice.png","","","","","","","","","",""
"image-keyboard-response","276","335866","0.0-3.0-6.0-1.0-2.46","6501f64fbe9a0a65bd5f7891","6662009ae78f21dd82fcd179","66620b6d97325bfb95f3b37b","null","","null","","","","","","","","./tasks/HMM-beads/Images/WhiteBeadChoiceCorrect.png","","","","","","","","","",""
"image-keyboard-response","277","336368","0.0-3.0-6.0-1.0-0.47","6501f64fbe9a0a65bd5f7891","6662009ae78f21dd82fcd179","66620b6d97325bfb95f3b37b","496","","j","","","","","","","","./tasks/HMM-beads/Images/NewTrialWC.png","lowH","1","47","1","0","1","1","false","",""
"image-keyboard-response","278","336680","0.0-3.0-6.0-1.0-1.47","6501f64fbe9a0a65bd5f7891","6662009ae78f21dd82fcd179","66620b6d97325bfb95f3b37b","null","","null","","","","","","","","./tasks/HMM-beads/Images/WhiteBeadChoice.png","","","","","","","","","",""
"image-keyboard-response","279","337191","0.0-3.0-6.0-1.0-2.47","6501f64fbe9a0a65bd5f7891","6662009ae78f21dd82fcd179","66620b6d97325bfb95f3b37b","null","","null","","","","","","","","./tasks/HMM-beads/Images/WhiteBeadChoiceWrong.png","","","","","","","","","",""
"image-keyboard-response","280","337583","0.0-3.0-6.0-1.0-0.48","6501f64fbe9a0a65bd5f7891","6662009ae78f21dd82fcd179","66620b6d97325bfb95f3b37b","386","","j","","","","","","","","./tasks/HMM-beads/Images/NewTrialBC.png","lowH","1","48","1","0","0","1","false","",""
"image-keyboard-response","281","337887","0.0-3.0-6.0-1.0-1.48","6501f64fbe9a0a65bd5f7891","6662009ae78f21dd82fcd179","66620b6d97325bfb95f3b37b","null","","null","","","","","","","","./tasks/HMM-beads/Images/WhiteBeadChoice.png","","","","","","","","","",""
"image-keyboard-response","282","338394","0.0-3.0-6.0-1.0-2.48","6501f64fbe9a0a65bd5f7891","6662009ae78f21dd82fcd179","66620b6d97325bfb95f3b37b","null","","null","","","","","","","","./tasks/HMM-beads/Images/WhiteBeadChoiceWrong.png","","","","","","","","","",""
"image-keyboard-response","283","338791","0.0-3.0-6.0-1.0-0.49","6501f64fbe9a0a65bd5f7891","6662009ae78f21dd82fcd179","66620b6d97325bfb95f3b37b","392","","j","","","","","","","","./tasks/HMM-beads/Images/NewTrialBC.png","lowH","1","49","1","0","0","1","false","",""
"image-keyboard-response","284","339096","0.0-3.0-6.0-1.0-1.49","6501f64fbe9a0a65bd5f7891","6662009ae78f21dd82fcd179","66620b6d97325bfb95f3b37b","null","","null","","","","","","","","./tasks/HMM-beads/Images/WhiteBeadChoice.png","","","","","","","","","",""
"image-keyboard-response","285","339601","0.0-3.0-6.0-1.0-2.49","6501f64fbe9a0a65bd5f7891","6662009ae78f21dd82fcd179","66620b6d97325bfb95f3b37b","null","","null","","","","","","","","./tasks/HMM-beads/Images/WhiteBeadChoiceWrong.png","","","","","","","","","",""
"image-keyboard-response","286","340383","0.0-3.0-6.0-1.0-0.50","6501f64fbe9a0a65bd5f7891","6662009ae78f21dd82fcd179","66620b6d97325bfb95f3b37b","776","","f","","","","","","","","./tasks/HMM-beads/Images/NewTrialBC.png","lowH","1","50","1","1","0","0","false","",""
"image-keyboard-response","287","340687","0.0-3.0-6.0-1.0-1.50","6501f64fbe9a0a65bd5f7891","6662009ae78f21dd82fcd179","66620b6d97325bfb95f3b37b","null","","null","","","","","","","","./tasks/HMM-beads/Images/BlackBeadChoice.png","","","","","","","","","",""
"image-keyboard-response","288","341193","0.0-3.0-6.0-1.0-2.50","6501f64fbe9a0a65bd5f7891","6662009ae78f21dd82fcd179","66620b6d97325bfb95f3b37b","null","","null","","","","","","","","./tasks/HMM-beads/Images/BlackBeadChoiceWrong.png","","","","","","","","","",""
"image-keyboard-response","289","341615","0.0-3.0-6.0-1.0-0.51","6501f64fbe9a0a65bd5f7891","6662009ae78f21dd82fcd179","66620b6d97325bfb95f3b37b","418","","f","","","","","","","","./tasks/HMM-beads/Images/NewTrialWC.png","lowH","1","51","1","1","1","0","false","",""
"image-keyboard-response","290","341920","0.0-3.0-6.0-1.0-1.51","6501f64fbe9a0a65bd5f7891","6662009ae78f21dd82fcd179","66620b6d97325bfb95f3b37b","null","","null","","","","","","","","./tasks/HMM-beads/Images/BlackBeadChoice.png","","","","","","","","","",""
"image-keyboard-response","291","342425","0.0-3.0-6.0-1.0-2.51","6501f64fbe9a0a65bd5f7891","6662009ae78f21dd82fcd179","66620b6d97325bfb95f3b37b","null","","null","","","","","","","","./tasks/HMM-beads/Images/BlackBeadChoiceWrong.png","","","","","","","","","",""
"image-keyboard-response","292","342871","0.0-3.0-6.0-1.0-0.52","6501f64fbe9a0a65bd5f7891","6662009ae78f21dd82fcd179","66620b6d97325bfb95f3b37b","443","","f","","","","","","","","./tasks/HMM-beads/Images/NewTrialWC.png","lowH","1","52","1","1","1","0","false","",""
"image-keyboard-response","293","343178","0.0-3.0-6.0-1.0-1.52","6501f64fbe9a0a65bd5f7891","6662009ae78f21dd82fcd179","66620b6d97325bfb95f3b37b","null","","null","","","","","","","","./tasks/HMM-beads/Images/BlackBeadChoice.png","","","","","","","","","",""
"image-keyboard-response","294","343683","0.0-3.0-6.0-1.0-2.52","6501f64fbe9a0a65bd5f7891","6662009ae78f21dd82fcd179","66620b6d97325bfb95f3b37b","null","","null","","","","","","","","./tasks/HMM-beads/Images/BlackBeadChoiceWrong.png","","","","","","","","","",""
"image-keyboard-response","295","344264","0.0-3.0-6.0-1.0-0.53","6501f64fbe9a0a65bd5f7891","6662009ae78f21dd82fcd179","66620b6d97325bfb95f3b37b","575","","j","","","","","","","","./tasks/HMM-beads/Images/NewTrialWC.png","lowH","1","53","1","1","1","1","true","",""
"image-keyboard-response","296","344572","0.0-3.0-6.0-1.0-1.53","6501f64fbe9a0a65bd5f7891","6662009ae78f21dd82fcd179","66620b6d97325bfb95f3b37b","null","","null","","","","","","","","./tasks/HMM-beads/Images/WhiteBeadChoice.png","","","","","","","","","",""
"image-keyboard-response","297","345083","0.0-3.0-6.0-1.0-2.53","6501f64fbe9a0a65bd5f7891","6662009ae78f21dd82fcd179","66620b6d97325bfb95f3b37b","null","","null","","","","","","","","./tasks/HMM-beads/Images/WhiteBeadChoiceCorrect.png","","","","","","","","","",""
"image-keyboard-response","298","345583","0.0-3.0-6.0-1.0-0.54","6501f64fbe9a0a65bd5f7891","6662009ae78f21dd82fcd179","66620b6d97325bfb95f3b37b","495","","j","","","","","","","","./tasks/HMM-beads/Images/NewTrialWC.png","lowH","1","54","1","1","1","1","true","",""
"image-keyboard-response","299","345892","0.0-3.0-6.0-1.0-1.54","6501f64fbe9a0a65bd5f7891","6662009ae78f21dd82fcd179","66620b6d97325bfb95f3b37b","null","","null","","","","","","","","./tasks/HMM-beads/Images/WhiteBeadChoice.png","","","","","","","","","",""
"image-keyboard-response","300","346397","0.0-3.0-6.0-1.0-2.54","6501f64fbe9a0a65bd5f7891","6662009ae78f21dd82fcd179","66620b6d97325bfb95f3b37b","null","","null","","","","","","","","./tasks/HMM-beads/Images/WhiteBeadChoiceCorrect.png","","","","","","","","","",""
"image-keyboard-response","301","346943","0.0-3.0-6.0-1.0-0.55","6501f64fbe9a0a65bd5f7891","6662009ae78f21dd82fcd179","66620b6d97325bfb95f3b37b","541","","j","","","","","","","","./tasks/HMM-beads/Images/NewTrialWC.png","lowH","1","55","1","1","1","1","true","",""
"image-keyboard-response","302","347247","0.0-3.0-6.0-1.0-1.55","6501f64fbe9a0a65bd5f7891","6662009ae78f21dd82fcd179","66620b6d97325bfb95f3b37b","null","","null","","","","","","","","./tasks/HMM-beads/Images/WhiteBeadChoice.png","","","","","","","","","",""
"image-keyboard-response","303","347753","0.0-3.0-6.0-1.0-2.55","6501f64fbe9a0a65bd5f7891","6662009ae78f21dd82fcd179","66620b6d97325bfb95f3b37b","null","","null","","","","","","","","./tasks/HMM-beads/Images/WhiteBeadChoiceCorrect.png","","","","","","","","","",""
"image-keyboard-response","304","348255","0.0-3.0-6.0-1.0-0.56","6501f64fbe9a0a65bd5f7891","6662009ae78f21dd82fcd179","66620b6d97325bfb95f3b37b","497","","j","","","","","","","","./tasks/HMM-beads/Images/NewTrialWC.png","lowH","1","56","1","1","1","1","true","",""
"image-keyboard-response","305","348567","0.0-3.0-6.0-1.0-1.56","6501f64fbe9a0a65bd5f7891","6662009ae78f21dd82fcd179","66620b6d97325bfb95f3b37b","null","","null","","","","","","","","./tasks/HMM-beads/Images/WhiteBeadChoice.png","","","","","","","","","",""
"image-keyboard-response","306","349072","0.0-3.0-6.0-1.0-2.56","6501f64fbe9a0a65bd5f7891","6662009ae78f21dd82fcd179","66620b6d97325bfb95f3b37b","null","","null","","","","","","","","./tasks/HMM-beads/Images/WhiteBeadChoiceCorrect.png","","","","","","","","","",""
"image-keyboard-response","307","349558","0.0-3.0-6.0-1.0-0.57","6501f64fbe9a0a65bd5f7891","6662009ae78f21dd82fcd179","66620b6d97325bfb95f3b37b","481","","j","","","","","","","","./tasks/HMM-beads/Images/NewTrialWC.png","lowH","1","57","1","1","1","1","true","",""
"image-keyboard-response","308","349864","0.0-3.0-6.0-1.0-1.57","6501f64fbe9a0a65bd5f7891","6662009ae78f21dd82fcd179","66620b6d97325bfb95f3b37b","null","","null","","","","","","","","./tasks/HMM-beads/Images/WhiteBeadChoice.png","","","","","","","","","",""
"image-keyboard-response","309","350368","0.0-3.0-6.0-1.0-2.57","6501f64fbe9a0a65bd5f7891","6662009ae78f21dd82fcd179","66620b6d97325bfb95f3b37b","null","","null","","","","","","","","./tasks/HMM-beads/Images/WhiteBeadChoiceCorrect.png","","","","","","","","","",""
"image-keyboard-response","310","350823","0.0-3.0-6.0-1.0-0.58","6501f64fbe9a0a65bd5f7891","6662009ae78f21dd82fcd179","66620b6d97325bfb95f3b37b","449","","j","","","","","","","","./tasks/HMM-beads/Images/NewTrialWC.png","lowH","1","58","1","1","1","1","true","",""
"image-keyboard-response","311","351129","0.0-3.0-6.0-1.0-1.58","6501f64fbe9a0a65bd5f7891","6662009ae78f21dd82fcd179","66620b6d97325bfb95f3b37b","null","","null","","","","","","","","./tasks/HMM-beads/Images/WhiteBeadChoice.png","","","","","","","","","",""
"image-keyboard-response","312","351635","0.0-3.0-6.0-1.0-2.58","6501f64fbe9a0a65bd5f7891","6662009ae78f21dd82fcd179","66620b6d97325bfb95f3b37b","null","","null","","","","","","","","./tasks/HMM-beads/Images/WhiteBeadChoiceCorrect.png","","","","","","","","","",""
"image-keyboard-response","313","352080","0.0-3.0-6.0-1.0-0.59","6501f64fbe9a0a65bd5f7891","6662009ae78f21dd82fcd179","66620b6d97325bfb95f3b37b","438","","j","","","","","","","","./tasks/HMM-beads/Images/NewTrialWC.png","lowH","1","59","1","0","1","1","false","",""
"image-keyboard-response","314","352387","0.0-3.0-6.0-1.0-1.59","6501f64fbe9a0a65bd5f7891","6662009ae78f21dd82fcd179","66620b6d97325bfb95f3b37b","null","","null","","","","","","","","./tasks/HMM-beads/Images/WhiteBeadChoice.png","","","","","","","","","",""
"image-keyboard-response","315","352893","0.0-3.0-6.0-1.0-2.59","6501f64fbe9a0a65bd5f7891","6662009ae78f21dd82fcd179","66620b6d97325bfb95f3b37b","null","","null","","","","","","","","./tasks/HMM-beads/Images/WhiteBeadChoiceWrong.png","","","","","","","","","",""
"image-keyboard-response","316","353344","0.0-3.0-6.0-1.0-0.60","6501f64fbe9a0a65bd5f7891","6662009ae78f21dd82fcd179","66620b6d97325bfb95f3b37b","444","","j","","","","","","","","./tasks/HMM-beads/Images/NewTrialBC.png","lowH","1","60","1","1","0","1","true","",""
"image-keyboard-response","317","353652","0.0-3.0-6.0-1.0-1.60","6501f64fbe9a0a65bd5f7891","6662009ae78f21dd82fcd179","66620b6d97325bfb95f3b37b","null","","null","","","","","","","","./tasks/HMM-beads/Images/WhiteBeadChoice.png","","","","","","","","","",""
"image-keyboard-response","318","354157","0.0-3.0-6.0-1.0-2.60","6501f64fbe9a0a65bd5f7891","6662009ae78f21dd82fcd179","66620b6d97325bfb95f3b37b","null","","null","","","","","","","","./tasks/HMM-beads/Images/WhiteBeadChoiceCorrect.png","","","","","","","","","",""
"image-keyboard-response","319","354494","0.0-3.0-6.0-1.0-0.61","6501f64fbe9a0a65bd5f7891","6662009ae78f21dd82fcd179","66620b6d97325bfb95f3b37b","333","","j","","","","","","","","./tasks/HMM-beads/Images/NewTrialWC.png","lowH","1","61","1","1","1","1","true","",""
"image-keyboard-response","320","354801","0.0-3.0-6.0-1.0-1.61","6501f64fbe9a0a65bd5f7891","6662009ae78f21dd82fcd179","66620b6d97325bfb95f3b37b","null","","null","","","","","","","","./tasks/HMM-beads/Images/WhiteBeadChoice.png","","","","","","","","","",""
"image-keyboard-response","321","355307","0.0-3.0-6.0-1.0-2.61","6501f64fbe9a0a65bd5f7891","6662009ae78f21dd82fcd179","66620b6d97325bfb95f3b37b","null","","null","","","","","","","","./tasks/HMM-beads/Images/WhiteBeadChoiceCorrect.png","","","","","","","","","",""
"image-keyboard-response","322","355751","0.0-3.0-6.0-1.0-0.62","6501f64fbe9a0a65bd5f7891","6662009ae78f21dd82fcd179","66620b6d97325bfb95f3b37b","439","","j","","","","","","","","./tasks/HMM-beads/Images/NewTrialWC.png","lowH","1","62","1","0","1","1","false","",""
"image-keyboard-response","323","356055","0.0-3.0-6.0-1.0-1.62","6501f64fbe9a0a65bd5f7891","6662009ae78f21dd82fcd179","66620b6d97325bfb95f3b37b","null","","null","","","","","","","","./tasks/HMM-beads/Images/WhiteBeadChoice.png","","","","","","","","","",""
"image-keyboard-response","324","356574","0.0-3.0-6.0-1.0-2.62","6501f64fbe9a0a65bd5f7891","6662009ae78f21dd82fcd179","66620b6d97325bfb95f3b37b","null","","null","","","","","","","","./tasks/HMM-beads/Images/WhiteBeadChoiceWrong.png","","","","","","","","","",""
"image-keyboard-response","325","356951","0.0-3.0-6.0-1.0-0.63","6501f64fbe9a0a65bd5f7891","6662009ae78f21dd82fcd179","66620b6d97325bfb95f3b37b","372","","j","","","","","","","","./tasks/HMM-beads/Images/NewTrialBC.png","lowH","1","63","1","1","0","1","true","",""
"image-keyboard-response","326","357256","0.0-3.0-6.0-1.0-1.63","6501f64fbe9a0a65bd5f7891","6662009ae78f21dd82fcd179","66620b6d97325bfb95f3b37b","null","","null","","","","","","","","./tasks/HMM-beads/Images/WhiteBeadChoice.png","","","","","","","","","",""
"image-keyboard-response","327","357761","0.0-3.0-6.0-1.0-2.63","6501f64fbe9a0a65bd5f7891","6662009ae78f21dd82fcd179","66620b6d97325bfb95f3b37b","null","","null","","","","","","","","./tasks/HMM-beads/Images/WhiteBeadChoiceCorrect.png","","","","","","","","","",""
"image-keyboard-response","328","358127","0.0-3.0-6.0-1.0-0.64","6501f64fbe9a0a65bd5f7891","6662009ae78f21dd82fcd179","66620b6d97325bfb95f3b37b","361","","j","","","","","","","","./tasks/HMM-beads/Images/NewTrialWC.png","lowH","1","64","1","1","1","1","true","",""
"image-keyboard-response","329","358432","0.0-3.0-6.0-1.0-1.64","6501f64fbe9a0a65bd5f7891","6662009ae78f21dd82fcd179","66620b6d97325bfb95f3b37b","null","","null","","","","","","","","./tasks/HMM-beads/Images/WhiteBeadChoice.png","","","","","","","","","",""
"image-keyboard-response","330","358937","0.0-3.0-6.0-1.0-2.64","6501f64fbe9a0a65bd5f7891","6662009ae78f21dd82fcd179","66620b6d97325bfb95f3b37b","null","","null","","","","","","","","./tasks/HMM-beads/Images/WhiteBeadChoiceCorrect.png","","","","","","","","","",""
"image-keyboard-response","331","359510","0.0-3.0-6.0-1.0-0.65","6501f64fbe9a0a65bd5f7891","6662009ae78f21dd82fcd179","66620b6d97325bfb95f3b37b","568","","j","","","","","","","","./tasks/HMM-beads/Images/NewTrialWC.png","lowH","1","65","1","1","1","1","true","",""
"image-keyboard-response","332","359816","0.0-3.0-6.0-1.0-1.65","6501f64fbe9a0a65bd5f7891","6662009ae78f21dd82fcd179","66620b6d97325bfb95f3b37b","null","","null","","","","","","","","./tasks/HMM-beads/Images/WhiteBeadChoice.png","","","","","","","","","",""
"image-keyboard-response","333","360320","0.0-3.0-6.0-1.0-2.65","6501f64fbe9a0a65bd5f7891","6662009ae78f21dd82fcd179","66620b6d97325bfb95f3b37b","null","","null","","","","","","","","./tasks/HMM-beads/Images/WhiteBeadChoiceCorrect.png","","","","","","","","","",""
"image-keyboard-response","334","360777","0.0-3.0-6.0-1.0-0.66","6501f64fbe9a0a65bd5f7891","6662009ae78f21dd82fcd179","66620b6d97325bfb95f3b37b","449","","j","","","","","","","","./tasks/HMM-beads/Images/NewTrialWC.png","lowH","1","66","1","1","1","1","true","",""
"image-keyboard-response","335","361087","0.0-3.0-6.0-1.0-1.66","6501f64fbe9a0a65bd5f7891","6662009ae78f21dd82fcd179","66620b6d97325bfb95f3b37b","null","","null","","","","","","","","./tasks/HMM-beads/Images/WhiteBeadChoice.png","","","","","","","","","",""
"image-keyboard-response","336","361593","0.0-3.0-6.0-1.0-2.66","6501f64fbe9a0a65bd5f7891","6662009ae78f21dd82fcd179","66620b6d97325bfb95f3b37b","null","","null","","","","","","","","./tasks/HMM-beads/Images/WhiteBeadChoiceCorrect.png","","","","","","","","","",""
"image-keyboard-response","337","362055","0.0-3.0-6.0-1.0-0.67","6501f64fbe9a0a65bd5f7891","6662009ae78f21dd82fcd179","66620b6d97325bfb95f3b37b","457","","j","","","","","","","","./tasks/HMM-beads/Images/NewTrialWC.png","lowH","1","67","1","0","1","1","false","",""
"image-keyboard-response","338","362360","0.0-3.0-6.0-1.0-1.67","6501f64fbe9a0a65bd5f7891","6662009ae78f21dd82fcd179","66620b6d97325bfb95f3b37b","null","","null","","","","","","","","./tasks/HMM-beads/Images/WhiteBeadChoice.png","","","","","","","","","",""
"image-keyboard-response","339","362865","0.0-3.0-6.0-1.0-2.67","6501f64fbe9a0a65bd5f7891","6662009ae78f21dd82fcd179","66620b6d97325bfb95f3b37b","null","","null","","","","","","","","./tasks/HMM-beads/Images/WhiteBeadChoiceWrong.png","","","","","","","","","",""
"image-keyboard-response","340","363431","0.0-3.0-6.0-1.0-0.68","6501f64fbe9a0a65bd5f7891","6662009ae78f21dd82fcd179","66620b6d97325bfb95f3b37b","561","","j","","","","","","","","./tasks/HMM-beads/Images/NewTrialBC.png","lowH","1","68","1","1","0","1","true","",""
"image-keyboard-response","341","363737","0.0-3.0-6.0-1.0-1.68","6501f64fbe9a0a65bd5f7891","6662009ae78f21dd82fcd179","66620b6d97325bfb95f3b37b","null","","null","","","","","","","","./tasks/HMM-beads/Images/WhiteBeadChoice.png","","","","","","","","","",""
"image-keyboard-response","342","364242","0.0-3.0-6.0-1.0-2.68","6501f64fbe9a0a65bd5f7891","6662009ae78f21dd82fcd179","66620b6d97325bfb95f3b37b","null","","null","","","","","","","","./tasks/HMM-beads/Images/WhiteBeadChoiceCorrect.png","","","","","","","","","",""
"image-keyboard-response","343","364719","0.0-3.0-6.0-1.0-0.69","6501f64fbe9a0a65bd5f7891","6662009ae78f21dd82fcd179","66620b6d97325bfb95f3b37b","462","","j","","","","","","","","./tasks/HMM-beads/Images/NewTrialWC.png","lowH","1","69","0","1","1","1","true","",""
"image-keyboard-response","344","365024","0.0-3.0-6.0-1.0-1.69","6501f64fbe9a0a65bd5f7891","6662009ae78f21dd82fcd179","66620b6d97325bfb95f3b37b","null","","null","","","","","","","","./tasks/HMM-beads/Images/WhiteBeadChoice.png","","","","","","","","","",""
"image-keyboard-response","345","365581","0.0-3.0-6.0-1.0-2.69","6501f64fbe9a0a65bd5f7891","6662009ae78f21dd82fcd179","66620b6d97325bfb95f3b37b","null","","null","","","","","","","","./tasks/HMM-beads/Images/WhiteBeadChoiceCorrect.png","","","","","","","","","",""
"image-keyboard-response","346","366047","0.0-3.0-6.0-1.0-0.70","6501f64fbe9a0a65bd5f7891","6662009ae78f21dd82fcd179","66620b6d97325bfb95f3b37b","460","","j","","","","","","","","./tasks/HMM-beads/Images/NewTrialWC.png","lowH","1","70","0","1","1","1","true","",""
"image-keyboard-response","347","366351","0.0-3.0-6.0-1.0-1.70","6501f64fbe9a0a65bd5f7891","6662009ae78f21dd82fcd179","66620b6d97325bfb95f3b37b","null","","null","","","","","","","","./tasks/HMM-beads/Images/WhiteBeadChoice.png","","","","","","","","","",""
"image-keyboard-response","348","366857","0.0-3.0-6.0-1.0-2.70","6501f64fbe9a0a65bd5f7891","6662009ae78f21dd82fcd179","66620b6d97325bfb95f3b37b","null","","null","","","","","","","","./tasks/HMM-beads/Images/WhiteBeadChoiceCorrect.png","","","","","","","","","",""
"image-keyboard-response","349","367215","0.0-3.0-6.0-1.0-0.71","6501f64fbe9a0a65bd5f7891","6662009ae78f21dd82fcd179","66620b6d97325bfb95f3b37b","354","","j","","","","","","","","./tasks/HMM-beads/Images/NewTrialWC.png","lowH","1","71","0","0","1","1","false","",""
"image-keyboard-response","350","367520","0.0-3.0-6.0-1.0-1.71","6501f64fbe9a0a65bd5f7891","6662009ae78f21dd82fcd179","66620b6d97325bfb95f3b37b","null","","null","","","","","","","","./tasks/HMM-beads/Images/WhiteBeadChoice.png","","","","","","","","","",""
"image-keyboard-response","351","368026","0.0-3.0-6.0-1.0-2.71","6501f64fbe9a0a65bd5f7891","6662009ae78f21dd82fcd179","66620b6d97325bfb95f3b37b","null","","null","","","","","","","","./tasks/HMM-beads/Images/WhiteBeadChoiceWrong.png","","","","","","","","","",""
"image-keyboard-response","352","368415","0.0-3.0-6.0-1.0-0.72","6501f64fbe9a0a65bd5f7891","6662009ae78f21dd82fcd179","66620b6d97325bfb95f3b37b","384","","j","","","","","","","","./tasks/HMM-beads/Images/NewTrialBC.png","lowH","1","72","0","0","0","1","false","",""
"image-keyboard-response","353","368720","0.0-3.0-6.0-1.0-1.72","6501f64fbe9a0a65bd5f7891","6662009ae78f21dd82fcd179","66620b6d97325bfb95f3b37b","null","","null","","","","","","","","./tasks/HMM-beads/Images/WhiteBeadChoice.png","","","","","","","","","",""
"image-keyboard-response","354","369225","0.0-3.0-6.0-1.0-2.72","6501f64fbe9a0a65bd5f7891","6662009ae78f21dd82fcd179","66620b6d97325bfb95f3b37b","null","","null","","","","","","","","./tasks/HMM-beads/Images/WhiteBeadChoiceWrong.png","","","","","","","","","",""
"image-keyboard-response","355","369614","0.0-3.0-6.0-1.0-0.73","6501f64fbe9a0a65bd5f7891","6662009ae78f21dd82fcd179","66620b6d97325bfb95f3b37b","386","","j","","","","","","","","./tasks/HMM-beads/Images/NewTrialBC.png","lowH","1","73","0","1","0","1","true","",""
"image-keyboard-response","356","369920","0.0-3.0-6.0-1.0-1.73","6501f64fbe9a0a65bd5f7891","6662009ae78f21dd82fcd179","66620b6d97325bfb95f3b37b","null","","null","","","","","","","","./tasks/HMM-beads/Images/WhiteBeadChoice.png","","","","","","","","","",""
"image-keyboard-response","357","370429","0.0-3.0-6.0-1.0-2.73","6501f64fbe9a0a65bd5f7891","6662009ae78f21dd82fcd179","66620b6d97325bfb95f3b37b","null","","null","","","","","","","","./tasks/HMM-beads/Images/WhiteBeadChoiceCorrect.png","","","","","","","","","",""
"image-keyboard-response","358","370879","0.0-3.0-6.0-1.0-0.74","6501f64fbe9a0a65bd5f7891","6662009ae78f21dd82fcd179","66620b6d97325bfb95f3b37b","446","","j","","","","","","","","./tasks/HMM-beads/Images/NewTrialWC.png","lowH","1","74","0","0","1","1","false","",""
"image-keyboard-response","359","371184","0.0-3.0-6.0-1.0-1.74","6501f64fbe9a0a65bd5f7891","6662009ae78f21dd82fcd179","66620b6d97325bfb95f3b37b","null","","null","","","","","","","","./tasks/HMM-beads/Images/WhiteBeadChoice.png","","","","","","","","","",""
"image-keyboard-response","360","371689","0.0-3.0-6.0-1.0-2.74","6501f64fbe9a0a65bd5f7891","6662009ae78f21dd82fcd179","66620b6d97325bfb95f3b37b","null","","null","","","","","","","","./tasks/HMM-beads/Images/WhiteBeadChoiceWrong.png","","","","","","","","","",""
"image-keyboard-response","361","373470","0.0-3.0-6.0-1.0-0.75","6501f64fbe9a0a65bd5f7891","6662009ae78f21dd82fcd179","66620b6d97325bfb95f3b37b","1777","","f","","","","","","","","./tasks/HMM-beads/Images/NewTrialBC.png","lowH","1","75","0","1","0","0","false","",""
"image-keyboard-response","362","373776","0.0-3.0-6.0-1.0-1.75","6501f64fbe9a0a65bd5f7891","6662009ae78f21dd82fcd179","66620b6d97325bfb95f3b37b","null","","null","","","","","","","","./tasks/HMM-beads/Images/BlackBeadChoice.png","","","","","","","","","",""
"image-keyboard-response","363","374280","0.0-3.0-6.0-1.0-2.75","6501f64fbe9a0a65bd5f7891","6662009ae78f21dd82fcd179","66620b6d97325bfb95f3b37b","null","","null","","","","","","","","./tasks/HMM-beads/Images/BlackBeadChoiceWrong.png","","","","","","","","","",""
"image-keyboard-response","364","375350","0.0-3.0-6.0-1.0-0.76","6501f64fbe9a0a65bd5f7891","6662009ae78f21dd82fcd179","66620b6d97325bfb95f3b37b","1065","","j","","","","","","","","./tasks/HMM-beads/Images/NewTrialWC.png","lowH","1","76","0","1","1","1","true","",""
"image-keyboard-response","365","375656","0.0-3.0-6.0-1.0-1.76","6501f64fbe9a0a65bd5f7891","6662009ae78f21dd82fcd179","66620b6d97325bfb95f3b37b","null","","null","","","","","","","","./tasks/HMM-beads/Images/WhiteBeadChoice.png","","","","","","","","","",""
"image-keyboard-response","366","376161","0.0-3.0-6.0-1.0-2.76","6501f64fbe9a0a65bd5f7891","6662009ae78f21dd82fcd179","66620b6d97325bfb95f3b37b","null","","null","","","","","","","","./tasks/HMM-beads/Images/WhiteBeadChoiceCorrect.png","","","","","","","","","",""
"image-keyboard-response","367","376624","0.0-3.0-6.0-1.0-0.77","6501f64fbe9a0a65bd5f7891","6662009ae78f21dd82fcd179","66620b6d97325bfb95f3b37b","454","","j","","","","","","","","./tasks/HMM-beads/Images/NewTrialWC.png","lowH","1","77","0","0","1","1","false","",""
"image-keyboard-response","368","376929","0.0-3.0-6.0-1.0-1.77","6501f64fbe9a0a65bd5f7891","6662009ae78f21dd82fcd179","66620b6d97325bfb95f3b37b","null","","null","","","","","","","","./tasks/HMM-beads/Images/WhiteBeadChoice.png","","","","","","","","","",""
"image-keyboard-response","369","377434","0.0-3.0-6.0-1.0-2.77","6501f64fbe9a0a65bd5f7891","6662009ae78f21dd82fcd179","66620b6d97325bfb95f3b37b","null","","null","","","","","","","","./tasks/HMM-beads/Images/WhiteBeadChoiceWrong.png","","","","","","","","","",""
"image-keyboard-response","370","378238","0.0-3.0-6.0-1.0-0.78","6501f64fbe9a0a65bd5f7891","6662009ae78f21dd82fcd179","66620b6d97325bfb95f3b37b","799","","j","","","","","","","","./tasks/HMM-beads/Images/NewTrialBC.png","lowH","1","78","0","0","0","1","false","",""
"image-keyboard-response","371","378544","0.0-3.0-6.0-1.0-1.78","6501f64fbe9a0a65bd5f7891","6662009ae78f21dd82fcd179","66620b6d97325bfb95f3b37b","null","","null","","","","","","","","./tasks/HMM-beads/Images/WhiteBeadChoice.png","","","","","","","","","",""
"image-keyboard-response","372","379048","0.0-3.0-6.0-1.0-2.78","6501f64fbe9a0a65bd5f7891","6662009ae78f21dd82fcd179","66620b6d97325bfb95f3b37b","null","","null","","","","","","","","./tasks/HMM-beads/Images/WhiteBeadChoiceWrong.png","","","","","","","","","",""
"image-keyboard-response","373","379407","0.0-3.0-6.0-1.0-0.79","6501f64fbe9a0a65bd5f7891","6662009ae78f21dd82fcd179","66620b6d97325bfb95f3b37b","354","","j","","","","","","","","./tasks/HMM-beads/Images/NewTrialBC.png","lowH","1","79","0","0","0","1","false","",""
"image-keyboard-response","374","379712","0.0-3.0-6.0-1.0-1.79","6501f64fbe9a0a65bd5f7891","6662009ae78f21dd82fcd179","66620b6d97325bfb95f3b37b","null","","null","","","","","","","","./tasks/HMM-beads/Images/WhiteBeadChoice.png","","","","","","","","","",""
