"trial_type","trial_index","time_elapsed","internal_node_id","subject_id","study_id","session_id","rt","url","response","question_order","view_history","success","timeout","failed_images","failed_audio","failed_video","stimulus","block","block_rep","trial_number","jar","bead","previous_bead","choice","correct","lowH_score","total_bonus"
"pavlovia","0","1113","0.0-0.0","5ecc1798e3ca777cfb37b0f5","6662009ae78f21dd82fcd179","66620a547f69f5f09072147d","","","","","","","","","","","","","","","","","","","","",""
"external-html","1","11721","0.0-1.0-0.0","5ecc1798e3ca777cfb37b0f5","6662009ae78f21dd82fcd179","66620a547f69f5f09072147d","10489","new_consent.html","","","","","","","","","","","","","","","","","","",""
"survey-multi-choice","2","16206","0.0-1.0-1.0","5ecc1798e3ca777cfb37b0f5","6662009ae78f21dd82fcd179","66620a547f69f5f09072147d","4484","","{""Q0"":""Male"",""Q1"":""White""}","[0,1]","","","","","","","","","","","","","","","","",""
"survey-text","3","18553","0.0-1.0-2.0","5ecc1798e3ca777cfb37b0f5","6662009ae78f21dd82fcd179","66620a547f69f5f09072147d","2343","","{""Q0"":""34""}","","","","","","","","","","","","","","","","","",""
"instructions","4","20169","0.0-2.0","5ecc1798e3ca777cfb37b0f5","6662009ae78f21dd82fcd179","66620a547f69f5f09072147d","1510","","","","[{""page_index"":0,""viewing_time"":1510}]","","","","","","","","","","","","","","","",""
"preload","5","26132","0.0-3.0-0.0","5ecc1798e3ca777cfb37b0f5","6662009ae78f21dd82fcd179","66620a547f69f5f09072147d","","","","","","true","false","[]","[]","[]","","","","","","","","","","",""
"instructions","6","130397","0.0-3.0-1.0","5ecc1798e3ca777cfb37b0f5","6662009ae78f21dd82fcd179","66620a547f69f5f09072147d","104265","","","","[{""page_index"":0,""viewing_time"":8781},{""page_index"":1,""viewing_time"":26908},{""page_index"":2,""viewing_time"":3859},{""page_index"":3,""viewing_time"":2046},{""page_index"":4,""viewing_time"":9521},{""page_index"":3,""viewing_time"":1792},{""page_index"":4,""viewing_time"":1411},{""page_index"":5,""viewing_time"":10967},{""page_index"":6,""viewing_time"":4458},{""page_index"":7,""viewing_time"":10655},{""page_index"":8,""viewing_time"":9461},{""page_index"":9,""viewing_time"":4848},{""page_index"":8,""viewing_time"":1587},{""page_index"":9,""viewing_time"":704},{""page_index"":10,""viewing_time"":5779},{""page_index"":11,""viewing_time"":1489}]","","","","","","","","","","","","","","","",""
"html-button-response","7","133952","0.0-3.0-2.0-0.0-0.0","5ecc1798e3ca777cfb37b0f5","6662009ae78f21dd82fcd179","66620a547f69f5f09072147d","3554","","1","","","","","","","","<div align=center>Your goal is to predict…?<br><br></div>","","","","","","","","","",""
"html-button-response","8","140013","0.0-3.0-2.0-1.0-0.0","5ecc1798e3ca777cfb37b0f5","6662009ae78f21dd82fcd179","66620a547f69f5f09072147d","4415","","2","","","","","","","","<div align=center>In the jar with mostly white beads, there are ___% white beads and ___% black beads?<br><br></div>","","","","","","","","","",""
"html-button-response","9","146730","0.0-3.0-2.0-2.0-0.0","5ecc1798e3ca777cfb37b0f5","6662009ae78f21dd82fcd179","66620a547f69f5f09072147d","5418","","0","","","","","","","","<div align=center>When there is a 1% probability that the jars will switch, the next bead will most likely be drawn from the…<br><br></div>","","","","","","","","","",""
"html-button-response","10","151094","0.0-3.0-2.0-3.0-0.0","5ecc1798e3ca777cfb37b0f5","6662009ae78f21dd82fcd179","66620a547f69f5f09072147d","2994","","1","","","","","","","","<div align=center>When there is a 99% probability that the jars will switch, the next bead will most likely be drawn from the…<br><br></div>","","","","","","","","","",""
"instructions","11","174312","0.0-3.0-3.0","5ecc1798e3ca777cfb37b0f5","6662009ae78f21dd82fcd179","66620a547f69f5f09072147d","22194","","","","[{""page_index"":0,""viewing_time"":22194}]","","","","","","","","","","","","","","","",""
"html-keyboard-response","12","177297","0.0-3.0-4.0-0.0","5ecc1798e3ca777cfb37b0f5","6662009ae78f21dd82fcd179","66620a547f69f5f09072147d","2984",""," ","","","","","","","","<div align=center>In this practice block, there will be a <b>1% chance</b> that the jar on the next trial will be different from the jar on the current trial.<br><br></div>","","","","","","","","","",""
"image-keyboard-response","13","183026","0.0-3.0-4.0-1.0-0.0","5ecc1798e3ca777cfb37b0f5","6662009ae78f21dd82fcd179","66620a547f69f5f09072147d","5725","","j","","","","","","","","./tasks/HMM-beads/Images/NoChoice.png","practice","0","0","0","0","9","1","false","",""
"image-keyboard-response","14","183339","0.0-3.0-4.0-1.0-1.0","5ecc1798e3ca777cfb37b0f5","6662009ae78f21dd82fcd179","66620a547f69f5f09072147d","null","","null","","","","","","","","./tasks/HMM-beads/Images/WhiteBeadChoice.png","","","","","","","","","",""
"image-keyboard-response","15","183850","0.0-3.0-4.0-1.0-2.0","5ecc1798e3ca777cfb37b0f5","6662009ae78f21dd82fcd179","66620a547f69f5f09072147d","null","","null","","","","","","","","./tasks/HMM-beads/Images/WhiteBeadChoiceWrong.png","","","","","","","","","",""
"image-keyboard-response","16","188731","0.0-3.0-4.0-1.0-0.1","5ecc1798e3ca777cfb37b0f5","6662009ae78f21dd82fcd179","66620a547f69f5f09072147d","4880","","f","","","","","","","","./tasks/HMM-beads/Images/NewTrialBC.png","practice","0","1","0","0","0","0","true","",""
"image-keyboard-response","17","189038","0.0-3.0-4.0-1.0-1.1","5ecc1798e3ca777cfb37b0f5","6662009ae78f21dd82fcd179","66620a547f69f5f09072147d","null","","null","","","","","","","","./tasks/HMM-beads/Images/BlackBeadChoice.png","","","","","","","","","",""
"image-keyboard-response","18","189549","0.0-3.0-4.0-1.0-2.1","5ecc1798e3ca777cfb37b0f5","6662009ae78f21dd82fcd179","66620a547f69f5f09072147d","null","","null","","","","","","","","./tasks/HMM-beads/Images/BlackBeadChoiceCorrect.png","","","","","","","","","",""
"image-keyboard-response","19","191183","0.0-3.0-4.0-1.0-0.2","5ecc1798e3ca777cfb37b0f5","6662009ae78f21dd82fcd179","66620a547f69f5f09072147d","1632","","f","","","","","","","","./tasks/HMM-beads/Images/NewTrialBC.png","practice","0","2","0","1","0","0","false","",""
"image-keyboard-response","20","191500","0.0-3.0-4.0-1.0-1.2","5ecc1798e3ca777cfb37b0f5","6662009ae78f21dd82fcd179","66620a547f69f5f09072147d","null","","null","","","","","","","","./tasks/HMM-beads/Images/BlackBeadChoice.png","","","","","","","","","",""
"image-keyboard-response","21","192013","0.0-3.0-4.0-1.0-2.2","5ecc1798e3ca777cfb37b0f5","6662009ae78f21dd82fcd179","66620a547f69f5f09072147d","null","","null","","","","","","","","./tasks/HMM-beads/Images/BlackBeadChoiceWrong.png","","","","","","","","","",""
"image-keyboard-response","22","193585","0.0-3.0-4.0-1.0-0.3","5ecc1798e3ca777cfb37b0f5","6662009ae78f21dd82fcd179","66620a547f69f5f09072147d","1570","","j","","","","","","","","./tasks/HMM-beads/Images/NewTrialWC.png","practice","0","3","0","0","1","1","false","",""
"image-keyboard-response","23","193900","0.0-3.0-4.0-1.0-1.3","5ecc1798e3ca777cfb37b0f5","6662009ae78f21dd82fcd179","66620a547f69f5f09072147d","null","","null","","","","","","","","./tasks/HMM-beads/Images/WhiteBeadChoice.png","","","","","","","","","",""
"image-keyboard-response","24","194414","0.0-3.0-4.0-1.0-2.3","5ecc1798e3ca777cfb37b0f5","6662009ae78f21dd82fcd179","66620a547f69f5f09072147d","null","","null","","","","","","","","./tasks/HMM-beads/Images/WhiteBeadChoiceWrong.png","","","","","","","","","",""
"image-keyboard-response","25","197764","0.0-3.0-4.0-1.0-0.4","5ecc1798e3ca777cfb37b0f5","6662009ae78f21dd82fcd179","66620a547f69f5f09072147d","3349","","f","","","","","","","","./tasks/HMM-beads/Images/NewTrialBC.png","practice","0","4","0","0","0","0","true","",""
"image-keyboard-response","26","198078","0.0-3.0-4.0-1.0-1.4","5ecc1798e3ca777cfb37b0f5","6662009ae78f21dd82fcd179","66620a547f69f5f09072147d","null","","null","","","","","","","","./tasks/HMM-beads/Images/BlackBeadChoice.png","","","","","","","","","",""
"image-keyboard-response","27","198588","0.0-3.0-4.0-1.0-2.4","5ecc1798e3ca777cfb37b0f5","6662009ae78f21dd82fcd179","66620a547f69f5f09072147d","null","","null","","","","","","","","./tasks/HMM-beads/Images/BlackBeadChoiceCorrect.png","","","","","","","","","",""
"image-keyboard-response","28","200386","0.0-3.0-4.0-1.0-0.5","5ecc1798e3ca777cfb37b0f5","6662009ae78f21dd82fcd179","66620a547f69f5f09072147d","1797","","f","","","","","","","","./tasks/HMM-beads/Images/NewTrialBC.png","practice","0","5","0","1","0","0","false","",""
"image-keyboard-response","29","200692","0.0-3.0-4.0-1.0-1.5","5ecc1798e3ca777cfb37b0f5","6662009ae78f21dd82fcd179","66620a547f69f5f09072147d","null","","null","","","","","","","","./tasks/HMM-beads/Images/BlackBeadChoice.png","","","","","","","","","",""
"image-keyboard-response","30","201201","0.0-3.0-4.0-1.0-2.5","5ecc1798e3ca777cfb37b0f5","6662009ae78f21dd82fcd179","66620a547f69f5f09072147d","null","","null","","","","","","","","./tasks/HMM-beads/Images/BlackBeadChoiceWrong.png","","","","","","","","","",""
"image-keyboard-response","31","201922","0.0-3.0-4.0-1.0-0.6","5ecc1798e3ca777cfb37b0f5","6662009ae78f21dd82fcd179","66620a547f69f5f09072147d","718","","j","","","","","","","","./tasks/HMM-beads/Images/NewTrialWC.png","practice","0","6","0","0","1","1","false","",""
"image-keyboard-response","32","202237","0.0-3.0-4.0-1.0-1.6","5ecc1798e3ca777cfb37b0f5","6662009ae78f21dd82fcd179","66620a547f69f5f09072147d","null","","null","","","","","","","","./tasks/HMM-beads/Images/WhiteBeadChoice.png","","","","","","","","","",""
"image-keyboard-response","33","202750","0.0-3.0-4.0-1.0-2.6","5ecc1798e3ca777cfb37b0f5","6662009ae78f21dd82fcd179","66620a547f69f5f09072147d","null","","null","","","","","","","","./tasks/HMM-beads/Images/WhiteBeadChoiceWrong.png","","","","","","","","","",""
"image-keyboard-response","34","206633","0.0-3.0-4.0-1.0-0.7","5ecc1798e3ca777cfb37b0f5","6662009ae78f21dd82fcd179","66620a547f69f5f09072147d","3880","","f","","","","","","","","./tasks/HMM-beads/Images/NewTrialBC.png","practice","0","7","0","0","0","0","true","",""
"image-keyboard-response","35","206947","0.0-3.0-4.0-1.0-1.7","5ecc1798e3ca777cfb37b0f5","6662009ae78f21dd82fcd179","66620a547f69f5f09072147d","null","","null","","","","","","","","./tasks/HMM-beads/Images/BlackBeadChoice.png","","","","","","","","","",""
"image-keyboard-response","36","207459","0.0-3.0-4.0-1.0-2.7","5ecc1798e3ca777cfb37b0f5","6662009ae78f21dd82fcd179","66620a547f69f5f09072147d","null","","null","","","","","","","","./tasks/HMM-beads/Images/BlackBeadChoiceCorrect.png","","","","","","","","","",""
"image-keyboard-response","37","208780","0.0-3.0-4.0-1.0-0.8","5ecc1798e3ca777cfb37b0f5","6662009ae78f21dd82fcd179","66620a547f69f5f09072147d","1318","","f","","","","","","","","./tasks/HMM-beads/Images/NewTrialBC.png","practice","0","8","0","0","0","0","true","",""
"image-keyboard-response","38","209091","0.0-3.0-4.0-1.0-1.8","5ecc1798e3ca777cfb37b0f5","6662009ae78f21dd82fcd179","66620a547f69f5f09072147d","null","","null","","","","","","","","./tasks/HMM-beads/Images/BlackBeadChoice.png","","","","","","","","","",""
"image-keyboard-response","39","209599","0.0-3.0-4.0-1.0-2.8","5ecc1798e3ca777cfb37b0f5","6662009ae78f21dd82fcd179","66620a547f69f5f09072147d","null","","null","","","","","","","","./tasks/HMM-beads/Images/BlackBeadChoiceCorrect.png","","","","","","","","","",""
"image-keyboard-response","40","210586","0.0-3.0-4.0-1.0-0.9","5ecc1798e3ca777cfb37b0f5","6662009ae78f21dd82fcd179","66620a547f69f5f09072147d","985","","f","","","","","","","","./tasks/HMM-beads/Images/NewTrialBC.png","practice","0","9","0","1","0","0","false","",""
"image-keyboard-response","41","210888","0.0-3.0-4.0-1.0-1.9","5ecc1798e3ca777cfb37b0f5","6662009ae78f21dd82fcd179","66620a547f69f5f09072147d","null","","null","","","","","","","","./tasks/HMM-beads/Images/BlackBeadChoice.png","","","","","","","","","",""
"image-keyboard-response","42","211401","0.0-3.0-4.0-1.0-2.9","5ecc1798e3ca777cfb37b0f5","6662009ae78f21dd82fcd179","66620a547f69f5f09072147d","null","","null","","","","","","","","./tasks/HMM-beads/Images/BlackBeadChoiceWrong.png","","","","","","","","","",""
"image-keyboard-response","43","212132","0.0-3.0-4.0-1.0-0.10","5ecc1798e3ca777cfb37b0f5","6662009ae78f21dd82fcd179","66620a547f69f5f09072147d","730","","j","","","","","","","","./tasks/HMM-beads/Images/NewTrialWC.png","practice","0","10","0","0","1","1","false","",""
"image-keyboard-response","44","212446","0.0-3.0-4.0-1.0-1.10","5ecc1798e3ca777cfb37b0f5","6662009ae78f21dd82fcd179","66620a547f69f5f09072147d","null","","null","","","","","","","","./tasks/HMM-beads/Images/WhiteBeadChoice.png","","","","","","","","","",""
"image-keyboard-response","45","212958","0.0-3.0-4.0-1.0-2.10","5ecc1798e3ca777cfb37b0f5","6662009ae78f21dd82fcd179","66620a547f69f5f09072147d","null","","null","","","","","","","","./tasks/HMM-beads/Images/WhiteBeadChoiceWrong.png","","","","","","","","","",""
"image-keyboard-response","46","213620","0.0-3.0-4.0-1.0-0.11","5ecc1798e3ca777cfb37b0f5","6662009ae78f21dd82fcd179","66620a547f69f5f09072147d","661","","f","","","","","","","","./tasks/HMM-beads/Images/NewTrialBC.png","practice","0","11","0","1","0","0","false","",""
"image-keyboard-response","47","213934","0.0-3.0-4.0-1.0-1.11","5ecc1798e3ca777cfb37b0f5","6662009ae78f21dd82fcd179","66620a547f69f5f09072147d","null","","null","","","","","","","","./tasks/HMM-beads/Images/BlackBeadChoice.png","","","","","","","","","",""
"image-keyboard-response","48","214447","0.0-3.0-4.0-1.0-2.11","5ecc1798e3ca777cfb37b0f5","6662009ae78f21dd82fcd179","66620a547f69f5f09072147d","null","","null","","","","","","","","./tasks/HMM-beads/Images/BlackBeadChoiceWrong.png","","","","","","","","","",""
"image-keyboard-response","49","215250","0.0-3.0-4.0-1.0-0.12","5ecc1798e3ca777cfb37b0f5","6662009ae78f21dd82fcd179","66620a547f69f5f09072147d","800","","j","","","","","","","","./tasks/HMM-beads/Images/NewTrialWC.png","practice","0","12","0","0","1","1","false","",""
"image-keyboard-response","50","215561","0.0-3.0-4.0-1.0-1.12","5ecc1798e3ca777cfb37b0f5","6662009ae78f21dd82fcd179","66620a547f69f5f09072147d","null","","null","","","","","","","","./tasks/HMM-beads/Images/WhiteBeadChoice.png","","","","","","","","","",""
"image-keyboard-response","51","216072","0.0-3.0-4.0-1.0-2.12","5ecc1798e3ca777cfb37b0f5","6662009ae78f21dd82fcd179","66620a547f69f5f09072147d","null","","null","","","","","","","","./tasks/HMM-beads/Images/WhiteBeadChoiceWrong.png","","","","","","","","","",""
"image-keyboard-response","52","216514","0.0-3.0-4.0-1.0-0.13","5ecc1798e3ca777cfb37b0f5","6662009ae78f21dd82fcd179","66620a547f69f5f09072147d","439","","f","","","","","","","","./tasks/HMM-beads/Images/NewTrialBC.png","practice","0","13","0","0","0","0","true","",""
"image-keyboard-response","53","216830","0.0-3.0-4.0-1.0-1.13","5ecc1798e3ca777cfb37b0f5","6662009ae78f21dd82fcd179","66620a547f69f5f09072147d","null","","null","","","","","","","","./tasks/HMM-beads/Images/BlackBeadChoice.png","","","","","","","","","",""
"image-keyboard-response","54","217341","0.0-3.0-4.0-1.0-2.13","5ecc1798e3ca777cfb37b0f5","6662009ae78f21dd82fcd179","66620a547f69f5f09072147d","null","","null","","","","","","","","./tasks/HMM-beads/Images/BlackBeadChoiceCorrect.png","","","","","","","","","",""
"image-keyboard-response","55","217390","0.0-3.0-4.0-1.0-0.14","5ecc1798e3ca777cfb37b0f5","6662009ae78f21dd82fcd179","66620a547f69f5f09072147d","46","","f","","","","","","","","./tasks/HMM-beads/Images/NewTrialBC.png","practice","0","14","0","0","0","0","true","",""
"image-keyboard-response","56","217699","0.0-3.0-4.0-1.0-1.14","5ecc1798e3ca777cfb37b0f5","6662009ae78f21dd82fcd179","66620a547f69f5f09072147d","null","","null","","","","","","","","./tasks/HMM-beads/Images/BlackBeadChoice.png","","","","","","","","","",""
"image-keyboard-response","57","218211","0.0-3.0-4.0-1.0-2.14","5ecc1798e3ca777cfb37b0f5","6662009ae78f21dd82fcd179","66620a547f69f5f09072147d","null","","null","","","","","","","","./tasks/HMM-beads/Images/BlackBeadChoiceCorrect.png","","","","","","","","","",""
"image-keyboard-response","58","222049","0.0-3.0-4.0-1.0-0.15","5ecc1798e3ca777cfb37b0f5","6662009ae78f21dd82fcd179","66620a547f69f5f09072147d","3835","","f","","","","","","","","./tasks/HMM-beads/Images/NewTrialBC.png","practice","0","15","0","0","0","0","true","",""
"image-keyboard-response","59","222358","0.0-3.0-4.0-1.0-1.15","5ecc1798e3ca777cfb37b0f5","6662009ae78f21dd82fcd179","66620a547f69f5f09072147d","null","","null","","","","","","","","./tasks/HMM-beads/Images/BlackBeadChoice.png","","","","","","","","","",""
"image-keyboard-response","60","222866","0.0-3.0-4.0-1.0-2.15","5ecc1798e3ca777cfb37b0f5","6662009ae78f21dd82fcd179","66620a547f69f5f09072147d","null","","null","","","","","","","","./tasks/HMM-beads/Images/BlackBeadChoiceCorrect.png","","","","","","","","","",""
"image-keyboard-response","61","224095","0.0-3.0-4.0-1.0-0.16","5ecc1798e3ca777cfb37b0f5","6662009ae78f21dd82fcd179","66620a547f69f5f09072147d","1226","","f","","","","","","","","./tasks/HMM-beads/Images/NewTrialBC.png","practice","0","16","0","0","0","0","true","",""
"image-keyboard-response","62","224405","0.0-3.0-4.0-1.0-1.16","5ecc1798e3ca777cfb37b0f5","6662009ae78f21dd82fcd179","66620a547f69f5f09072147d","null","","null","","","","","","","","./tasks/HMM-beads/Images/BlackBeadChoice.png","","","","","","","","","",""
"image-keyboard-response","63","224916","0.0-3.0-4.0-1.0-2.16","5ecc1798e3ca777cfb37b0f5","6662009ae78f21dd82fcd179","66620a547f69f5f09072147d","null","","null","","","","","","","","./tasks/HMM-beads/Images/BlackBeadChoiceCorrect.png","","","","","","","","","",""
"image-keyboard-response","64","225701","0.0-3.0-4.0-1.0-0.17","5ecc1798e3ca777cfb37b0f5","6662009ae78f21dd82fcd179","66620a547f69f5f09072147d","780","","f","","","","","","","","./tasks/HMM-beads/Images/NewTrialBC.png","practice","0","17","0","0","0","0","true","",""
"image-keyboard-response","65","226015","0.0-3.0-4.0-1.0-1.17","5ecc1798e3ca777cfb37b0f5","6662009ae78f21dd82fcd179","66620a547f69f5f09072147d","null","","null","","","","","","","","./tasks/HMM-beads/Images/BlackBeadChoice.png","","","","","","","","","",""
"image-keyboard-response","66","226523","0.0-3.0-4.0-1.0-2.17","5ecc1798e3ca777cfb37b0f5","6662009ae78f21dd82fcd179","66620a547f69f5f09072147d","null","","null","","","","","","","","./tasks/HMM-beads/Images/BlackBeadChoiceCorrect.png","","","","","","","","","",""
"image-keyboard-response","67","227303","0.0-3.0-4.0-1.0-0.18","5ecc1798e3ca777cfb37b0f5","6662009ae78f21dd82fcd179","66620a547f69f5f09072147d","778","","j","","","","","","","","./tasks/HMM-beads/Images/NewTrialBC.png","practice","0","18","0","1","0","1","true","",""
"image-keyboard-response","68","227620","0.0-3.0-4.0-1.0-1.18","5ecc1798e3ca777cfb37b0f5","6662009ae78f21dd82fcd179","66620a547f69f5f09072147d","null","","null","","","","","","","","./tasks/HMM-beads/Images/WhiteBeadChoice.png","","","","","","","","","",""
"image-keyboard-response","69","228134","0.0-3.0-4.0-1.0-2.18","5ecc1798e3ca777cfb37b0f5","6662009ae78f21dd82fcd179","66620a547f69f5f09072147d","null","","null","","","","","","","","./tasks/HMM-beads/Images/WhiteBeadChoiceCorrect.png","","","","","","","","","",""
"image-keyboard-response","70","228544","0.0-3.0-4.0-1.0-0.19","5ecc1798e3ca777cfb37b0f5","6662009ae78f21dd82fcd179","66620a547f69f5f09072147d","408","","j","","","","","","","","./tasks/HMM-beads/Images/NewTrialWC.png","practice","0","19","0","0","1","1","false","",""
"image-keyboard-response","71","228847","0.0-3.0-4.0-1.0-1.19","5ecc1798e3ca777cfb37b0f5","6662009ae78f21dd82fcd179","66620a547f69f5f09072147d","null","","null","","","","","","","","./tasks/HMM-beads/Images/WhiteBeadChoice.png","","","","","","","","","",""
"image-keyboard-response","72","229361","0.0-3.0-4.0-1.0-2.19","5ecc1798e3ca777cfb37b0f5","6662009ae78f21dd82fcd179","66620a547f69f5f09072147d","null","","null","","","","","","","","./tasks/HMM-beads/Images/WhiteBeadChoiceWrong.png","","","","","","","","","",""
"image-keyboard-response","73","231264","0.0-3.0-4.0-1.0-0.20","5ecc1798e3ca777cfb37b0f5","6662009ae78f21dd82fcd179","66620a547f69f5f09072147d","1900","","j","","","","","","","","./tasks/HMM-beads/Images/NewTrialBC.png","practice","0","20","0","0","0","1","false","",""
"image-keyboard-response","74","231575","0.0-3.0-4.0-1.0-1.20","5ecc1798e3ca777cfb37b0f5","6662009ae78f21dd82fcd179","66620a547f69f5f09072147d","null","","null","","","","","","","","./tasks/HMM-beads/Images/WhiteBeadChoice.png","","","","","","","","","",""
"image-keyboard-response","75","232086","0.0-3.0-4.0-1.0-2.20","5ecc1798e3ca777cfb37b0f5","6662009ae78f21dd82fcd179","66620a547f69f5f09072147d","null","","null","","","","","","","","./tasks/HMM-beads/Images/WhiteBeadChoiceWrong.png","","","","","","","","","",""
"image-keyboard-response","76","232285","0.0-3.0-4.0-1.0-0.21","5ecc1798e3ca777cfb37b0f5","6662009ae78f21dd82fcd179","66620a547f69f5f09072147d","196","","j","","","","","","","","./tasks/HMM-beads/Images/NewTrialBC.png","practice","0","21","0","1","0","1","true","",""
"image-keyboard-response","77","232600","0.0-3.0-4.0-1.0-1.21","5ecc1798e3ca777cfb37b0f5","6662009ae78f21dd82fcd179","66620a547f69f5f09072147d","null","","null","","","","","","","","./tasks/HMM-beads/Images/WhiteBeadChoice.png","","","","","","","","","",""
"image-keyboard-response","78","233108","0.0-3.0-4.0-1.0-2.21","5ecc1798e3ca777cfb37b0f5","6662009ae78f21dd82fcd179","66620a547f69f5f09072147d","null","","null","","","","","","","","./tasks/HMM-beads/Images/WhiteBeadChoiceCorrect.png","","","","","","","","","",""
"image-keyboard-response","79","233254","0.0-3.0-4.0-1.0-0.22","5ecc1798e3ca777cfb37b0f5","6662009ae78f21dd82fcd179","66620a547f69f5f09072147d","144","","j","","","","","","","","./tasks/HMM-beads/Images/NewTrialWC.png","practice","0","22","1","1","1","1","true","",""
"image-keyboard-response","80","233571","0.0-3.0-4.0-1.0-1.22","5ecc1798e3ca777cfb37b0f5","6662009ae78f21dd82fcd179","66620a547f69f5f09072147d","null","","null","","","","","","","","./tasks/HMM-beads/Images/WhiteBeadChoice.png","","","","","","","","","",""
"image-keyboard-response","81","234085","0.0-3.0-4.0-1.0-2.22","5ecc1798e3ca777cfb37b0f5","6662009ae78f21dd82fcd179","66620a547f69f5f09072147d","null","","null","","","","","","","","./tasks/HMM-beads/Images/WhiteBeadChoiceCorrect.png","","","","","","","","","",""
"image-keyboard-response","82","234497","0.0-3.0-4.0-1.0-0.23","5ecc1798e3ca777cfb37b0f5","6662009ae78f21dd82fcd179","66620a547f69f5f09072147d","411","","j","","","","","","","","./tasks/HMM-beads/Images/NewTrialWC.png","practice","0","23","1","0","1","1","false","",""
"image-keyboard-response","83","234812","0.0-3.0-4.0-1.0-1.23","5ecc1798e3ca777cfb37b0f5","6662009ae78f21dd82fcd179","66620a547f69f5f09072147d","null","","null","","","","","","","","./tasks/HMM-beads/Images/WhiteBeadChoice.png","","","","","","","","","",""
"image-keyboard-response","84","235323","0.0-3.0-4.0-1.0-2.23","5ecc1798e3ca777cfb37b0f5","6662009ae78f21dd82fcd179","66620a547f69f5f09072147d","null","","null","","","","","","","","./tasks/HMM-beads/Images/WhiteBeadChoiceWrong.png","","","","","","","","","",""
"image-keyboard-response","85","236204","0.0-3.0-4.0-1.0-0.24","5ecc1798e3ca777cfb37b0f5","6662009ae78f21dd82fcd179","66620a547f69f5f09072147d","880","","f","","","","","","","","./tasks/HMM-beads/Images/NewTrialBC.png","practice","0","24","1","1","0","0","false","",""
"image-keyboard-response","86","236517","0.0-3.0-4.0-1.0-1.24","5ecc1798e3ca777cfb37b0f5","6662009ae78f21dd82fcd179","66620a547f69f5f09072147d","null","","null","","","","","","","","./tasks/HMM-beads/Images/BlackBeadChoice.png","","","","","","","","","",""
"image-keyboard-response","87","237029","0.0-3.0-4.0-1.0-2.24","5ecc1798e3ca777cfb37b0f5","6662009ae78f21dd82fcd179","66620a547f69f5f09072147d","null","","null","","","","","","","","./tasks/HMM-beads/Images/BlackBeadChoiceWrong.png","","","","","","","","","",""
"image-keyboard-response","88","237595","0.0-3.0-4.0-1.0-0.25","5ecc1798e3ca777cfb37b0f5","6662009ae78f21dd82fcd179","66620a547f69f5f09072147d","563","","j","","","","","","","","./tasks/HMM-beads/Images/NewTrialWC.png","practice","0","25","1","1","1","1","true","",""
"image-keyboard-response","89","237899","0.0-3.0-4.0-1.0-1.25","5ecc1798e3ca777cfb37b0f5","6662009ae78f21dd82fcd179","66620a547f69f5f09072147d","null","","null","","","","","","","","./tasks/HMM-beads/Images/WhiteBeadChoice.png","","","","","","","","","",""
"image-keyboard-response","90","238410","0.0-3.0-4.0-1.0-2.25","5ecc1798e3ca777cfb37b0f5","6662009ae78f21dd82fcd179","66620a547f69f5f09072147d","null","","null","","","","","","","","./tasks/HMM-beads/Images/WhiteBeadChoiceCorrect.png","","","","","","","","","",""
"image-keyboard-response","91","240348","0.0-3.0-4.0-1.0-0.26","5ecc1798e3ca777cfb37b0f5","6662009ae78f21dd82fcd179","66620a547f69f5f09072147d","1937","","j","","","","","","","","./tasks/HMM-beads/Images/NewTrialWC.png","practice","0","26","1","1","1","1","true","",""
"image-keyboard-response","92","240663","0.0-3.0-4.0-1.0-1.26","5ecc1798e3ca777cfb37b0f5","6662009ae78f21dd82fcd179","66620a547f69f5f09072147d","null","","null","","","","","","","","./tasks/HMM-beads/Images/WhiteBeadChoice.png","","","","","","","","","",""
"image-keyboard-response","93","241173","0.0-3.0-4.0-1.0-2.26","5ecc1798e3ca777cfb37b0f5","6662009ae78f21dd82fcd179","66620a547f69f5f09072147d","null","","null","","","","","","","","./tasks/HMM-beads/Images/WhiteBeadChoiceCorrect.png","","","","","","","","","",""
"image-keyboard-response","94","242166","0.0-3.0-4.0-1.0-0.27","5ecc1798e3ca777cfb37b0f5","6662009ae78f21dd82fcd179","66620a547f69f5f09072147d","992","","j","","","","","","","","./tasks/HMM-beads/Images/NewTrialWC.png","practice","0","27","1","1","1","1","true","",""
"image-keyboard-response","95","242479","0.0-3.0-4.0-1.0-1.27","5ecc1798e3ca777cfb37b0f5","6662009ae78f21dd82fcd179","66620a547f69f5f09072147d","null","","null","","","","","","","","./tasks/HMM-beads/Images/WhiteBeadChoice.png","","","","","","","","","",""
"image-keyboard-response","96","242989","0.0-3.0-4.0-1.0-2.27","5ecc1798e3ca777cfb37b0f5","6662009ae78f21dd82fcd179","66620a547f69f5f09072147d","null","","null","","","","","","","","./tasks/HMM-beads/Images/WhiteBeadChoiceCorrect.png","","","","","","","","","",""
"image-keyboard-response","97","243386","0.0-3.0-4.0-1.0-0.28","5ecc1798e3ca777cfb37b0f5","6662009ae78f21dd82fcd179","66620a547f69f5f09072147d","396","","j","","","","","","","","./tasks/HMM-beads/Images/NewTrialWC.png","practice","0","28","1","0","1","1","false","",""
"image-keyboard-response","98","243698","0.0-3.0-4.0-1.0-1.28","5ecc1798e3ca777cfb37b0f5","6662009ae78f21dd82fcd179","66620a547f69f5f09072147d","null","","null","","","","","","","","./tasks/HMM-beads/Images/WhiteBeadChoice.png","","","","","","","","","",""
"image-keyboard-response","99","244211","0.0-3.0-4.0-1.0-2.28","5ecc1798e3ca777cfb37b0f5","6662009ae78f21dd82fcd179","66620a547f69f5f09072147d","null","","null","","","","","","","","./tasks/HMM-beads/Images/WhiteBeadChoiceWrong.png","","","","","","","","","",""
"image-keyboard-response","100","244638","0.0-3.0-4.0-1.0-0.29","5ecc1798e3ca777cfb37b0f5","6662009ae78f21dd82fcd179","66620a547f69f5f09072147d","426","","f","","","","","","","","./tasks/HMM-beads/Images/NewTrialBC.png","practice","0","29","1","1","0","0","false","",""
"image-keyboard-response","101","244940","0.0-3.0-4.0-1.0-1.29","5ecc1798e3ca777cfb37b0f5","6662009ae78f21dd82fcd179","66620a547f69f5f09072147d","null","","null","","","","","","","","./tasks/HMM-beads/Images/BlackBeadChoice.png","","","","","","","","","",""
"image-keyboard-response","102","245454","0.0-3.0-4.0-1.0-2.29","5ecc1798e3ca777cfb37b0f5","6662009ae78f21dd82fcd179","66620a547f69f5f09072147d","null","","null","","","","","","","","./tasks/HMM-beads/Images/BlackBeadChoiceWrong.png","","","","","","","","","",""
"image-keyboard-response","103","246154","0.0-3.0-4.0-1.0-0.30","5ecc1798e3ca777cfb37b0f5","6662009ae78f21dd82fcd179","66620a547f69f5f09072147d","698","","j","","","","","","","","./tasks/HMM-beads/Images/NewTrialWC.png","practice","0","30","1","0","1","1","false","",""
"image-keyboard-response","104","246465","0.0-3.0-4.0-1.0-1.30","5ecc1798e3ca777cfb37b0f5","6662009ae78f21dd82fcd179","66620a547f69f5f09072147d","null","","null","","","","","","","","./tasks/HMM-beads/Images/WhiteBeadChoice.png","","","","","","","","","",""
"image-keyboard-response","105","246976","0.0-3.0-4.0-1.0-2.30","5ecc1798e3ca777cfb37b0f5","6662009ae78f21dd82fcd179","66620a547f69f5f09072147d","null","","null","","","","","","","","./tasks/HMM-beads/Images/WhiteBeadChoiceWrong.png","","","","","","","","","",""
"image-keyboard-response","106","247280","0.0-3.0-4.0-1.0-0.31","5ecc1798e3ca777cfb37b0f5","6662009ae78f21dd82fcd179","66620a547f69f5f09072147d","301","","f","","","","","","","","./tasks/HMM-beads/Images/NewTrialBC.png","practice","0","31","1","1","0","0","false","",""
"image-keyboard-response","107","247582","0.0-3.0-4.0-1.0-1.31","5ecc1798e3ca777cfb37b0f5","6662009ae78f21dd82fcd179","66620a547f69f5f09072147d","null","","null","","","","","","","","./tasks/HMM-beads/Images/BlackBeadChoice.png","","","","","","","","","",""
"image-keyboard-response","108","248094","0.0-3.0-4.0-1.0-2.31","5ecc1798e3ca777cfb37b0f5","6662009ae78f21dd82fcd179","66620a547f69f5f09072147d","null","","null","","","","","","","","./tasks/HMM-beads/Images/BlackBeadChoiceWrong.png","","","","","","","","","",""
"image-keyboard-response","109","248132","0.0-3.0-4.0-1.0-0.32","5ecc1798e3ca777cfb37b0f5","6662009ae78f21dd82fcd179","66620a547f69f5f09072147d","35","","j","","","","","","","","./tasks/HMM-beads/Images/NewTrialWC.png","practice","0","32","1","1","1","1","true","",""
"image-keyboard-response","110","248436","0.0-3.0-4.0-1.0-1.32","5ecc1798e3ca777cfb37b0f5","6662009ae78f21dd82fcd179","66620a547f69f5f09072147d","null","","null","","","","","","","","./tasks/HMM-beads/Images/WhiteBeadChoice.png","","","","","","","","","",""
"image-keyboard-response","111","248944","0.0-3.0-4.0-1.0-2.32","5ecc1798e3ca777cfb37b0f5","6662009ae78f21dd82fcd179","66620a547f69f5f09072147d","null","","null","","","","","","","","./tasks/HMM-beads/Images/WhiteBeadChoiceCorrect.png","","","","","","","","","",""
"image-keyboard-response","112","249604","0.0-3.0-4.0-1.0-0.33","5ecc1798e3ca777cfb37b0f5","6662009ae78f21dd82fcd179","66620a547f69f5f09072147d","657","","j","","","","","","","","./tasks/HMM-beads/Images/NewTrialWC.png","practice","0","33","1","1","1","1","true","",""
"image-keyboard-response","113","249918","0.0-3.0-4.0-1.0-1.33","5ecc1798e3ca777cfb37b0f5","6662009ae78f21dd82fcd179","66620a547f69f5f09072147d","null","","null","","","","","","","","./tasks/HMM-beads/Images/WhiteBeadChoice.png","","","","","","","","","",""
"image-keyboard-response","114","250431","0.0-3.0-4.0-1.0-2.33","5ecc1798e3ca777cfb37b0f5","6662009ae78f21dd82fcd179","66620a547f69f5f09072147d","null","","null","","","","","","","","./tasks/HMM-beads/Images/WhiteBeadChoiceCorrect.png","","","","","","","","","",""
"image-keyboard-response","115","250478","0.0-3.0-4.0-1.0-0.34","5ecc1798e3ca777cfb37b0f5","6662009ae78f21dd82fcd179","66620a547f69f5f09072147d","45","","j","","","","","","","","./tasks/HMM-beads/Images/NewTrialWC.png","practice","0","34","1","1","1","1","true","",""
"image-keyboard-response","116","250785","0.0-3.0-4.0-1.0-1.34","5ecc1798e3ca777cfb37b0f5","6662009ae78f21dd82fcd179","66620a547f69f5f09072147d","null","","null","","","","","","","","./tasks/HMM-beads/Images/WhiteBeadChoice.png","","","","","","","","","",""
"image-keyboard-response","117","251298","0.0-3.0-4.0-1.0-2.34","5ecc1798e3ca777cfb37b0f5","6662009ae78f21dd82fcd179","66620a547f69f5f09072147d","null","","null","","","","","","","","./tasks/HMM-beads/Images/WhiteBeadChoiceCorrect.png","","","","","","","","","",""
"image-keyboard-response","118","251791","0.0-3.0-4.0-1.0-0.35","5ecc1798e3ca777cfb37b0f5","6662009ae78f21dd82fcd179","66620a547f69f5f09072147d","492","","j","","","","","","","","./tasks/HMM-beads/Images/NewTrialWC.png","practice","0","35","1","1","1","1","true","",""
"image-keyboard-response","119","252105","0.0-3.0-4.0-1.0-1.35","5ecc1798e3ca777cfb37b0f5","6662009ae78f21dd82fcd179","66620a547f69f5f09072147d","null","","null","","","","","","","","./tasks/HMM-beads/Images/WhiteBeadChoice.png","","","","","","","","","",""
"image-keyboard-response","120","252616","0.0-3.0-4.0-1.0-2.35","5ecc1798e3ca777cfb37b0f5","6662009ae78f21dd82fcd179","66620a547f69f5f09072147d","null","","null","","","","","","","","./tasks/HMM-beads/Images/WhiteBeadChoiceCorrect.png","","","","","","","","","",""
"image-keyboard-response","121","253001","0.0-3.0-4.0-1.0-0.36","5ecc1798e3ca777cfb37b0f5","6662009ae78f21dd82fcd179","66620a547f69f5f09072147d","382","","j","","","","","","","","./tasks/HMM-beads/Images/NewTrialWC.png","practice","0","36","1","0","1","1","false","",""
"image-keyboard-response","122","253315","0.0-3.0-4.0-1.0-1.36","5ecc1798e3ca777cfb37b0f5","6662009ae78f21dd82fcd179","66620a547f69f5f09072147d","null","","null","","","","","","","","./tasks/HMM-beads/Images/WhiteBeadChoice.png","","","","","","","","","",""
"image-keyboard-response","123","253828","0.0-3.0-4.0-1.0-2.36","5ecc1798e3ca777cfb37b0f5","6662009ae78f21dd82fcd179","66620a547f69f5f09072147d","null","","null","","","","","","","","./tasks/HMM-beads/Images/WhiteBeadChoiceWrong.png","","","","","","","","","",""
"image-keyboard-response","124","253842","0.0-3.0-4.0-1.0-0.37","5ecc1798e3ca777cfb37b0f5","6662009ae78f21dd82fcd179","66620a547f69f5f09072147d","11","","f","","","","","","","","./tasks/HMM-beads/Images/NewTrialBC.png","practice","0","37","1","1","0","0","false","",""
"image-keyboard-response","125","254155","0.0-3.0-4.0-1.0-1.37","5ecc1798e3ca777cfb37b0f5","6662009ae78f21dd82fcd179","66620a547f69f5f09072147d","null","","null","","","","","","","","./tasks/HMM-beads/Images/BlackBeadChoice.png","","","","","","","","","",""
"image-keyboard-response","126","254664","0.0-3.0-4.0-1.0-2.37","5ecc1798e3ca777cfb37b0f5","6662009ae78f21dd82fcd179","66620a547f69f5f09072147d","null","","null","","","","","","","","./tasks/HMM-beads/Images/BlackBeadChoiceWrong.png","","","","","","","","","",""
"image-keyboard-response","127","255065","0.0-3.0-4.0-1.0-0.38","5ecc1798e3ca777cfb37b0f5","6662009ae78f21dd82fcd179","66620a547f69f5f09072147d","398","","j","","","","","","","","./tasks/HMM-beads/Images/NewTrialWC.png","practice","0","38","1","1","1","1","true","",""
"image-keyboard-response","128","255374","0.0-3.0-4.0-1.0-1.38","5ecc1798e3ca777cfb37b0f5","6662009ae78f21dd82fcd179","66620a547f69f5f09072147d","null","","null","","","","","","","","./tasks/HMM-beads/Images/WhiteBeadChoice.png","","","","","","","","","",""
"image-keyboard-response","129","255886","0.0-3.0-4.0-1.0-2.38","5ecc1798e3ca777cfb37b0f5","6662009ae78f21dd82fcd179","66620a547f69f5f09072147d","null","","null","","","","","","","","./tasks/HMM-beads/Images/WhiteBeadChoiceCorrect.png","","","","","","","","","",""
"image-keyboard-response","130","257368","0.0-3.0-4.0-1.0-0.39","5ecc1798e3ca777cfb37b0f5","6662009ae78f21dd82fcd179","66620a547f69f5f09072147d","1481","","j","","","","","","","","./tasks/HMM-beads/Images/NewTrialWC.png","practice","0","39","1","1","1","1","true","",""
"image-keyboard-response","131","257670","0.0-3.0-4.0-1.0-1.39","5ecc1798e3ca777cfb37b0f5","6662009ae78f21dd82fcd179","66620a547f69f5f09072147d","null","","null","","","","","","","","./tasks/HMM-beads/Images/WhiteBeadChoice.png","","","","","","","","","",""
"image-keyboard-response","132","258183","0.0-3.0-4.0-1.0-2.39","5ecc1798e3ca777cfb37b0f5","6662009ae78f21dd82fcd179","66620a547f69f5f09072147d","null","","null","","","","","","","","./tasks/HMM-beads/Images/WhiteBeadChoiceCorrect.png","","","","","","","","","",""
"html-keyboard-response","133","261985","0.0-3.0-4.0-2.0","5ecc1798e3ca777cfb37b0f5","6662009ae78f21dd82fcd179","66620a547f69f5f09072147d","3800",""," ","","","","","","","","","","","","","","","","","",""
"instructions","134","345927","0.0-3.0-5.0","5ecc1798e3ca777cfb37b0f5","6662009ae78f21dd82fcd179","66620a547f69f5f09072147d","83941","","","","[{""page_index"":0,""viewing_time"":7073},{""page_index"":1,""viewing_time"":76869}]","","","","","","","","","","","","","","","",""
"html-keyboard-response","135","352666","0.0-3.0-6.0-0.0","5ecc1798e3ca777cfb37b0f5","6662009ae78f21dd82fcd179","66620a547f69f5f09072147d","6738",""," ","","","","","","","","<div align=center>In this block, there will be a <b>1% chance</b> that the jar on the next trial will be different from the jar on the current trial.<br><br></div>","","","","","","","","","",""
"image-keyboard-response","136","361553","0.0-3.0-6.0-1.0-0.0","5ecc1798e3ca777cfb37b0f5","6662009ae78f21dd82fcd179","66620a547f69f5f09072147d","8887","","j","","","","","","","","./tasks/HMM-beads/Images/NoChoice.png","lowH","1","0","1","0","9","1","false","",""
"image-keyboard-response","137","361856","0.0-3.0-6.0-1.0-1.0","5ecc1798e3ca777cfb37b0f5","6662009ae78f21dd82fcd179","66620a547f69f5f09072147d","null","","null","","","","","","","","./tasks/HMM-beads/Images/WhiteBeadChoice.png","","","","","","","","","",""
"image-keyboard-response","138","362367","0.0-3.0-6.0-1.0-2.0","5ecc1798e3ca777cfb37b0f5","6662009ae78f21dd82fcd179","66620a547f69f5f09072147d","null","","null","","","","","","","","./tasks/HMM-beads/Images/WhiteBeadChoiceWrong.png","","","","","","","","","",""
"image-keyboard-response","139","366570","0.0-3.0-6.0-1.0-0.1","5ecc1798e3ca777cfb37b0f5","6662009ae78f21dd82fcd179","66620a547f69f5f09072147d","4200","","f","","","","","","","","./tasks/HMM-beads/Images/NewTrialBC.png","lowH","1","1","1","1","0","0","false","",""
"image-keyboard-response","140","366887","0.0-3.0-6.0-1.0-1.1","5ecc1798e3ca777cfb37b0f5","6662009ae78f21dd82fcd179","66620a547f69f5f09072147d","null","","null","","","","","","","","./tasks/HMM-beads/Images/BlackBeadChoice.png","","","","","","","","","",""
"image-keyboard-response","141","367397","0.0-3.0-6.0-1.0-2.1","5ecc1798e3ca777cfb37b0f5","6662009ae78f21dd82fcd179","66620a547f69f5f09072147d","null","","null","","","","","","","","./tasks/HMM-beads/Images/BlackBeadChoiceWrong.png","","","","","","","","","",""
"image-keyboard-response","142","368083","0.0-3.0-6.0-1.0-0.2","5ecc1798e3ca777cfb37b0f5","6662009ae78f21dd82fcd179","66620a547f69f5f09072147d","683","","j","","","","","","","","./tasks/HMM-beads/Images/NewTrialWC.png","lowH","1","2","1","1","1","1","true","",""
"image-keyboard-response","143","368386","0.0-3.0-6.0-1.0-1.2","5ecc1798e3ca777cfb37b0f5","6662009ae78f21dd82fcd179","66620a547f69f5f09072147d","null","","null","","","","","","","","./tasks/HMM-beads/Images/WhiteBeadChoice.png","","","","","","","","","",""
"image-keyboard-response","144","368895","0.0-3.0-6.0-1.0-2.2","5ecc1798e3ca777cfb37b0f5","6662009ae78f21dd82fcd179","66620a547f69f5f09072147d","null","","null","","","","","","","","./tasks/HMM-beads/Images/WhiteBeadChoiceCorrect.png","","","","","","","","","",""
"image-keyboard-response","145","369382","0.0-3.0-6.0-1.0-0.3","5ecc1798e3ca777cfb37b0f5","6662009ae78f21dd82fcd179","66620a547f69f5f09072147d","486","","j","","","","","","","","./tasks/HMM-beads/Images/NewTrialWC.png","lowH","1","3","1","1","1","1","true","",""
"image-keyboard-response","146","369686","0.0-3.0-6.0-1.0-1.3","5ecc1798e3ca777cfb37b0f5","6662009ae78f21dd82fcd179","66620a547f69f5f09072147d","null","","null","","","","","","","","./tasks/HMM-beads/Images/WhiteBeadChoice.png","","","","","","","","","",""
"image-keyboard-response","147","370196","0.0-3.0-6.0-1.0-2.3","5ecc1798e3ca777cfb37b0f5","6662009ae78f21dd82fcd179","66620a547f69f5f09072147d","null","","null","","","","","","","","./tasks/HMM-beads/Images/WhiteBeadChoiceCorrect.png","","","","","","","","","",""
"image-keyboard-response","148","371568","0.0-3.0-6.0-1.0-0.4","5ecc1798e3ca777cfb37b0f5","6662009ae78f21dd82fcd179","66620a547f69f5f09072147d","1369","","j","","","","","","","","./tasks/HMM-beads/Images/NewTrialWC.png","lowH","1","4","1","1","1","1","true","",""
"image-keyboard-response","149","371874","0.0-3.0-6.0-1.0-1.4","5ecc1798e3ca777cfb37b0f5","6662009ae78f21dd82fcd179","66620a547f69f5f09072147d","null","","null","","","","","","","","./tasks/HMM-beads/Images/WhiteBeadChoice.png","","","","","","","","","",""
"image-keyboard-response","150","372386","0.0-3.0-6.0-1.0-2.4","5ecc1798e3ca777cfb37b0f5","6662009ae78f21dd82fcd179","66620a547f69f5f09072147d","null","","null","","","","","","","","./tasks/HMM-beads/Images/WhiteBeadChoiceCorrect.png","","","","","","","","","",""
"image-keyboard-response","151","373690","0.0-3.0-6.0-1.0-0.5","5ecc1798e3ca777cfb37b0f5","6662009ae78f21dd82fcd179","66620a547f69f5f09072147d","1302","","j","","","","","","","","./tasks/HMM-beads/Images/NewTrialWC.png","lowH","1","5","1","1","1","1","true","",""
"image-keyboard-response","152","374000","0.0-3.0-6.0-1.0-1.5","5ecc1798e3ca777cfb37b0f5","6662009ae78f21dd82fcd179","66620a547f69f5f09072147d","null","","null","","","","","","","","./tasks/HMM-beads/Images/WhiteBeadChoice.png","","","","","","","","","",""
"image-keyboard-response","153","374511","0.0-3.0-6.0-1.0-2.5","5ecc1798e3ca777cfb37b0f5","6662009ae78f21dd82fcd179","66620a547f69f5f09072147d","null","","null","","","","","","","","./tasks/HMM-beads/Images/WhiteBeadChoiceCorrect.png","","","","","","","","","",""
"image-keyboard-response","154","374927","0.0-3.0-6.0-1.0-0.6","5ecc1798e3ca777cfb37b0f5","6662009ae78f21dd82fcd179","66620a547f69f5f09072147d","414","","j","","","","","","","","./tasks/HMM-beads/Images/NewTrialWC.png","lowH","1","6","1","0","1","1","false","",""
"image-keyboard-response","155","375235","0.0-3.0-6.0-1.0-1.6","5ecc1798e3ca777cfb37b0f5","6662009ae78f21dd82fcd179","66620a547f69f5f09072147d","null","","null","","","","","","","","./tasks/HMM-beads/Images/WhiteBeadChoice.png","","","","","","","","","",""
"image-keyboard-response","156","375741","0.0-3.0-6.0-1.0-2.6","5ecc1798e3ca777cfb37b0f5","6662009ae78f21dd82fcd179","66620a547f69f5f09072147d","null","","null","","","","","","","","./tasks/HMM-beads/Images/WhiteBeadChoiceWrong.png","","","","","","","","","",""
"image-keyboard-response","157","376341","0.0-3.0-6.0-1.0-0.7","5ecc1798e3ca777cfb37b0f5","6662009ae78f21dd82fcd179","66620a547f69f5f09072147d","598","","f","","","","","","","","./tasks/HMM-beads/Images/NewTrialBC.png","lowH","1","7","1","1","0","0","false","",""
"image-keyboard-response","158","376655","0.0-3.0-6.0-1.0-1.7","5ecc1798e3ca777cfb37b0f5","6662009ae78f21dd82fcd179","66620a547f69f5f09072147d","null","","null","","","","","","","","./tasks/HMM-beads/Images/BlackBeadChoice.png","","","","","","","","","",""
"image-keyboard-response","159","377165","0.0-3.0-6.0-1.0-2.7","5ecc1798e3ca777cfb37b0f5","6662009ae78f21dd82fcd179","66620a547f69f5f09072147d","null","","null","","","","","","","","./tasks/HMM-beads/Images/BlackBeadChoiceWrong.png","","","","","","","","","",""
"image-keyboard-response","160","377868","0.0-3.0-6.0-1.0-0.8","5ecc1798e3ca777cfb37b0f5","6662009ae78f21dd82fcd179","66620a547f69f5f09072147d","701","","j","","","","","","","","./tasks/HMM-beads/Images/NewTrialWC.png","lowH","1","8","1","1","1","1","true","",""
"image-keyboard-response","161","378172","0.0-3.0-6.0-1.0-1.8","5ecc1798e3ca777cfb37b0f5","6662009ae78f21dd82fcd179","66620a547f69f5f09072147d","null","","null","","","","","","","","./tasks/HMM-beads/Images/WhiteBeadChoice.png","","","","","","","","","",""
"image-keyboard-response","162","378680","0.0-3.0-6.0-1.0-2.8","5ecc1798e3ca777cfb37b0f5","6662009ae78f21dd82fcd179","66620a547f69f5f09072147d","null","","null","","","","","","","","./tasks/HMM-beads/Images/WhiteBeadChoiceCorrect.png","","","","","","","","","",""
"image-keyboard-response","163","381169","0.0-3.0-6.0-1.0-0.9","5ecc1798e3ca777cfb37b0f5","6662009ae78f21dd82fcd179","66620a547f69f5f09072147d","2486","","j","","","","","","","","./tasks/HMM-beads/Images/NewTrialWC.png","lowH","1","9","1","1","1","1","true","",""
"image-keyboard-response","164","381473","0.0-3.0-6.0-1.0-1.9","5ecc1798e3ca777cfb37b0f5","6662009ae78f21dd82fcd179","66620a547f69f5f09072147d","null","","null","","","","","","","","./tasks/HMM-beads/Images/WhiteBeadChoice.png","","","","","","","","","",""
"image-keyboard-response","165","381987","0.0-3.0-6.0-1.0-2.9","5ecc1798e3ca777cfb37b0f5","6662009ae78f21dd82fcd179","66620a547f69f5f09072147d","null","","null","","","","","","","","./tasks/HMM-beads/Images/WhiteBeadChoiceCorrect.png","","","","","","","","","",""
"image-keyboard-response","166","382884","0.0-3.0-6.0-1.0-0.10","5ecc1798e3ca777cfb37b0f5","6662009ae78f21dd82fcd179","66620a547f69f5f09072147d","894","","f","","","","","","","","./tasks/HMM-beads/Images/NewTrialWC.png","lowH","1","10","1","1","1","0","false","",""
"image-keyboard-response","167","383186","0.0-3.0-6.0-1.0-1.10","5ecc1798e3ca777cfb37b0f5","6662009ae78f21dd82fcd179","66620a547f69f5f09072147d","null","","null","","","","","","","","./tasks/HMM-beads/Images/BlackBeadChoice.png","","","","","","","","","",""
"image-keyboard-response","168","383693","0.0-3.0-6.0-1.0-2.10","5ecc1798e3ca777cfb37b0f5","6662009ae78f21dd82fcd179","66620a547f69f5f09072147d","null","","null","","","","","","","","./tasks/HMM-beads/Images/BlackBeadChoiceWrong.png","","","","","","","","","",""
"image-keyboard-response","169","383988","0.0-3.0-6.0-1.0-0.11","5ecc1798e3ca777cfb37b0f5","6662009ae78f21dd82fcd179","66620a547f69f5f09072147d","292","","j","","","","","","","","./tasks/HMM-beads/Images/NewTrialWC.png","lowH","1","11","1","1","1","1","true","",""
"image-keyboard-response","170","384298","0.0-3.0-6.0-1.0-1.11","5ecc1798e3ca777cfb37b0f5","6662009ae78f21dd82fcd179","66620a547f69f5f09072147d","null","","null","","","","","","","","./tasks/HMM-beads/Images/WhiteBeadChoice.png","","","","","","","","","",""
"image-keyboard-response","171","384809","0.0-3.0-6.0-1.0-2.11","5ecc1798e3ca777cfb37b0f5","6662009ae78f21dd82fcd179","66620a547f69f5f09072147d","null","","null","","","","","","","","./tasks/HMM-beads/Images/WhiteBeadChoiceCorrect.png","","","","","","","","","",""
"image-keyboard-response","172","385369","0.0-3.0-6.0-1.0-0.12","5ecc1798e3ca777cfb37b0f5","6662009ae78f21dd82fcd179","66620a547f69f5f09072147d","559","","j","","","","","","","","./tasks/HMM-beads/Images/NewTrialWC.png","lowH","1","12","1","1","1","1","true","",""
"image-keyboard-response","173","385678","0.0-3.0-6.0-1.0-1.12","5ecc1798e3ca777cfb37b0f5","6662009ae78f21dd82fcd179","66620a547f69f5f09072147d","null","","null","","","","","","","","./tasks/HMM-beads/Images/WhiteBeadChoice.png","","","","","","","","","",""
"image-keyboard-response","174","386185","0.0-3.0-6.0-1.0-2.12","5ecc1798e3ca777cfb37b0f5","6662009ae78f21dd82fcd179","66620a547f69f5f09072147d","null","","null","","","","","","","","./tasks/HMM-beads/Images/WhiteBeadChoiceCorrect.png","","","","","","","","","",""
"image-keyboard-response","175","387124","0.0-3.0-6.0-1.0-0.13","5ecc1798e3ca777cfb37b0f5","6662009ae78f21dd82fcd179","66620a547f69f5f09072147d","938","","j","","","","","","","","./tasks/HMM-beads/Images/NewTrialWC.png","lowH","1","13","1","0","1","1","false","",""
"image-keyboard-response","176","387428","0.0-3.0-6.0-1.0-1.13","5ecc1798e3ca777cfb37b0f5","6662009ae78f21dd82fcd179","66620a547f69f5f09072147d","null","","null","","","","","","","","./tasks/HMM-beads/Images/WhiteBeadChoice.png","","","","","","","","","",""
"image-keyboard-response","177","387937","0.0-3.0-6.0-1.0-2.13","5ecc1798e3ca777cfb37b0f5","6662009ae78f21dd82fcd179","66620a547f69f5f09072147d","null","","null","","","","","","","","./tasks/HMM-beads/Images/WhiteBeadChoiceWrong.png","","","","","","","","","",""
"image-keyboard-response","178","391252","0.0-3.0-6.0-1.0-0.14","5ecc1798e3ca777cfb37b0f5","6662009ae78f21dd82fcd179","66620a547f69f5f09072147d","3313","","j","","","","","","","","./tasks/HMM-beads/Images/NewTrialBC.png","lowH","1","14","1","0","0","1","false","",""
"image-keyboard-response","179","391554","0.0-3.0-6.0-1.0-1.14","5ecc1798e3ca777cfb37b0f5","6662009ae78f21dd82fcd179","66620a547f69f5f09072147d","null","","null","","","","","","","","./tasks/HMM-beads/Images/WhiteBeadChoice.png","","","","","","","","","",""
"image-keyboard-response","180","392068","0.0-3.0-6.0-1.0-2.14","5ecc1798e3ca777cfb37b0f5","6662009ae78f21dd82fcd179","66620a547f69f5f09072147d","null","","null","","","","","","","","./tasks/HMM-beads/Images/WhiteBeadChoiceWrong.png","","","","","","","","","",""
"image-keyboard-response","181","393319","0.0-3.0-6.0-1.0-0.15","5ecc1798e3ca777cfb37b0f5","6662009ae78f21dd82fcd179","66620a547f69f5f09072147d","1249","","j","","","","","","","","./tasks/HMM-beads/Images/NewTrialBC.png","lowH","1","15","1","1","0","1","true","",""
"image-keyboard-response","182","393630","0.0-3.0-6.0-1.0-1.15","5ecc1798e3ca777cfb37b0f5","6662009ae78f21dd82fcd179","66620a547f69f5f09072147d","null","","null","","","","","","","","./tasks/HMM-beads/Images/WhiteBeadChoice.png","","","","","","","","","",""
"image-keyboard-response","183","394141","0.0-3.0-6.0-1.0-2.15","5ecc1798e3ca777cfb37b0f5","6662009ae78f21dd82fcd179","66620a547f69f5f09072147d","null","","null","","","","","","","","./tasks/HMM-beads/Images/WhiteBeadChoiceCorrect.png","","","","","","","","","",""
"image-keyboard-response","184","395369","0.0-3.0-6.0-1.0-0.16","5ecc1798e3ca777cfb37b0f5","6662009ae78f21dd82fcd179","66620a547f69f5f09072147d","1225","","j","","","","","","","","./tasks/HMM-beads/Images/NewTrialWC.png","lowH","1","16","1","1","1","1","true","",""
"image-keyboard-response","185","395682","0.0-3.0-6.0-1.0-1.16","5ecc1798e3ca777cfb37b0f5","6662009ae78f21dd82fcd179","66620a547f69f5f09072147d","null","","null","","","","","","","","./tasks/HMM-beads/Images/WhiteBeadChoice.png","","","","","","","","","",""
"image-keyboard-response","186","396193","0.0-3.0-6.0-1.0-2.16","5ecc1798e3ca777cfb37b0f5","6662009ae78f21dd82fcd179","66620a547f69f5f09072147d","null","","null","","","","","","","","./tasks/HMM-beads/Images/WhiteBeadChoiceCorrect.png","","","","","","","","","",""
"image-keyboard-response","187","396560","0.0-3.0-6.0-1.0-0.17","5ecc1798e3ca777cfb37b0f5","6662009ae78f21dd82fcd179","66620a547f69f5f09072147d","364","","j","","","","","","","","./tasks/HMM-beads/Images/NewTrialWC.png","lowH","1","17","1","1","1","1","true","",""
"image-keyboard-response","188","396874","0.0-3.0-6.0-1.0-1.17","5ecc1798e3ca777cfb37b0f5","6662009ae78f21dd82fcd179","66620a547f69f5f09072147d","null","","null","","","","","","","","./tasks/HMM-beads/Images/WhiteBeadChoice.png","","","","","","","","","",""
"image-keyboard-response","189","397389","0.0-3.0-6.0-1.0-2.17","5ecc1798e3ca777cfb37b0f5","6662009ae78f21dd82fcd179","66620a547f69f5f09072147d","null","","null","","","","","","","","./tasks/HMM-beads/Images/WhiteBeadChoiceCorrect.png","","","","","","","","","",""
"image-keyboard-response","190","397727","0.0-3.0-6.0-1.0-0.18","5ecc1798e3ca777cfb37b0f5","6662009ae78f21dd82fcd179","66620a547f69f5f09072147d","337","","j","","","","","","","","./tasks/HMM-beads/Images/NewTrialWC.png","lowH","1","18","1","1","1","1","true","",""
"image-keyboard-response","191","398039","0.0-3.0-6.0-1.0-1.18","5ecc1798e3ca777cfb37b0f5","6662009ae78f21dd82fcd179","66620a547f69f5f09072147d","null","","null","","","","","","","","./tasks/HMM-beads/Images/WhiteBeadChoice.png","","","","","","","","","",""
"image-keyboard-response","192","398551","0.0-3.0-6.0-1.0-2.18","5ecc1798e3ca777cfb37b0f5","6662009ae78f21dd82fcd179","66620a547f69f5f09072147d","null","","null","","","","","","","","./tasks/HMM-beads/Images/WhiteBeadChoiceCorrect.png","","","","","","","","","",""
"image-keyboard-response","193","400024","0.0-3.0-6.0-1.0-0.19","5ecc1798e3ca777cfb37b0f5","6662009ae78f21dd82fcd179","66620a547f69f5f09072147d","1470","","j","","","","","","","","./tasks/HMM-beads/Images/NewTrialWC.png","lowH","1","19","1","1","1","1","true","",""
"image-keyboard-response","194","400336","0.0-3.0-6.0-1.0-1.19","5ecc1798e3ca777cfb37b0f5","6662009ae78f21dd82fcd179","66620a547f69f5f09072147d","null","","null","","","","","","","","./tasks/HMM-beads/Images/WhiteBeadChoice.png","","","","","","","","","",""
"image-keyboard-response","195","400848","0.0-3.0-6.0-1.0-2.19","5ecc1798e3ca777cfb37b0f5","6662009ae78f21dd82fcd179","66620a547f69f5f09072147d","null","","null","","","","","","","","./tasks/HMM-beads/Images/WhiteBeadChoiceCorrect.png","","","","","","","","","",""
"image-keyboard-response","196","401572","0.0-3.0-6.0-1.0-0.20","5ecc1798e3ca777cfb37b0f5","6662009ae78f21dd82fcd179","66620a547f69f5f09072147d","722","","j","","","","","","","","./tasks/HMM-beads/Images/NewTrialWC.png","lowH","1","20","1","1","1","1","true","",""
"image-keyboard-response","197","401876","0.0-3.0-6.0-1.0-1.20","5ecc1798e3ca777cfb37b0f5","6662009ae78f21dd82fcd179","66620a547f69f5f09072147d","null","","null","","","","","","","","./tasks/HMM-beads/Images/WhiteBeadChoice.png","","","","","","","","","",""
"image-keyboard-response","198","402392","0.0-3.0-6.0-1.0-2.20","5ecc1798e3ca777cfb37b0f5","6662009ae78f21dd82fcd179","66620a547f69f5f09072147d","null","","null","","","","","","","","./tasks/HMM-beads/Images/WhiteBeadChoiceCorrect.png","","","","","","","","","",""
"image-keyboard-response","199","403408","0.0-3.0-6.0-1.0-0.21","5ecc1798e3ca777cfb37b0f5","6662009ae78f21dd82fcd179","66620a547f69f5f09072147d","1014","","f","","","","","","","","./tasks/HMM-beads/Images/NewTrialWC.png","lowH","1","21","1","1","1","0","false","",""
"image-keyboard-response","200","403721","0.0-3.0-6.0-1.0-1.21","5ecc1798e3ca777cfb37b0f5","6662009ae78f21dd82fcd179","66620a547f69f5f09072147d","null","","null","","","","","","","","./tasks/HMM-beads/Images/BlackBeadChoice.png","","","","","","","","","",""
"image-keyboard-response","201","404233","0.0-3.0-6.0-1.0-2.21","5ecc1798e3ca777cfb37b0f5","6662009ae78f21dd82fcd179","66620a547f69f5f09072147d","null","","null","","","","","","","","./tasks/HMM-beads/Images/BlackBeadChoiceWrong.png","","","","","","","","","",""
"image-keyboard-response","202","406138","0.0-3.0-6.0-1.0-0.22","5ecc1798e3ca777cfb37b0f5","6662009ae78f21dd82fcd179","66620a547f69f5f09072147d","1904","","j","","","","","","","","./tasks/HMM-beads/Images/NewTrialWC.png","lowH","1","22","1","1","1","1","true","",""
"image-keyboard-response","203","406454","0.0-3.0-6.0-1.0-1.22","5ecc1798e3ca777cfb37b0f5","6662009ae78f21dd82fcd179","66620a547f69f5f09072147d","null","","null","","","","","","","","./tasks/HMM-beads/Images/WhiteBeadChoice.png","","","","","","","","","",""
"image-keyboard-response","204","406967","0.0-3.0-6.0-1.0-2.22","5ecc1798e3ca777cfb37b0f5","6662009ae78f21dd82fcd179","66620a547f69f5f09072147d","null","","null","","","","","","","","./tasks/HMM-beads/Images/WhiteBeadChoiceCorrect.png","","","","","","","","","",""
"image-keyboard-response","205","407644","0.0-3.0-6.0-1.0-0.23","5ecc1798e3ca777cfb37b0f5","6662009ae78f21dd82fcd179","66620a547f69f5f09072147d","675","","j","","","","","","","","./tasks/HMM-beads/Images/NewTrialWC.png","lowH","1","23","1","1","1","1","true","",""
"image-keyboard-response","206","407961","0.0-3.0-6.0-1.0-1.23","5ecc1798e3ca777cfb37b0f5","6662009ae78f21dd82fcd179","66620a547f69f5f09072147d","null","","null","","","","","","","","./tasks/HMM-beads/Images/WhiteBeadChoice.png","","","","","","","","","",""
"image-keyboard-response","207","408474","0.0-3.0-6.0-1.0-2.23","5ecc1798e3ca777cfb37b0f5","6662009ae78f21dd82fcd179","66620a547f69f5f09072147d","null","","null","","","","","","","","./tasks/HMM-beads/Images/WhiteBeadChoiceCorrect.png","","","","","","","","","",""
"image-keyboard-response","208","409746","0.0-3.0-6.0-1.0-0.24","5ecc1798e3ca777cfb37b0f5","6662009ae78f21dd82fcd179","66620a547f69f5f09072147d","1270","","j","","","","","","","","./tasks/HMM-beads/Images/NewTrialWC.png","lowH","1","24","1","0","1","1","false","",""
"image-keyboard-response","209","410053","0.0-3.0-6.0-1.0-1.24","5ecc1798e3ca777cfb37b0f5","6662009ae78f21dd82fcd179","66620a547f69f5f09072147d","null","","null","","","","","","","","./tasks/HMM-beads/Images/WhiteBeadChoice.png","","","","","","","","","",""
"image-keyboard-response","210","410564","0.0-3.0-6.0-1.0-2.24","5ecc1798e3ca777cfb37b0f5","6662009ae78f21dd82fcd179","66620a547f69f5f09072147d","null","","null","","","","","","","","./tasks/HMM-beads/Images/WhiteBeadChoiceWrong.png","","","","","","","","","",""
"image-keyboard-response","211","412064","0.0-3.0-6.0-1.0-0.25","5ecc1798e3ca777cfb37b0f5","6662009ae78f21dd82fcd179","66620a547f69f5f09072147d","1499","","j","","","","","","","","./tasks/HMM-beads/Images/NewTrialBC.png","lowH","1","25","1","1","0","1","true","",""
"image-keyboard-response","212","412374","0.0-3.0-6.0-1.0-1.25","5ecc1798e3ca777cfb37b0f5","6662009ae78f21dd82fcd179","66620a547f69f5f09072147d","null","","null","","","","","","","","./tasks/HMM-beads/Images/WhiteBeadChoice.png","","","","","","","","","",""
"image-keyboard-response","213","412884","0.0-3.0-6.0-1.0-2.25","5ecc1798e3ca777cfb37b0f5","6662009ae78f21dd82fcd179","66620a547f69f5f09072147d","null","","null","","","","","","","","./tasks/HMM-beads/Images/WhiteBeadChoiceCorrect.png","","","","","","","","","",""
"image-keyboard-response","214","413225","0.0-3.0-6.0-1.0-0.26","5ecc1798e3ca777cfb37b0f5","6662009ae78f21dd82fcd179","66620a547f69f5f09072147d","339","","f","","","","","","","","./tasks/HMM-beads/Images/NewTrialWC.png","lowH","1","26","1","0","1","0","true","",""
"image-keyboard-response","215","413526","0.0-3.0-6.0-1.0-1.26","5ecc1798e3ca777cfb37b0f5","6662009ae78f21dd82fcd179","66620a547f69f5f09072147d","null","","null","","","","","","","","./tasks/HMM-beads/Images/BlackBeadChoice.png","","","","","","","","","",""
"image-keyboard-response","216","414030","0.0-3.0-6.0-1.0-2.26","5ecc1798e3ca777cfb37b0f5","6662009ae78f21dd82fcd179","66620a547f69f5f09072147d","null","","null","","","","","","","","./tasks/HMM-beads/Images/BlackBeadChoiceCorrect.png","","","","","","","","","",""
"image-keyboard-response","217","415008","0.0-3.0-6.0-1.0-0.27","5ecc1798e3ca777cfb37b0f5","6662009ae78f21dd82fcd179","66620a547f69f5f09072147d","976","","j","","","","","","","","./tasks/HMM-beads/Images/NewTrialBC.png","lowH","1","27","1","1","0","1","true","",""
"image-keyboard-response","218","415317","0.0-3.0-6.0-1.0-1.27","5ecc1798e3ca777cfb37b0f5","6662009ae78f21dd82fcd179","66620a547f69f5f09072147d","null","","null","","","","","","","","./tasks/HMM-beads/Images/WhiteBeadChoice.png","","","","","","","","","",""
"image-keyboard-response","219","415829","0.0-3.0-6.0-1.0-2.27","5ecc1798e3ca777cfb37b0f5","6662009ae78f21dd82fcd179","66620a547f69f5f09072147d","null","","null","","","","","","","","./tasks/HMM-beads/Images/WhiteBeadChoiceCorrect.png","","","","","","","","","",""
"image-keyboard-response","220","415952","0.0-3.0-6.0-1.0-0.28","5ecc1798e3ca777cfb37b0f5","6662009ae78f21dd82fcd179","66620a547f69f5f09072147d","121","","j","","","","","","","","./tasks/HMM-beads/Images/NewTrialWC.png","lowH","1","28","1","1","1","1","true","",""
"image-keyboard-response","221","416263","0.0-3.0-6.0-1.0-1.28","5ecc1798e3ca777cfb37b0f5","6662009ae78f21dd82fcd179","66620a547f69f5f09072147d","null","","null","","","","","","","","./tasks/HMM-beads/Images/WhiteBeadChoice.png","","","","","","","","","",""
"image-keyboard-response","222","416775","0.0-3.0-6.0-1.0-2.28","5ecc1798e3ca777cfb37b0f5","6662009ae78f21dd82fcd179","66620a547f69f5f09072147d","null","","null","","","","","","","","./tasks/HMM-beads/Images/WhiteBeadChoiceCorrect.png","","","","","","","","","",""
"image-keyboard-response","223","416943","0.0-3.0-6.0-1.0-0.29","5ecc1798e3ca777cfb37b0f5","6662009ae78f21dd82fcd179","66620a547f69f5f09072147d","165","","j","","","","","","","","./tasks/HMM-beads/Images/NewTrialWC.png","lowH","1","29","1","1","1","1","true","",""
"image-keyboard-response","224","417258","0.0-3.0-6.0-1.0-1.29","5ecc1798e3ca777cfb37b0f5","6662009ae78f21dd82fcd179","66620a547f69f5f09072147d","null","","null","","","","","","","","./tasks/HMM-beads/Images/WhiteBeadChoice.png","","","","","","","","","",""
"image-keyboard-response","225","417768","0.0-3.0-6.0-1.0-2.29","5ecc1798e3ca777cfb37b0f5","6662009ae78f21dd82fcd179","66620a547f69f5f09072147d","null","","null","","","","","","","","./tasks/HMM-beads/Images/WhiteBeadChoiceCorrect.png","","","","","","","","","",""
"image-keyboard-response","226","418038","0.0-3.0-6.0-1.0-0.30","5ecc1798e3ca777cfb37b0f5","6662009ae78f21dd82fcd179","66620a547f69f5f09072147d","267","","j","","","","","","","","./tasks/HMM-beads/Images/NewTrialWC.png","lowH","1","30","1","1","1","1","true","",""
"image-keyboard-response","227","418341","0.0-3.0-6.0-1.0-1.30","5ecc1798e3ca777cfb37b0f5","6662009ae78f21dd82fcd179","66620a547f69f5f09072147d","null","","null","","","","","","","","./tasks/HMM-beads/Images/WhiteBeadChoice.png","","","","","","","","","",""
"image-keyboard-response","228","418849","0.0-3.0-6.0-1.0-2.30","5ecc1798e3ca777cfb37b0f5","6662009ae78f21dd82fcd179","66620a547f69f5f09072147d","null","","null","","","","","","","","./tasks/HMM-beads/Images/WhiteBeadChoiceCorrect.png","","","","","","","","","",""
"image-keyboard-response","229","420648","0.0-3.0-6.0-1.0-0.31","5ecc1798e3ca777cfb37b0f5","6662009ae78f21dd82fcd179","66620a547f69f5f09072147d","1798","","j","","","","","","","","./tasks/HMM-beads/Images/NewTrialWC.png","lowH","1","31","1","1","1","1","true","",""
"image-keyboard-response","230","420955","0.0-3.0-6.0-1.0-1.31","5ecc1798e3ca777cfb37b0f5","6662009ae78f21dd82fcd179","66620a547f69f5f09072147d","null","","null","","","","","","","","./tasks/HMM-beads/Images/WhiteBeadChoice.png","","","","","","","","","",""
"image-keyboard-response","231","421459","0.0-3.0-6.0-1.0-2.31","5ecc1798e3ca777cfb37b0f5","6662009ae78f21dd82fcd179","66620a547f69f5f09072147d","null","","null","","","","","","","","./tasks/HMM-beads/Images/WhiteBeadChoiceCorrect.png","","","","","","","","","",""
"image-keyboard-response","232","422678","0.0-3.0-6.0-1.0-0.32","5ecc1798e3ca777cfb37b0f5","6662009ae78f21dd82fcd179","66620a547f69f5f09072147d","1219","","j","","","","","","","","./tasks/HMM-beads/Images/NewTrialWC.png","lowH","1","32","1","1","1","1","true","",""
"image-keyboard-response","233","422992","0.0-3.0-6.0-1.0-1.32","5ecc1798e3ca777cfb37b0f5","6662009ae78f21dd82fcd179","66620a547f69f5f09072147d","null","","null","","","","","","","","./tasks/HMM-beads/Images/WhiteBeadChoice.png","","","","","","","","","",""
"image-keyboard-response","234","423502","0.0-3.0-6.0-1.0-2.32","5ecc1798e3ca777cfb37b0f5","6662009ae78f21dd82fcd179","66620a547f69f5f09072147d","null","","null","","","","","","","","./tasks/HMM-beads/Images/WhiteBeadChoiceCorrect.png","","","","","","","","","",""
"image-keyboard-response","235","424038","0.0-3.0-6.0-1.0-0.33","5ecc1798e3ca777cfb37b0f5","6662009ae78f21dd82fcd179","66620a547f69f5f09072147d","533","","j","","","","","","","","./tasks/HMM-beads/Images/NewTrialWC.png","lowH","1","33","1","1","1","1","true","",""
"image-keyboard-response","236","424339","0.0-3.0-6.0-1.0-1.33","5ecc1798e3ca777cfb37b0f5","6662009ae78f21dd82fcd179","66620a547f69f5f09072147d","null","","null","","","","","","","","./tasks/HMM-beads/Images/WhiteBeadChoice.png","","","","","","","","","",""
"image-keyboard-response","237","424853","0.0-3.0-6.0-1.0-2.33","5ecc1798e3ca777cfb37b0f5","6662009ae78f21dd82fcd179","66620a547f69f5f09072147d","null","","null","","","","","","","","./tasks/HMM-beads/Images/WhiteBeadChoiceCorrect.png","","","","","","","","","",""
"image-keyboard-response","238","425430","0.0-3.0-6.0-1.0-0.34","5ecc1798e3ca777cfb37b0f5","6662009ae78f21dd82fcd179","66620a547f69f5f09072147d","577","","f","","","","","","","","./tasks/HMM-beads/Images/NewTrialWC.png","lowH","1","34","1","1","1","0","false","",""
"image-keyboard-response","239","425742","0.0-3.0-6.0-1.0-1.34","5ecc1798e3ca777cfb37b0f5","6662009ae78f21dd82fcd179","66620a547f69f5f09072147d","null","","null","","","","","","","","./tasks/HMM-beads/Images/BlackBeadChoice.png","","","","","","","","","",""
"image-keyboard-response","240","426255","0.0-3.0-6.0-1.0-2.34","5ecc1798e3ca777cfb37b0f5","6662009ae78f21dd82fcd179","66620a547f69f5f09072147d","null","","null","","","","","","","","./tasks/HMM-beads/Images/BlackBeadChoiceWrong.png","","","","","","","","","",""
"image-keyboard-response","241","428122","0.0-3.0-6.0-1.0-0.35","5ecc1798e3ca777cfb37b0f5","6662009ae78f21dd82fcd179","66620a547f69f5f09072147d","1864","","j","","","","","","","","./tasks/HMM-beads/Images/NewTrialWC.png","lowH","1","35","1","1","1","1","true","",""
"image-keyboard-response","242","428423","0.0-3.0-6.0-1.0-1.35","5ecc1798e3ca777cfb37b0f5","6662009ae78f21dd82fcd179","66620a547f69f5f09072147d","null","","null","","","","","","","","./tasks/HMM-beads/Images/WhiteBeadChoice.png","","","","","","","","","",""
"image-keyboard-response","243","428932","0.0-3.0-6.0-1.0-2.35","5ecc1798e3ca777cfb37b0f5","6662009ae78f21dd82fcd179","66620a547f69f5f09072147d","null","","null","","","","","","","","./tasks/HMM-beads/Images/WhiteBeadChoiceCorrect.png","","","","","","","","","",""
"image-keyboard-response","244","434457","0.0-3.0-6.0-1.0-0.36","5ecc1798e3ca777cfb37b0f5","6662009ae78f21dd82fcd179","66620a547f69f5f09072147d","5524","","j","","","","","","","","./tasks/HMM-beads/Images/NewTrialWC.png","lowH","1","36","1","1","1","1","true","",""
"image-keyboard-response","245","434760","0.0-3.0-6.0-1.0-1.36","5ecc1798e3ca777cfb37b0f5","6662009ae78f21dd82fcd179","66620a547f69f5f09072147d","null","","null","","","","","","","","./tasks/HMM-beads/Images/WhiteBeadChoice.png","","","","","","","","","",""
"image-keyboard-response","246","435274","0.0-3.0-6.0-1.0-2.36","5ecc1798e3ca777cfb37b0f5","6662009ae78f21dd82fcd179","66620a547f69f5f09072147d","null","","null","","","","","","","","./tasks/HMM-beads/Images/WhiteBeadChoiceCorrect.png","","","","","","","","","",""
"image-keyboard-response","247","436072","0.0-3.0-6.0-1.0-0.37","5ecc1798e3ca777cfb37b0f5","6662009ae78f21dd82fcd179","66620a547f69f5f09072147d","797","","j","","","","","","","","./tasks/HMM-beads/Images/NewTrialWC.png","lowH","1","37","1","1","1","1","true","",""
"image-keyboard-response","248","436387","0.0-3.0-6.0-1.0-1.37","5ecc1798e3ca777cfb37b0f5","6662009ae78f21dd82fcd179","66620a547f69f5f09072147d","null","","null","","","","","","","","./tasks/HMM-beads/Images/WhiteBeadChoice.png","","","","","","","","","",""
"image-keyboard-response","249","436900","0.0-3.0-6.0-1.0-2.37","5ecc1798e3ca777cfb37b0f5","6662009ae78f21dd82fcd179","66620a547f69f5f09072147d","null","","null","","","","","","","","./tasks/HMM-beads/Images/WhiteBeadChoiceCorrect.png","","","","","","","","","",""
"image-keyboard-response","250","437004","0.0-3.0-6.0-1.0-0.38","5ecc1798e3ca777cfb37b0f5","6662009ae78f21dd82fcd179","66620a547f69f5f09072147d","103","","j","","","","","","","","./tasks/HMM-beads/Images/NewTrialWC.png","lowH","1","38","1","1","1","1","true","",""
"image-keyboard-response","251","437318","0.0-3.0-6.0-1.0-1.38","5ecc1798e3ca777cfb37b0f5","6662009ae78f21dd82fcd179","66620a547f69f5f09072147d","null","","null","","","","","","","","./tasks/HMM-beads/Images/WhiteBeadChoice.png","","","","","","","","","",""
"image-keyboard-response","252","437828","0.0-3.0-6.0-1.0-2.38","5ecc1798e3ca777cfb37b0f5","6662009ae78f21dd82fcd179","66620a547f69f5f09072147d","null","","null","","","","","","","","./tasks/HMM-beads/Images/WhiteBeadChoiceCorrect.png","","","","","","","","","",""
"image-keyboard-response","253","438137","0.0-3.0-6.0-1.0-0.39","5ecc1798e3ca777cfb37b0f5","6662009ae78f21dd82fcd179","66620a547f69f5f09072147d","309","","j","","","","","","","","./tasks/HMM-beads/Images/NewTrialWC.png","lowH","1","39","1","1","1","1","true","",""
"image-keyboard-response","254","438448","0.0-3.0-6.0-1.0-1.39","5ecc1798e3ca777cfb37b0f5","6662009ae78f21dd82fcd179","66620a547f69f5f09072147d","null","","null","","","","","","","","./tasks/HMM-beads/Images/WhiteBeadChoice.png","","","","","","","","","",""
"image-keyboard-response","255","438960","0.0-3.0-6.0-1.0-2.39","5ecc1798e3ca777cfb37b0f5","6662009ae78f21dd82fcd179","66620a547f69f5f09072147d","null","","null","","","","","","","","./tasks/HMM-beads/Images/WhiteBeadChoiceCorrect.png","","","","","","","","","",""
"image-keyboard-response","256","441477","0.0-3.0-6.0-1.0-0.40","5ecc1798e3ca777cfb37b0f5","6662009ae78f21dd82fcd179","66620a547f69f5f09072147d","2514","","j","","","","","","","","./tasks/HMM-beads/Images/NewTrialWC.png","lowH","1","40","1","1","1","1","true","",""
"image-keyboard-response","257","441793","0.0-3.0-6.0-1.0-1.40","5ecc1798e3ca777cfb37b0f5","6662009ae78f21dd82fcd179","66620a547f69f5f09072147d","null","","null","","","","","","","","./tasks/HMM-beads/Images/WhiteBeadChoice.png","","","","","","","","","",""
"image-keyboard-response","258","442305","0.0-3.0-6.0-1.0-2.40","5ecc1798e3ca777cfb37b0f5","6662009ae78f21dd82fcd179","66620a547f69f5f09072147d","null","","null","","","","","","","","./tasks/HMM-beads/Images/WhiteBeadChoiceCorrect.png","","","","","","","","","",""
"image-keyboard-response","259","442603","0.0-3.0-6.0-1.0-0.41","5ecc1798e3ca777cfb37b0f5","6662009ae78f21dd82fcd179","66620a547f69f5f09072147d","295","","f","","","","","","","","./tasks/HMM-beads/Images/NewTrialWC.png","lowH","1","41","1","1","1","0","false","",""
"image-keyboard-response","260","442909","0.0-3.0-6.0-1.0-1.41","5ecc1798e3ca777cfb37b0f5","6662009ae78f21dd82fcd179","66620a547f69f5f09072147d","null","","null","","","","","","","","./tasks/HMM-beads/Images/BlackBeadChoice.png","","","","","","","","","",""
"image-keyboard-response","261","443422","0.0-3.0-6.0-1.0-2.41","5ecc1798e3ca777cfb37b0f5","6662009ae78f21dd82fcd179","66620a547f69f5f09072147d","null","","null","","","","","","","","./tasks/HMM-beads/Images/BlackBeadChoiceWrong.png","","","","","","","","","",""
"image-keyboard-response","262","443866","0.0-3.0-6.0-1.0-0.42","5ecc1798e3ca777cfb37b0f5","6662009ae78f21dd82fcd179","66620a547f69f5f09072147d","444","","j","","","","","","","","./tasks/HMM-beads/Images/NewTrialWC.png","lowH","1","42","1","1","1","1","true","",""
"image-keyboard-response","263","444183","0.0-3.0-6.0-1.0-1.42","5ecc1798e3ca777cfb37b0f5","6662009ae78f21dd82fcd179","66620a547f69f5f09072147d","null","","null","","","","","","","","./tasks/HMM-beads/Images/WhiteBeadChoice.png","","","","","","","","","",""
"image-keyboard-response","264","444693","0.0-3.0-6.0-1.0-2.42","5ecc1798e3ca777cfb37b0f5","6662009ae78f21dd82fcd179","66620a547f69f5f09072147d","null","","null","","","","","","","","./tasks/HMM-beads/Images/WhiteBeadChoiceCorrect.png","","","","","","","","","",""
"image-keyboard-response","265","444717","0.0-3.0-6.0-1.0-0.43","5ecc1798e3ca777cfb37b0f5","6662009ae78f21dd82fcd179","66620a547f69f5f09072147d","22","","j","","","","","","","","./tasks/HMM-beads/Images/NewTrialWC.png","lowH","1","43","1","1","1","1","true","",""
"image-keyboard-response","266","445019","0.0-3.0-6.0-1.0-1.43","5ecc1798e3ca777cfb37b0f5","6662009ae78f21dd82fcd179","66620a547f69f5f09072147d","null","","null","","","","","","","","./tasks/HMM-beads/Images/WhiteBeadChoice.png","","","","","","","","","",""
"image-keyboard-response","267","445531","0.0-3.0-6.0-1.0-2.43","5ecc1798e3ca777cfb37b0f5","6662009ae78f21dd82fcd179","66620a547f69f5f09072147d","null","","null","","","","","","","","./tasks/HMM-beads/Images/WhiteBeadChoiceCorrect.png","","","","","","","","","",""
"image-keyboard-response","268","445992","0.0-3.0-6.0-1.0-0.44","5ecc1798e3ca777cfb37b0f5","6662009ae78f21dd82fcd179","66620a547f69f5f09072147d","459","","j","","","","","","","","./tasks/HMM-beads/Images/NewTrialWC.png","lowH","1","44","1","1","1","1","true","",""
"image-keyboard-response","269","446307","0.0-3.0-6.0-1.0-1.44","5ecc1798e3ca777cfb37b0f5","6662009ae78f21dd82fcd179","66620a547f69f5f09072147d","null","","null","","","","","","","","./tasks/HMM-beads/Images/WhiteBeadChoice.png","","","","","","","","","",""
"image-keyboard-response","270","446815","0.0-3.0-6.0-1.0-2.44","5ecc1798e3ca777cfb37b0f5","6662009ae78f21dd82fcd179","66620a547f69f5f09072147d","null","","null","","","","","","","","./tasks/HMM-beads/Images/WhiteBeadChoiceCorrect.png","","","","","","","","","",""
"image-keyboard-response","271","447260","0.0-3.0-6.0-1.0-0.45","5ecc1798e3ca777cfb37b0f5","6662009ae78f21dd82fcd179","66620a547f69f5f09072147d","443","","f","","","","","","","","./tasks/HMM-beads/Images/NewTrialWC.png","lowH","1","45","1","1","1","0","false","",""
"image-keyboard-response","272","447569","0.0-3.0-6.0-1.0-1.45","5ecc1798e3ca777cfb37b0f5","6662009ae78f21dd82fcd179","66620a547f69f5f09072147d","null","","null","","","","","","","","./tasks/HMM-beads/Images/BlackBeadChoice.png","","","","","","","","","",""
"image-keyboard-response","273","448082","0.0-3.0-6.0-1.0-2.45","5ecc1798e3ca777cfb37b0f5","6662009ae78f21dd82fcd179","66620a547f69f5f09072147d","null","","null","","","","","","","","./tasks/HMM-beads/Images/BlackBeadChoiceWrong.png","","","","","","","","","",""
"image-keyboard-response","274","448699","0.0-3.0-6.0-1.0-0.46","5ecc1798e3ca777cfb37b0f5","6662009ae78f21dd82fcd179","66620a547f69f5f09072147d","614","","f","","","","","","","","./tasks/HMM-beads/Images/NewTrialWC.png","lowH","1","46","1","1","1","0","false","",""
"image-keyboard-response","275","449012","0.0-3.0-6.0-1.0-1.46","5ecc1798e3ca777cfb37b0f5","6662009ae78f21dd82fcd179","66620a547f69f5f09072147d","null","","null","","","","","","","","./tasks/HMM-beads/Images/BlackBeadChoice.png","","","","","","","","","",""
"image-keyboard-response","276","449521","0.0-3.0-6.0-1.0-2.46","5ecc1798e3ca777cfb37b0f5","6662009ae78f21dd82fcd179","66620a547f69f5f09072147d","null","","null","","","","","","","","./tasks/HMM-beads/Images/BlackBeadChoiceWrong.png","","","","","","","","","",""
"image-keyboard-response","277","449949","0.0-3.0-6.0-1.0-0.47","5ecc1798e3ca777cfb37b0f5","6662009ae78f21dd82fcd179","66620a547f69f5f09072147d","428","","j","","","","","","","","./tasks/HMM-beads/Images/NewTrialWC.png","lowH","1","47","1","0","1","1","false","",""
"image-keyboard-response","278","450263","0.0-3.0-6.0-1.0-1.47","5ecc1798e3ca777cfb37b0f5","6662009ae78f21dd82fcd179","66620a547f69f5f09072147d","null","","null","","","","","","","","./tasks/HMM-beads/Images/WhiteBeadChoice.png","","","","","","","","","",""
"image-keyboard-response","279","450777","0.0-3.0-6.0-1.0-2.47","5ecc1798e3ca777cfb37b0f5","6662009ae78f21dd82fcd179","66620a547f69f5f09072147d","null","","null","","","","","","","","./tasks/HMM-beads/Images/WhiteBeadChoiceWrong.png","","","","","","","","","",""
"image-keyboard-response","280","451851","0.0-3.0-6.0-1.0-0.48","5ecc1798e3ca777cfb37b0f5","6662009ae78f21dd82fcd179","66620a547f69f5f09072147d","1073","","j","","","","","","","","./tasks/HMM-beads/Images/NewTrialBC.png","lowH","1","48","1","0","0","1","false","",""
"image-keyboard-response","281","452158","0.0-3.0-6.0-1.0-1.48","5ecc1798e3ca777cfb37b0f5","6662009ae78f21dd82fcd179","66620a547f69f5f09072147d","null","","null","","","","","","","","./tasks/HMM-beads/Images/WhiteBeadChoice.png","","","","","","","","","",""
"image-keyboard-response","282","452670","0.0-3.0-6.0-1.0-2.48","5ecc1798e3ca777cfb37b0f5","6662009ae78f21dd82fcd179","66620a547f69f5f09072147d","null","","null","","","","","","","","./tasks/HMM-beads/Images/WhiteBeadChoiceWrong.png","","","","","","","","","",""
"image-keyboard-response","283","452942","0.0-3.0-6.0-1.0-0.49","5ecc1798e3ca777cfb37b0f5","6662009ae78f21dd82fcd179","66620a547f69f5f09072147d","270","","f","","","","","","","","./tasks/HMM-beads/Images/NewTrialBC.png","lowH","1","49","1","0","0","0","true","",""
"image-keyboard-response","284","453244","0.0-3.0-6.0-1.0-1.49","5ecc1798e3ca777cfb37b0f5","6662009ae78f21dd82fcd179","66620a547f69f5f09072147d","null","","null","","","","","","","","./tasks/HMM-beads/Images/BlackBeadChoice.png","","","","","","","","","",""
"image-keyboard-response","285","453756","0.0-3.0-6.0-1.0-2.49","5ecc1798e3ca777cfb37b0f5","6662009ae78f21dd82fcd179","66620a547f69f5f09072147d","null","","null","","","","","","","","./tasks/HMM-beads/Images/BlackBeadChoiceCorrect.png","","","","","","","","","",""
"image-keyboard-response","286","454016","0.0-3.0-6.0-1.0-0.50","5ecc1798e3ca777cfb37b0f5","6662009ae78f21dd82fcd179","66620a547f69f5f09072147d","258","","f","","","","","","","","./tasks/HMM-beads/Images/NewTrialBC.png","lowH","1","50","1","1","0","0","false","",""
"image-keyboard-response","287","454328","0.0-3.0-6.0-1.0-1.50","5ecc1798e3ca777cfb37b0f5","6662009ae78f21dd82fcd179","66620a547f69f5f09072147d","null","","null","","","","","","","","./tasks/HMM-beads/Images/BlackBeadChoice.png","","","","","","","","","",""
"image-keyboard-response","288","454839","0.0-3.0-6.0-1.0-2.50","5ecc1798e3ca777cfb37b0f5","6662009ae78f21dd82fcd179","66620a547f69f5f09072147d","null","","null","","","","","","","","./tasks/HMM-beads/Images/BlackBeadChoiceWrong.png","","","","","","","","","",""
"image-keyboard-response","289","455071","0.0-3.0-6.0-1.0-0.51","5ecc1798e3ca777cfb37b0f5","6662009ae78f21dd82fcd179","66620a547f69f5f09072147d","230","","j","","","","","","","","./tasks/HMM-beads/Images/NewTrialWC.png","lowH","1","51","1","1","1","1","true","",""
"image-keyboard-response","290","455383","0.0-3.0-6.0-1.0-1.51","5ecc1798e3ca777cfb37b0f5","6662009ae78f21dd82fcd179","66620a547f69f5f09072147d","null","","null","","","","","","","","./tasks/HMM-beads/Images/WhiteBeadChoice.png","","","","","","","","","",""
"image-keyboard-response","291","455895","0.0-3.0-6.0-1.0-2.51","5ecc1798e3ca777cfb37b0f5","6662009ae78f21dd82fcd179","66620a547f69f5f09072147d","null","","null","","","","","","","","./tasks/HMM-beads/Images/WhiteBeadChoiceCorrect.png","","","","","","","","","",""
"image-keyboard-response","292","456750","0.0-3.0-6.0-1.0-0.52","5ecc1798e3ca777cfb37b0f5","6662009ae78f21dd82fcd179","66620a547f69f5f09072147d","853","","j","","","","","","","","./tasks/HMM-beads/Images/NewTrialWC.png","lowH","1","52","1","1","1","1","true","",""
"image-keyboard-response","293","457058","0.0-3.0-6.0-1.0-1.52","5ecc1798e3ca777cfb37b0f5","6662009ae78f21dd82fcd179","66620a547f69f5f09072147d","null","","null","","","","","","","","./tasks/HMM-beads/Images/WhiteBeadChoice.png","","","","","","","","","",""
"image-keyboard-response","294","457569","0.0-3.0-6.0-1.0-2.52","5ecc1798e3ca777cfb37b0f5","6662009ae78f21dd82fcd179","66620a547f69f5f09072147d","null","","null","","","","","","","","./tasks/HMM-beads/Images/WhiteBeadChoiceCorrect.png","","","","","","","","","",""
"image-keyboard-response","295","458650","0.0-3.0-6.0-1.0-0.53","5ecc1798e3ca777cfb37b0f5","6662009ae78f21dd82fcd179","66620a547f69f5f09072147d","1079","","j","","","","","","","","./tasks/HMM-beads/Images/NewTrialWC.png","lowH","1","53","1","1","1","1","true","",""
"image-keyboard-response","296","458963","0.0-3.0-6.0-1.0-1.53","5ecc1798e3ca777cfb37b0f5","6662009ae78f21dd82fcd179","66620a547f69f5f09072147d","null","","null","","","","","","","","./tasks/HMM-beads/Images/WhiteBeadChoice.png","","","","","","","","","",""
"image-keyboard-response","297","459474","0.0-3.0-6.0-1.0-2.53","5ecc1798e3ca777cfb37b0f5","6662009ae78f21dd82fcd179","66620a547f69f5f09072147d","null","","null","","","","","","","","./tasks/HMM-beads/Images/WhiteBeadChoiceCorrect.png","","","","","","","","","",""
"image-keyboard-response","298","459926","0.0-3.0-6.0-1.0-0.54","5ecc1798e3ca777cfb37b0f5","6662009ae78f21dd82fcd179","66620a547f69f5f09072147d","450","","j","","","","","","","","./tasks/HMM-beads/Images/NewTrialWC.png","lowH","1","54","1","1","1","1","true","",""
"image-keyboard-response","299","460236","0.0-3.0-6.0-1.0-1.54","5ecc1798e3ca777cfb37b0f5","6662009ae78f21dd82fcd179","66620a547f69f5f09072147d","null","","null","","","","","","","","./tasks/HMM-beads/Images/WhiteBeadChoice.png","","","","","","","","","",""
"image-keyboard-response","300","460746","0.0-3.0-6.0-1.0-2.54","5ecc1798e3ca777cfb37b0f5","6662009ae78f21dd82fcd179","66620a547f69f5f09072147d","null","","null","","","","","","","","./tasks/HMM-beads/Images/WhiteBeadChoiceCorrect.png","","","","","","","","","",""
"image-keyboard-response","301","460915","0.0-3.0-6.0-1.0-0.55","5ecc1798e3ca777cfb37b0f5","6662009ae78f21dd82fcd179","66620a547f69f5f09072147d","165","","j","","","","","","","","./tasks/HMM-beads/Images/NewTrialWC.png","lowH","1","55","1","1","1","1","true","",""
"image-keyboard-response","302","461227","0.0-3.0-6.0-1.0-1.55","5ecc1798e3ca777cfb37b0f5","6662009ae78f21dd82fcd179","66620a547f69f5f09072147d","null","","null","","","","","","","","./tasks/HMM-beads/Images/WhiteBeadChoice.png","","","","","","","","","",""
"image-keyboard-response","303","461740","0.0-3.0-6.0-1.0-2.55","5ecc1798e3ca777cfb37b0f5","6662009ae78f21dd82fcd179","66620a547f69f5f09072147d","null","","null","","","","","","","","./tasks/HMM-beads/Images/WhiteBeadChoiceCorrect.png","","","","","","","","","",""
"image-keyboard-response","304","462087","0.0-3.0-6.0-1.0-0.56","5ecc1798e3ca777cfb37b0f5","6662009ae78f21dd82fcd179","66620a547f69f5f09072147d","346","","j","","","","","","","","./tasks/HMM-beads/Images/NewTrialWC.png","lowH","1","56","1","1","1","1","true","",""
"image-keyboard-response","305","462402","0.0-3.0-6.0-1.0-1.56","5ecc1798e3ca777cfb37b0f5","6662009ae78f21dd82fcd179","66620a547f69f5f09072147d","null","","null","","","","","","","","./tasks/HMM-beads/Images/WhiteBeadChoice.png","","","","","","","","","",""
"image-keyboard-response","306","462916","0.0-3.0-6.0-1.0-2.56","5ecc1798e3ca777cfb37b0f5","6662009ae78f21dd82fcd179","66620a547f69f5f09072147d","null","","null","","","","","","","","./tasks/HMM-beads/Images/WhiteBeadChoiceCorrect.png","","","","","","","","","",""
"image-keyboard-response","307","463245","0.0-3.0-6.0-1.0-0.57","5ecc1798e3ca777cfb37b0f5","6662009ae78f21dd82fcd179","66620a547f69f5f09072147d","326","","j","","","","","","","","./tasks/HMM-beads/Images/NewTrialWC.png","lowH","1","57","1","1","1","1","true","",""
"image-keyboard-response","308","463548","0.0-3.0-6.0-1.0-1.57","5ecc1798e3ca777cfb37b0f5","6662009ae78f21dd82fcd179","66620a547f69f5f09072147d","null","","null","","","","","","","","./tasks/HMM-beads/Images/WhiteBeadChoice.png","","","","","","","","","",""
"image-keyboard-response","309","464062","0.0-3.0-6.0-1.0-2.57","5ecc1798e3ca777cfb37b0f5","6662009ae78f21dd82fcd179","66620a547f69f5f09072147d","null","","null","","","","","","","","./tasks/HMM-beads/Images/WhiteBeadChoiceCorrect.png","","","","","","","","","",""
"image-keyboard-response","310","464800","0.0-3.0-6.0-1.0-0.58","5ecc1798e3ca777cfb37b0f5","6662009ae78f21dd82fcd179","66620a547f69f5f09072147d","735","","f","","","","","","","","./tasks/HMM-beads/Images/NewTrialWC.png","lowH","1","58","1","1","1","0","false","",""
"image-keyboard-response","311","465117","0.0-3.0-6.0-1.0-1.58","5ecc1798e3ca777cfb37b0f5","6662009ae78f21dd82fcd179","66620a547f69f5f09072147d","null","","null","","","","","","","","./tasks/HMM-beads/Images/BlackBeadChoice.png","","","","","","","","","",""
"image-keyboard-response","312","465628","0.0-3.0-6.0-1.0-2.58","5ecc1798e3ca777cfb37b0f5","6662009ae78f21dd82fcd179","66620a547f69f5f09072147d","null","","null","","","","","","","","./tasks/HMM-beads/Images/BlackBeadChoiceWrong.png","","","","","","","","","",""
"image-keyboard-response","313","465945","0.0-3.0-6.0-1.0-0.59","5ecc1798e3ca777cfb37b0f5","6662009ae78f21dd82fcd179","66620a547f69f5f09072147d","314","","j","","","","","","","","./tasks/HMM-beads/Images/NewTrialWC.png","lowH","1","59","1","0","1","1","false","",""
"image-keyboard-response","314","466247","0.0-3.0-6.0-1.0-1.59","5ecc1798e3ca777cfb37b0f5","6662009ae78f21dd82fcd179","66620a547f69f5f09072147d","null","","null","","","","","","","","./tasks/HMM-beads/Images/WhiteBeadChoice.png","","","","","","","","","",""
"image-keyboard-response","315","466755","0.0-3.0-6.0-1.0-2.59","5ecc1798e3ca777cfb37b0f5","6662009ae78f21dd82fcd179","66620a547f69f5f09072147d","null","","null","","","","","","","","./tasks/HMM-beads/Images/WhiteBeadChoiceWrong.png","","","","","","","","","",""
"image-keyboard-response","316","467145","0.0-3.0-6.0-1.0-0.60","5ecc1798e3ca777cfb37b0f5","6662009ae78f21dd82fcd179","66620a547f69f5f09072147d","387","","f","","","","","","","","./tasks/HMM-beads/Images/NewTrialBC.png","lowH","1","60","1","1","0","0","false","",""
"image-keyboard-response","317","467451","0.0-3.0-6.0-1.0-1.60","5ecc1798e3ca777cfb37b0f5","6662009ae78f21dd82fcd179","66620a547f69f5f09072147d","null","","null","","","","","","","","./tasks/HMM-beads/Images/BlackBeadChoice.png","","","","","","","","","",""
"image-keyboard-response","318","467963","0.0-3.0-6.0-1.0-2.60","5ecc1798e3ca777cfb37b0f5","6662009ae78f21dd82fcd179","66620a547f69f5f09072147d","null","","null","","","","","","","","./tasks/HMM-beads/Images/BlackBeadChoiceWrong.png","","","","","","","","","",""
"image-keyboard-response","319","468057","0.0-3.0-6.0-1.0-0.61","5ecc1798e3ca777cfb37b0f5","6662009ae78f21dd82fcd179","66620a547f69f5f09072147d","93","","j","","","","","","","","./tasks/HMM-beads/Images/NewTrialWC.png","lowH","1","61","1","1","1","1","true","",""
"image-keyboard-response","320","468367","0.0-3.0-6.0-1.0-1.61","5ecc1798e3ca777cfb37b0f5","6662009ae78f21dd82fcd179","66620a547f69f5f09072147d","null","","null","","","","","","","","./tasks/HMM-beads/Images/WhiteBeadChoice.png","","","","","","","","","",""
"image-keyboard-response","321","468879","0.0-3.0-6.0-1.0-2.61","5ecc1798e3ca777cfb37b0f5","6662009ae78f21dd82fcd179","66620a547f69f5f09072147d","null","","null","","","","","","","","./tasks/HMM-beads/Images/WhiteBeadChoiceCorrect.png","","","","","","","","","",""
"image-keyboard-response","322","469108","0.0-3.0-6.0-1.0-0.62","5ecc1798e3ca777cfb37b0f5","6662009ae78f21dd82fcd179","66620a547f69f5f09072147d","227","","j","","","","","","","","./tasks/HMM-beads/Images/NewTrialWC.png","lowH","1","62","1","0","1","1","false","",""
"image-keyboard-response","323","469421","0.0-3.0-6.0-1.0-1.62","5ecc1798e3ca777cfb37b0f5","6662009ae78f21dd82fcd179","66620a547f69f5f09072147d","null","","null","","","","","","","","./tasks/HMM-beads/Images/WhiteBeadChoice.png","","","","","","","","","",""
"image-keyboard-response","324","469933","0.0-3.0-6.0-1.0-2.62","5ecc1798e3ca777cfb37b0f5","6662009ae78f21dd82fcd179","66620a547f69f5f09072147d","null","","null","","","","","","","","./tasks/HMM-beads/Images/WhiteBeadChoiceWrong.png","","","","","","","","","",""
"image-keyboard-response","325","472070","0.0-3.0-6.0-1.0-0.63","5ecc1798e3ca777cfb37b0f5","6662009ae78f21dd82fcd179","66620a547f69f5f09072147d","2136","","j","","","","","","","","./tasks/HMM-beads/Images/NewTrialBC.png","lowH","1","63","1","1","0","1","true","",""
"image-keyboard-response","326","472381","0.0-3.0-6.0-1.0-1.63","5ecc1798e3ca777cfb37b0f5","6662009ae78f21dd82fcd179","66620a547f69f5f09072147d","null","","null","","","","","","","","./tasks/HMM-beads/Images/WhiteBeadChoice.png","","","","","","","","","",""
"image-keyboard-response","327","472890","0.0-3.0-6.0-1.0-2.63","5ecc1798e3ca777cfb37b0f5","6662009ae78f21dd82fcd179","66620a547f69f5f09072147d","null","","null","","","","","","","","./tasks/HMM-beads/Images/WhiteBeadChoiceCorrect.png","","","","","","","","","",""
"image-keyboard-response","328","473006","0.0-3.0-6.0-1.0-0.64","5ecc1798e3ca777cfb37b0f5","6662009ae78f21dd82fcd179","66620a547f69f5f09072147d","114","","j","","","","","","","","./tasks/HMM-beads/Images/NewTrialWC.png","lowH","1","64","1","1","1","1","true","",""
"image-keyboard-response","329","473322","0.0-3.0-6.0-1.0-1.64","5ecc1798e3ca777cfb37b0f5","6662009ae78f21dd82fcd179","66620a547f69f5f09072147d","null","","null","","","","","","","","./tasks/HMM-beads/Images/WhiteBeadChoice.png","","","","","","","","","",""
"image-keyboard-response","330","473843","0.0-3.0-6.0-1.0-2.64","5ecc1798e3ca777cfb37b0f5","6662009ae78f21dd82fcd179","66620a547f69f5f09072147d","null","","null","","","","","","","","./tasks/HMM-beads/Images/WhiteBeadChoiceCorrect.png","","","","","","","","","",""
"image-keyboard-response","331","477290","0.0-3.0-6.0-1.0-0.65","5ecc1798e3ca777cfb37b0f5","6662009ae78f21dd82fcd179","66620a547f69f5f09072147d","3446","","j","","","","","","","","./tasks/HMM-beads/Images/NewTrialWC.png","lowH","1","65","1","1","1","1","true","",""
"image-keyboard-response","332","477594","0.0-3.0-6.0-1.0-1.65","5ecc1798e3ca777cfb37b0f5","6662009ae78f21dd82fcd179","66620a547f69f5f09072147d","null","","null","","","","","","","","./tasks/HMM-beads/Images/WhiteBeadChoice.png","","","","","","","","","",""
"image-keyboard-response","333","478104","0.0-3.0-6.0-1.0-2.65","5ecc1798e3ca777cfb37b0f5","6662009ae78f21dd82fcd179","66620a547f69f5f09072147d","null","","null","","","","","","","","./tasks/HMM-beads/Images/WhiteBeadChoiceCorrect.png","","","","","","","","","",""
"image-keyboard-response","334","479656","0.0-3.0-6.0-1.0-0.66","5ecc1798e3ca777cfb37b0f5","6662009ae78f21dd82fcd179","66620a547f69f5f09072147d","1550","","j","","","","","","","","./tasks/HMM-beads/Images/NewTrialWC.png","lowH","1","66","1","1","1","1","true","",""
"image-keyboard-response","335","479960","0.0-3.0-6.0-1.0-1.66","5ecc1798e3ca777cfb37b0f5","6662009ae78f21dd82fcd179","66620a547f69f5f09072147d","null","","null","","","","","","","","./tasks/HMM-beads/Images/WhiteBeadChoice.png","","","","","","","","","",""
"image-keyboard-response","336","480474","0.0-3.0-6.0-1.0-2.66","5ecc1798e3ca777cfb37b0f5","6662009ae78f21dd82fcd179","66620a547f69f5f09072147d","null","","null","","","","","","","","./tasks/HMM-beads/Images/WhiteBeadChoiceCorrect.png","","","","","","","","","",""
"image-keyboard-response","337","482457","0.0-3.0-6.0-1.0-0.67","5ecc1798e3ca777cfb37b0f5","6662009ae78f21dd82fcd179","66620a547f69f5f09072147d","1982","","j","","","","","","","","./tasks/HMM-beads/Images/NewTrialWC.png","lowH","1","67","1","0","1","1","false","",""
"image-keyboard-response","338","482768","0.0-3.0-6.0-1.0-1.67","5ecc1798e3ca777cfb37b0f5","6662009ae78f21dd82fcd179","66620a547f69f5f09072147d","null","","null","","","","","","","","./tasks/HMM-beads/Images/WhiteBeadChoice.png","","","","","","","","","",""
"image-keyboard-response","339","483278","0.0-3.0-6.0-1.0-2.67","5ecc1798e3ca777cfb37b0f5","6662009ae78f21dd82fcd179","66620a547f69f5f09072147d","null","","null","","","","","","","","./tasks/HMM-beads/Images/WhiteBeadChoiceWrong.png","","","","","","","","","",""
"image-keyboard-response","340","485321","0.0-3.0-6.0-1.0-0.68","5ecc1798e3ca777cfb37b0f5","6662009ae78f21dd82fcd179","66620a547f69f5f09072147d","2040","","j","","","","","","","","./tasks/HMM-beads/Images/NewTrialBC.png","lowH","1","68","1","1","0","1","true","",""
"image-keyboard-response","341","485633","0.0-3.0-6.0-1.0-1.68","5ecc1798e3ca777cfb37b0f5","6662009ae78f21dd82fcd179","66620a547f69f5f09072147d","null","","null","","","","","","","","./tasks/HMM-beads/Images/WhiteBeadChoice.png","","","","","","","","","",""
"image-keyboard-response","342","486145","0.0-3.0-6.0-1.0-2.68","5ecc1798e3ca777cfb37b0f5","6662009ae78f21dd82fcd179","66620a547f69f5f09072147d","null","","null","","","","","","","","./tasks/HMM-beads/Images/WhiteBeadChoiceCorrect.png","","","","","","","","","",""
"image-keyboard-response","343","487400","0.0-3.0-6.0-1.0-0.69","5ecc1798e3ca777cfb37b0f5","6662009ae78f21dd82fcd179","66620a547f69f5f09072147d","1253","","j","","","","","","","","./tasks/HMM-beads/Images/NewTrialWC.png","lowH","1","69","0","1","1","1","true","",""
"image-keyboard-response","344","487710","0.0-3.0-6.0-1.0-1.69","5ecc1798e3ca777cfb37b0f5","6662009ae78f21dd82fcd179","66620a547f69f5f09072147d","null","","null","","","","","","","","./tasks/HMM-beads/Images/WhiteBeadChoice.png","","","","","","","","","",""
"image-keyboard-response","345","488218","0.0-3.0-6.0-1.0-2.69","5ecc1798e3ca777cfb37b0f5","6662009ae78f21dd82fcd179","66620a547f69f5f09072147d","null","","null","","","","","","","","./tasks/HMM-beads/Images/WhiteBeadChoiceCorrect.png","","","","","","","","","",""
"image-keyboard-response","346","489000","0.0-3.0-6.0-1.0-0.70","5ecc1798e3ca777cfb37b0f5","6662009ae78f21dd82fcd179","66620a547f69f5f09072147d","780","","j","","","","","","","","./tasks/HMM-beads/Images/NewTrialWC.png","lowH","1","70","0","1","1","1","true","",""
"image-keyboard-response","347","489306","0.0-3.0-6.0-1.0-1.70","5ecc1798e3ca777cfb37b0f5","6662009ae78f21dd82fcd179","66620a547f69f5f09072147d","null","","null","","","","","","","","./tasks/HMM-beads/Images/WhiteBeadChoice.png","","","","","","","","","",""
"image-keyboard-response","348","489816","0.0-3.0-6.0-1.0-2.70","5ecc1798e3ca777cfb37b0f5","6662009ae78f21dd82fcd179","66620a547f69f5f09072147d","null","","null","","","","","","","","./tasks/HMM-beads/Images/WhiteBeadChoiceCorrect.png","","","","","","","","","",""
"image-keyboard-response","349","490249","0.0-3.0-6.0-1.0-0.71","5ecc1798e3ca777cfb37b0f5","6662009ae78f21dd82fcd179","66620a547f69f5f09072147d","431","","j","","","","","","","","./tasks/HMM-beads/Images/NewTrialWC.png","lowH","1","71","0","0","1","1","false","",""
"image-keyboard-response","350","490562","0.0-3.0-6.0-1.0-1.71","5ecc1798e3ca777cfb37b0f5","6662009ae78f21dd82fcd179","66620a547f69f5f09072147d","null","","null","","","","","","","","./tasks/HMM-beads/Images/WhiteBeadChoice.png","","","","","","","","","",""
"image-keyboard-response","351","491072","0.0-3.0-6.0-1.0-2.71","5ecc1798e3ca777cfb37b0f5","6662009ae78f21dd82fcd179","66620a547f69f5f09072147d","null","","null","","","","","","","","./tasks/HMM-beads/Images/WhiteBeadChoiceWrong.png","","","","","","","","","",""
"image-keyboard-response","352","493519","0.0-3.0-6.0-1.0-0.72","5ecc1798e3ca777cfb37b0f5","6662009ae78f21dd82fcd179","66620a547f69f5f09072147d","2445","","j","","","","","","","","./tasks/HMM-beads/Images/NewTrialBC.png","lowH","1","72","0","0","0","1","false","",""
"image-keyboard-response","353","493828","0.0-3.0-6.0-1.0-1.72","5ecc1798e3ca777cfb37b0f5","6662009ae78f21dd82fcd179","66620a547f69f5f09072147d","null","","null","","","","","","","","./tasks/HMM-beads/Images/WhiteBeadChoice.png","","","","","","","","","",""
"image-keyboard-response","354","494337","0.0-3.0-6.0-1.0-2.72","5ecc1798e3ca777cfb37b0f5","6662009ae78f21dd82fcd179","66620a547f69f5f09072147d","null","","null","","","","","","","","./tasks/HMM-beads/Images/WhiteBeadChoiceWrong.png","","","","","","","","","",""
"image-keyboard-response","355","494966","0.0-3.0-6.0-1.0-0.73","5ecc1798e3ca777cfb37b0f5","6662009ae78f21dd82fcd179","66620a547f69f5f09072147d","628","","f","","","","","","","","./tasks/HMM-beads/Images/NewTrialBC.png","lowH","1","73","0","1","0","0","false","",""
"image-keyboard-response","356","495283","0.0-3.0-6.0-1.0-1.73","5ecc1798e3ca777cfb37b0f5","6662009ae78f21dd82fcd179","66620a547f69f5f09072147d","null","","null","","","","","","","","./tasks/HMM-beads/Images/BlackBeadChoice.png","","","","","","","","","",""
"image-keyboard-response","357","495794","0.0-3.0-6.0-1.0-2.73","5ecc1798e3ca777cfb37b0f5","6662009ae78f21dd82fcd179","66620a547f69f5f09072147d","null","","null","","","","","","","","./tasks/HMM-beads/Images/BlackBeadChoiceWrong.png","","","","","","","","","",""
"image-keyboard-response","358","496206","0.0-3.0-6.0-1.0-0.74","5ecc1798e3ca777cfb37b0f5","6662009ae78f21dd82fcd179","66620a547f69f5f09072147d","409","","j","","","","","","","","./tasks/HMM-beads/Images/NewTrialWC.png","lowH","1","74","0","0","1","1","false","",""
"image-keyboard-response","359","496520","0.0-3.0-6.0-1.0-1.74","5ecc1798e3ca777cfb37b0f5","6662009ae78f21dd82fcd179","66620a547f69f5f09072147d","null","","null","","","","","","","","./tasks/HMM-beads/Images/WhiteBeadChoice.png","","","","","","","","","",""
"image-keyboard-response","360","497035","0.0-3.0-6.0-1.0-2.74","5ecc1798e3ca777cfb37b0f5","6662009ae78f21dd82fcd179","66620a547f69f5f09072147d","null","","null","","","","","","","","./tasks/HMM-beads/Images/WhiteBeadChoiceWrong.png","","","","","","","","","",""
"image-keyboard-response","361","497685","0.0-3.0-6.0-1.0-0.75","5ecc1798e3ca777cfb37b0f5","6662009ae78f21dd82fcd179","66620a547f69f5f09072147d","646","","j","","","","","","","","./tasks/HMM-beads/Images/NewTrialBC.png","lowH","1","75","0","1","0","1","true","",""
"image-keyboard-response","362","497997","0.0-3.0-6.0-1.0-1.75","5ecc1798e3ca777cfb37b0f5","6662009ae78f21dd82fcd179","66620a547f69f5f09072147d","null","","null","","","","","","","","./tasks/HMM-beads/Images/WhiteBeadChoice.png","","","","","","","","","",""
"image-keyboard-response","363","498511","0.0-3.0-6.0-1.0-2.75","5ecc1798e3ca777cfb37b0f5","6662009ae78f21dd82fcd179","66620a547f69f5f09072147d","null","","null","","","","","","","","./tasks/HMM-beads/Images/WhiteBeadChoiceCorrect.png","","","","","","","","","",""
"image-keyboard-response","364","499120","0.0-3.0-6.0-1.0-0.76","5ecc1798e3ca777cfb37b0f5","6662009ae78f21dd82fcd179","66620a547f69f5f09072147d","609","","j","","","","","","","","./tasks/HMM-beads/Images/NewTrialWC.png","lowH","1","76","0","1","1","1","true","",""
"image-keyboard-response","365","499425","0.0-3.0-6.0-1.0-1.76","5ecc1798e3ca777cfb37b0f5","6662009ae78f21dd82fcd179","66620a547f69f5f09072147d","null","","null","","","","","","","","./tasks/HMM-beads/Images/WhiteBeadChoice.png","","","","","","","","","",""
"image-keyboard-response","366","499937","0.0-3.0-6.0-1.0-2.76","5ecc1798e3ca777cfb37b0f5","6662009ae78f21dd82fcd179","66620a547f69f5f09072147d","null","","null","","","","","","","","./tasks/HMM-beads/Images/WhiteBeadChoiceCorrect.png","","","","","","","","","",""
"image-keyboard-response","367","500510","0.0-3.0-6.0-1.0-0.77","5ecc1798e3ca777cfb37b0f5","6662009ae78f21dd82fcd179","66620a547f69f5f09072147d","571","","j","","","","","","","","./tasks/HMM-beads/Images/NewTrialWC.png","lowH","1","77","0","0","1","1","false","",""
"image-keyboard-response","368","500819","0.0-3.0-6.0-1.0-1.77","5ecc1798e3ca777cfb37b0f5","6662009ae78f21dd82fcd179","66620a547f69f5f09072147d","null","","null","","","","","","","","./tasks/HMM-beads/Images/WhiteBeadChoice.png","","","","","","","","","",""
"image-keyboard-response","369","501327","0.0-3.0-6.0-1.0-2.77","5ecc1798e3ca777cfb37b0f5","6662009ae78f21dd82fcd179","66620a547f69f5f09072147d","null","","null","","","","","","","","./tasks/HMM-beads/Images/WhiteBeadChoiceWrong.png","","","","","","","","","",""
"image-keyboard-response","370","501865","0.0-3.0-6.0-1.0-0.78","5ecc1798e3ca777cfb37b0f5","6662009ae78f21dd82fcd179","66620a547f69f5f09072147d","535","","j","","","","","","","","./tasks/HMM-beads/Images/NewTrialBC.png","lowH","1","78","0","0","0","1","false","",""
"image-keyboard-response","371","502176","0.0-3.0-6.0-1.0-1.78","5ecc1798e3ca777cfb37b0f5","6662009ae78f21dd82fcd179","66620a547f69f5f09072147d","null","","null","","","","","","","","./tasks/HMM-beads/Images/WhiteBeadChoice.png","","","","","","","","","",""
"image-keyboard-response","372","502688","0.0-3.0-6.0-1.0-2.78","5ecc1798e3ca777cfb37b0f5","6662009ae78f21dd82fcd179","66620a547f69f5f09072147d","null","","null","","","","","","","","./tasks/HMM-beads/Images/WhiteBeadChoiceWrong.png","","","","","","","","","",""
"image-keyboard-response","373","503657","0.0-3.0-6.0-1.0-0.79","5ecc1798e3ca777cfb37b0f5","6662009ae78f21dd82fcd179","66620a547f69f5f09072147d","967","","j","","","","","","","","./tasks/HMM-beads/Images/NewTrialBC.png","lowH","1","79","0","0","0","1","false","",""
