"trial_type","trial_index","time_elapsed","internal_node_id","subject_id","study_id","session_id","rt","url","response","question_order","view_history","success","timeout","failed_images","failed_audio","failed_video","stimulus","block","block_rep","trial_number","jar","bead","previous_bead","choice","correct","lowH_score","total_bonus"
"pavlovia","0","1463","0.0-0.0","5b87e73d53303600015ea51c","6662009ae78f21dd82fcd179","66620a2eddcb3e96b18d4b1c","","","","","","","","","","","","","","","","","","","","",""
"external-html","1","37955","0.0-1.0-0.0","5b87e73d53303600015ea51c","6662009ae78f21dd82fcd179","66620a2eddcb3e96b18d4b1c","36382","new_consent.html","","","","","","","","","","","","","","","","","","",""
"survey-multi-choice","2","42520","0.0-1.0-1.0","5b87e73d53303600015ea51c","6662009ae78f21dd82fcd179","66620a2eddcb3e96b18d4b1c","4563","","{""Q0"":""Male"",""Q1"":""Hispanic or Latino""}","[0,1]","","","","","","","","","","","","","","","","",""
"survey-text","3","45274","0.0-1.0-2.0","5b87e73d53303600015ea51c","6662009ae78f21dd82fcd179","66620a2eddcb3e96b18d4b1c","2751","","{""Q0"":""37""}","","","","","","","","","","","","","","","","","",""
"instructions","4","46675","0.0-2.0","5b87e73d53303600015ea51c","6662009ae78f21dd82fcd179","66620a2eddcb3e96b18d4b1c","1299","","","","[{""page_index"":0,""viewing_time"":1299}]","","","","","","","","","","","","","","","",""
"preload","5","47543","0.0-3.0-0.0","5b87e73d53303600015ea51c","6662009ae78f21dd82fcd179","66620a2eddcb3e96b18d4b1c","","","","","","true","false","[]","[]","[]","","","","","","","","","","",""
"instructions","6","398946","0.0-3.0-1.0","5b87e73d53303600015ea51c","6662009ae78f21dd82fcd179","66620a2eddcb3e96b18d4b1c","351404","","","","[{""page_index"":0,""viewing_time"":296239},{""page_index"":1,""viewing_time"":13218},{""page_index"":2,""viewing_time"":2889},{""page_index"":3,""viewing_time"":1008},{""page_index"":4,""viewing_time"":4510},{""page_index"":5,""viewing_time"":8061},{""page_index"":6,""viewing_time"":6981},{""page_index"":7,""viewing_time"":5639},{""page_index"":8,""viewing_time"":3743},{""page_index"":9,""viewing_time"":1860},{""page_index"":10,""viewing_time"":5833},{""page_index"":11,""viewing_time"":1422}]","","","","","","","","","","","","","","","",""
"html-button-response","7","401108","0.0-3.0-2.0-0.0-0.0","5b87e73d53303600015ea51c","6662009ae78f21dd82fcd179","66620a2eddcb3e96b18d4b1c","2161","","1","","","","","","","","<div align=center>Your goal is to predict…?<br><br></div>","","","","","","","","","",""
"html-button-response","8","405912","0.0-3.0-2.0-1.0-0.0","5b87e73d53303600015ea51c","6662009ae78f21dd82fcd179","66620a2eddcb3e96b18d4b1c","3351","","2","","","","","","","","<div align=center>In the jar with mostly white beads, there are ___% white beads and ___% black beads?<br><br></div>","","","","","","","","","",""
"html-button-response","9","411690","0.0-3.0-2.0-2.0-0.0","5b87e73d53303600015ea51c","6662009ae78f21dd82fcd179","66620a2eddcb3e96b18d4b1c","4469","","0","","","","","","","","<div align=center>When there is a 1% probability that the jars will switch, the next bead will most likely be drawn from the…<br><br></div>","","","","","","","","","",""
"html-button-response","10","414451","0.0-3.0-2.0-3.0-0.0","5b87e73d53303600015ea51c","6662009ae78f21dd82fcd179","66620a2eddcb3e96b18d4b1c","1845","","1","","","","","","","","<div align=center>When there is a 99% probability that the jars will switch, the next bead will most likely be drawn from the…<br><br></div>","","","","","","","","","",""
"instructions","11","512890","0.0-3.0-3.0","5b87e73d53303600015ea51c","6662009ae78f21dd82fcd179","66620a2eddcb3e96b18d4b1c","96263","","","","[{""page_index"":0,""viewing_time"":96262}]","","","","","","","","","","","","","","","",""
"html-keyboard-response","12","519075","0.0-3.0-4.0-0.0","5b87e73d53303600015ea51c","6662009ae78f21dd82fcd179","66620a2eddcb3e96b18d4b1c","6184",""," ","","","","","","","","<div align=center>In this practice block, there will be a <b>1% chance</b> that the jar on the next trial will be different from the jar on the current trial.<br><br></div>","","","","","","","","","",""
"image-keyboard-response","13","522894","0.0-3.0-4.0-1.0-0.0","5b87e73d53303600015ea51c","6662009ae78f21dd82fcd179","66620a2eddcb3e96b18d4b1c","3815","","f","","","","","","","","./tasks/HMM-beads/Images/NoChoice.png","practice","0","0","0","0","9","0","true","",""
"image-keyboard-response","14","523198","0.0-3.0-4.0-1.0-1.0","5b87e73d53303600015ea51c","6662009ae78f21dd82fcd179","66620a2eddcb3e96b18d4b1c","null","","null","","","","","","","","./tasks/HMM-beads/Images/BlackBeadChoice.png","","","","","","","","","",""
"image-keyboard-response","15","523702","0.0-3.0-4.0-1.0-2.0","5b87e73d53303600015ea51c","6662009ae78f21dd82fcd179","66620a2eddcb3e96b18d4b1c","null","","null","","","","","","","","./tasks/HMM-beads/Images/BlackBeadChoiceCorrect.png","","","","","","","","","",""
"image-keyboard-response","16","526547","0.0-3.0-4.0-1.0-0.1","5b87e73d53303600015ea51c","6662009ae78f21dd82fcd179","66620a2eddcb3e96b18d4b1c","2844","","f","","","","","","","","./tasks/HMM-beads/Images/NewTrialBC.png","practice","0","1","0","0","0","0","true","",""
"image-keyboard-response","17","526862","0.0-3.0-4.0-1.0-1.1","5b87e73d53303600015ea51c","6662009ae78f21dd82fcd179","66620a2eddcb3e96b18d4b1c","null","","null","","","","","","","","./tasks/HMM-beads/Images/BlackBeadChoice.png","","","","","","","","","",""
"image-keyboard-response","18","527379","0.0-3.0-4.0-1.0-2.1","5b87e73d53303600015ea51c","6662009ae78f21dd82fcd179","66620a2eddcb3e96b18d4b1c","null","","null","","","","","","","","./tasks/HMM-beads/Images/BlackBeadChoiceCorrect.png","","","","","","","","","",""
"image-keyboard-response","19","528492","0.0-3.0-4.0-1.0-0.2","5b87e73d53303600015ea51c","6662009ae78f21dd82fcd179","66620a2eddcb3e96b18d4b1c","1112","","f","","","","","","","","./tasks/HMM-beads/Images/NewTrialBC.png","practice","0","2","0","1","0","0","false","",""
"image-keyboard-response","20","528798","0.0-3.0-4.0-1.0-1.2","5b87e73d53303600015ea51c","6662009ae78f21dd82fcd179","66620a2eddcb3e96b18d4b1c","null","","null","","","","","","","","./tasks/HMM-beads/Images/BlackBeadChoice.png","","","","","","","","","",""
"image-keyboard-response","21","529312","0.0-3.0-4.0-1.0-2.2","5b87e73d53303600015ea51c","6662009ae78f21dd82fcd179","66620a2eddcb3e96b18d4b1c","null","","null","","","","","","","","./tasks/HMM-beads/Images/BlackBeadChoiceWrong.png","","","","","","","","","",""
"image-keyboard-response","22","530183","0.0-3.0-4.0-1.0-0.3","5b87e73d53303600015ea51c","6662009ae78f21dd82fcd179","66620a2eddcb3e96b18d4b1c","871","","f","","","","","","","","./tasks/HMM-beads/Images/NewTrialWC.png","practice","0","3","0","0","1","0","true","",""
"image-keyboard-response","23","530485","0.0-3.0-4.0-1.0-1.3","5b87e73d53303600015ea51c","6662009ae78f21dd82fcd179","66620a2eddcb3e96b18d4b1c","null","","null","","","","","","","","./tasks/HMM-beads/Images/BlackBeadChoice.png","","","","","","","","","",""
"image-keyboard-response","24","530987","0.0-3.0-4.0-1.0-2.3","5b87e73d53303600015ea51c","6662009ae78f21dd82fcd179","66620a2eddcb3e96b18d4b1c","null","","null","","","","","","","","./tasks/HMM-beads/Images/BlackBeadChoiceCorrect.png","","","","","","","","","",""
"image-keyboard-response","25","531821","0.0-3.0-4.0-1.0-0.4","5b87e73d53303600015ea51c","6662009ae78f21dd82fcd179","66620a2eddcb3e96b18d4b1c","833","","f","","","","","","","","./tasks/HMM-beads/Images/NewTrialBC.png","practice","0","4","0","0","0","0","true","",""
"image-keyboard-response","26","532130","0.0-3.0-4.0-1.0-1.4","5b87e73d53303600015ea51c","6662009ae78f21dd82fcd179","66620a2eddcb3e96b18d4b1c","null","","null","","","","","","","","./tasks/HMM-beads/Images/BlackBeadChoice.png","","","","","","","","","",""
"image-keyboard-response","27","532643","0.0-3.0-4.0-1.0-2.4","5b87e73d53303600015ea51c","6662009ae78f21dd82fcd179","66620a2eddcb3e96b18d4b1c","null","","null","","","","","","","","./tasks/HMM-beads/Images/BlackBeadChoiceCorrect.png","","","","","","","","","",""
"image-keyboard-response","28","533313","0.0-3.0-4.0-1.0-0.5","5b87e73d53303600015ea51c","6662009ae78f21dd82fcd179","66620a2eddcb3e96b18d4b1c","669","","f","","","","","","","","./tasks/HMM-beads/Images/NewTrialBC.png","practice","0","5","0","1","0","0","false","",""
"image-keyboard-response","29","533628","0.0-3.0-4.0-1.0-1.5","5b87e73d53303600015ea51c","6662009ae78f21dd82fcd179","66620a2eddcb3e96b18d4b1c","null","","null","","","","","","","","./tasks/HMM-beads/Images/BlackBeadChoice.png","","","","","","","","","",""
"image-keyboard-response","30","534134","0.0-3.0-4.0-1.0-2.5","5b87e73d53303600015ea51c","6662009ae78f21dd82fcd179","66620a2eddcb3e96b18d4b1c","null","","null","","","","","","","","./tasks/HMM-beads/Images/BlackBeadChoiceWrong.png","","","","","","","","","",""
"image-keyboard-response","31","534759","0.0-3.0-4.0-1.0-0.6","5b87e73d53303600015ea51c","6662009ae78f21dd82fcd179","66620a2eddcb3e96b18d4b1c","624","","f","","","","","","","","./tasks/HMM-beads/Images/NewTrialWC.png","practice","0","6","0","0","1","0","true","",""
"image-keyboard-response","32","535067","0.0-3.0-4.0-1.0-1.6","5b87e73d53303600015ea51c","6662009ae78f21dd82fcd179","66620a2eddcb3e96b18d4b1c","null","","null","","","","","","","","./tasks/HMM-beads/Images/BlackBeadChoice.png","","","","","","","","","",""
"image-keyboard-response","33","535579","0.0-3.0-4.0-1.0-2.6","5b87e73d53303600015ea51c","6662009ae78f21dd82fcd179","66620a2eddcb3e96b18d4b1c","null","","null","","","","","","","","./tasks/HMM-beads/Images/BlackBeadChoiceCorrect.png","","","","","","","","","",""
"image-keyboard-response","34","536308","0.0-3.0-4.0-1.0-0.7","5b87e73d53303600015ea51c","6662009ae78f21dd82fcd179","66620a2eddcb3e96b18d4b1c","728","","f","","","","","","","","./tasks/HMM-beads/Images/NewTrialBC.png","practice","0","7","0","0","0","0","true","",""
"image-keyboard-response","35","536614","0.0-3.0-4.0-1.0-1.7","5b87e73d53303600015ea51c","6662009ae78f21dd82fcd179","66620a2eddcb3e96b18d4b1c","null","","null","","","","","","","","./tasks/HMM-beads/Images/BlackBeadChoice.png","","","","","","","","","",""
"image-keyboard-response","36","537124","0.0-3.0-4.0-1.0-2.7","5b87e73d53303600015ea51c","6662009ae78f21dd82fcd179","66620a2eddcb3e96b18d4b1c","null","","null","","","","","","","","./tasks/HMM-beads/Images/BlackBeadChoiceCorrect.png","","","","","","","","","",""
"image-keyboard-response","37","537794","0.0-3.0-4.0-1.0-0.8","5b87e73d53303600015ea51c","6662009ae78f21dd82fcd179","66620a2eddcb3e96b18d4b1c","669","","f","","","","","","","","./tasks/HMM-beads/Images/NewTrialBC.png","practice","0","8","0","0","0","0","true","",""
"image-keyboard-response","38","538104","0.0-3.0-4.0-1.0-1.8","5b87e73d53303600015ea51c","6662009ae78f21dd82fcd179","66620a2eddcb3e96b18d4b1c","null","","null","","","","","","","","./tasks/HMM-beads/Images/BlackBeadChoice.png","","","","","","","","","",""
"image-keyboard-response","39","538612","0.0-3.0-4.0-1.0-2.8","5b87e73d53303600015ea51c","6662009ae78f21dd82fcd179","66620a2eddcb3e96b18d4b1c","null","","null","","","","","","","","./tasks/HMM-beads/Images/BlackBeadChoiceCorrect.png","","","","","","","","","",""
"image-keyboard-response","40","539360","0.0-3.0-4.0-1.0-0.9","5b87e73d53303600015ea51c","6662009ae78f21dd82fcd179","66620a2eddcb3e96b18d4b1c","747","","f","","","","","","","","./tasks/HMM-beads/Images/NewTrialBC.png","practice","0","9","0","1","0","0","false","",""
"image-keyboard-response","41","539670","0.0-3.0-4.0-1.0-1.9","5b87e73d53303600015ea51c","6662009ae78f21dd82fcd179","66620a2eddcb3e96b18d4b1c","null","","null","","","","","","","","./tasks/HMM-beads/Images/BlackBeadChoice.png","","","","","","","","","",""
"image-keyboard-response","42","540183","0.0-3.0-4.0-1.0-2.9","5b87e73d53303600015ea51c","6662009ae78f21dd82fcd179","66620a2eddcb3e96b18d4b1c","null","","null","","","","","","","","./tasks/HMM-beads/Images/BlackBeadChoiceWrong.png","","","","","","","","","",""
"image-keyboard-response","43","541088","0.0-3.0-4.0-1.0-0.10","5b87e73d53303600015ea51c","6662009ae78f21dd82fcd179","66620a2eddcb3e96b18d4b1c","904","","f","","","","","","","","./tasks/HMM-beads/Images/NewTrialWC.png","practice","0","10","0","0","1","0","true","",""
"image-keyboard-response","44","541397","0.0-3.0-4.0-1.0-1.10","5b87e73d53303600015ea51c","6662009ae78f21dd82fcd179","66620a2eddcb3e96b18d4b1c","null","","null","","","","","","","","./tasks/HMM-beads/Images/BlackBeadChoice.png","","","","","","","","","",""
"image-keyboard-response","45","541908","0.0-3.0-4.0-1.0-2.10","5b87e73d53303600015ea51c","6662009ae78f21dd82fcd179","66620a2eddcb3e96b18d4b1c","null","","null","","","","","","","","./tasks/HMM-beads/Images/BlackBeadChoiceCorrect.png","","","","","","","","","",""
"image-keyboard-response","46","542584","0.0-3.0-4.0-1.0-0.11","5b87e73d53303600015ea51c","6662009ae78f21dd82fcd179","66620a2eddcb3e96b18d4b1c","675","","f","","","","","","","","./tasks/HMM-beads/Images/NewTrialBC.png","practice","0","11","0","1","0","0","false","",""
"image-keyboard-response","47","542892","0.0-3.0-4.0-1.0-1.11","5b87e73d53303600015ea51c","6662009ae78f21dd82fcd179","66620a2eddcb3e96b18d4b1c","null","","null","","","","","","","","./tasks/HMM-beads/Images/BlackBeadChoice.png","","","","","","","","","",""
"image-keyboard-response","48","543397","0.0-3.0-4.0-1.0-2.11","5b87e73d53303600015ea51c","6662009ae78f21dd82fcd179","66620a2eddcb3e96b18d4b1c","null","","null","","","","","","","","./tasks/HMM-beads/Images/BlackBeadChoiceWrong.png","","","","","","","","","",""
"image-keyboard-response","49","544192","0.0-3.0-4.0-1.0-0.12","5b87e73d53303600015ea51c","6662009ae78f21dd82fcd179","66620a2eddcb3e96b18d4b1c","794","","f","","","","","","","","./tasks/HMM-beads/Images/NewTrialWC.png","practice","0","12","0","0","1","0","true","",""
"image-keyboard-response","50","544505","0.0-3.0-4.0-1.0-1.12","5b87e73d53303600015ea51c","6662009ae78f21dd82fcd179","66620a2eddcb3e96b18d4b1c","null","","null","","","","","","","","./tasks/HMM-beads/Images/BlackBeadChoice.png","","","","","","","","","",""
"image-keyboard-response","51","545018","0.0-3.0-4.0-1.0-2.12","5b87e73d53303600015ea51c","6662009ae78f21dd82fcd179","66620a2eddcb3e96b18d4b1c","null","","null","","","","","","","","./tasks/HMM-beads/Images/BlackBeadChoiceCorrect.png","","","","","","","","","",""
"image-keyboard-response","52","545775","0.0-3.0-4.0-1.0-0.13","5b87e73d53303600015ea51c","6662009ae78f21dd82fcd179","66620a2eddcb3e96b18d4b1c","750","","f","","","","","","","","./tasks/HMM-beads/Images/NewTrialBC.png","practice","0","13","0","0","0","0","true","",""
"image-keyboard-response","53","546091","0.0-3.0-4.0-1.0-1.13","5b87e73d53303600015ea51c","6662009ae78f21dd82fcd179","66620a2eddcb3e96b18d4b1c","null","","null","","","","","","","","./tasks/HMM-beads/Images/BlackBeadChoice.png","","","","","","","","","",""
"image-keyboard-response","54","546604","0.0-3.0-4.0-1.0-2.13","5b87e73d53303600015ea51c","6662009ae78f21dd82fcd179","66620a2eddcb3e96b18d4b1c","null","","null","","","","","","","","./tasks/HMM-beads/Images/BlackBeadChoiceCorrect.png","","","","","","","","","",""
"image-keyboard-response","55","547530","0.0-3.0-4.0-1.0-0.14","5b87e73d53303600015ea51c","6662009ae78f21dd82fcd179","66620a2eddcb3e96b18d4b1c","925","","f","","","","","","","","./tasks/HMM-beads/Images/NewTrialBC.png","practice","0","14","0","0","0","0","true","",""
"image-keyboard-response","56","547833","0.0-3.0-4.0-1.0-1.14","5b87e73d53303600015ea51c","6662009ae78f21dd82fcd179","66620a2eddcb3e96b18d4b1c","null","","null","","","","","","","","./tasks/HMM-beads/Images/BlackBeadChoice.png","","","","","","","","","",""
"image-keyboard-response","57","548344","0.0-3.0-4.0-1.0-2.14","5b87e73d53303600015ea51c","6662009ae78f21dd82fcd179","66620a2eddcb3e96b18d4b1c","null","","null","","","","","","","","./tasks/HMM-beads/Images/BlackBeadChoiceCorrect.png","","","","","","","","","",""
"image-keyboard-response","58","548967","0.0-3.0-4.0-1.0-0.15","5b87e73d53303600015ea51c","6662009ae78f21dd82fcd179","66620a2eddcb3e96b18d4b1c","622","","f","","","","","","","","./tasks/HMM-beads/Images/NewTrialBC.png","practice","0","15","0","0","0","0","true","",""
"image-keyboard-response","59","549279","0.0-3.0-4.0-1.0-1.15","5b87e73d53303600015ea51c","6662009ae78f21dd82fcd179","66620a2eddcb3e96b18d4b1c","null","","null","","","","","","","","./tasks/HMM-beads/Images/BlackBeadChoice.png","","","","","","","","","",""
"image-keyboard-response","60","549788","0.0-3.0-4.0-1.0-2.15","5b87e73d53303600015ea51c","6662009ae78f21dd82fcd179","66620a2eddcb3e96b18d4b1c","null","","null","","","","","","","","./tasks/HMM-beads/Images/BlackBeadChoiceCorrect.png","","","","","","","","","",""
"image-keyboard-response","61","550413","0.0-3.0-4.0-1.0-0.16","5b87e73d53303600015ea51c","6662009ae78f21dd82fcd179","66620a2eddcb3e96b18d4b1c","624","","f","","","","","","","","./tasks/HMM-beads/Images/NewTrialBC.png","practice","0","16","0","0","0","0","true","",""
"image-keyboard-response","62","550719","0.0-3.0-4.0-1.0-1.16","5b87e73d53303600015ea51c","6662009ae78f21dd82fcd179","66620a2eddcb3e96b18d4b1c","null","","null","","","","","","","","./tasks/HMM-beads/Images/BlackBeadChoice.png","","","","","","","","","",""
"image-keyboard-response","63","551231","0.0-3.0-4.0-1.0-2.16","5b87e73d53303600015ea51c","6662009ae78f21dd82fcd179","66620a2eddcb3e96b18d4b1c","null","","null","","","","","","","","./tasks/HMM-beads/Images/BlackBeadChoiceCorrect.png","","","","","","","","","",""
"image-keyboard-response","64","551948","0.0-3.0-4.0-1.0-0.17","5b87e73d53303600015ea51c","6662009ae78f21dd82fcd179","66620a2eddcb3e96b18d4b1c","716","","f","","","","","","","","./tasks/HMM-beads/Images/NewTrialBC.png","practice","0","17","0","0","0","0","true","",""
"image-keyboard-response","65","552261","0.0-3.0-4.0-1.0-1.17","5b87e73d53303600015ea51c","6662009ae78f21dd82fcd179","66620a2eddcb3e96b18d4b1c","null","","null","","","","","","","","./tasks/HMM-beads/Images/BlackBeadChoice.png","","","","","","","","","",""
"image-keyboard-response","66","552777","0.0-3.0-4.0-1.0-2.17","5b87e73d53303600015ea51c","6662009ae78f21dd82fcd179","66620a2eddcb3e96b18d4b1c","null","","null","","","","","","","","./tasks/HMM-beads/Images/BlackBeadChoiceCorrect.png","","","","","","","","","",""
"image-keyboard-response","67","553442","0.0-3.0-4.0-1.0-0.18","5b87e73d53303600015ea51c","6662009ae78f21dd82fcd179","66620a2eddcb3e96b18d4b1c","664","","f","","","","","","","","./tasks/HMM-beads/Images/NewTrialBC.png","practice","0","18","0","1","0","0","false","",""
"image-keyboard-response","68","553744","0.0-3.0-4.0-1.0-1.18","5b87e73d53303600015ea51c","6662009ae78f21dd82fcd179","66620a2eddcb3e96b18d4b1c","null","","null","","","","","","","","./tasks/HMM-beads/Images/BlackBeadChoice.png","","","","","","","","","",""
"image-keyboard-response","69","554259","0.0-3.0-4.0-1.0-2.18","5b87e73d53303600015ea51c","6662009ae78f21dd82fcd179","66620a2eddcb3e96b18d4b1c","null","","null","","","","","","","","./tasks/HMM-beads/Images/BlackBeadChoiceWrong.png","","","","","","","","","",""
"image-keyboard-response","70","554876","0.0-3.0-4.0-1.0-0.19","5b87e73d53303600015ea51c","6662009ae78f21dd82fcd179","66620a2eddcb3e96b18d4b1c","616","","f","","","","","","","","./tasks/HMM-beads/Images/NewTrialWC.png","practice","0","19","0","0","1","0","true","",""
"image-keyboard-response","71","555183","0.0-3.0-4.0-1.0-1.19","5b87e73d53303600015ea51c","6662009ae78f21dd82fcd179","66620a2eddcb3e96b18d4b1c","null","","null","","","","","","","","./tasks/HMM-beads/Images/BlackBeadChoice.png","","","","","","","","","",""
"image-keyboard-response","72","555701","0.0-3.0-4.0-1.0-2.19","5b87e73d53303600015ea51c","6662009ae78f21dd82fcd179","66620a2eddcb3e96b18d4b1c","null","","null","","","","","","","","./tasks/HMM-beads/Images/BlackBeadChoiceCorrect.png","","","","","","","","","",""
"image-keyboard-response","73","556294","0.0-3.0-4.0-1.0-0.20","5b87e73d53303600015ea51c","6662009ae78f21dd82fcd179","66620a2eddcb3e96b18d4b1c","592","","f","","","","","","","","./tasks/HMM-beads/Images/NewTrialBC.png","practice","0","20","0","0","0","0","true","",""
"image-keyboard-response","74","556607","0.0-3.0-4.0-1.0-1.20","5b87e73d53303600015ea51c","6662009ae78f21dd82fcd179","66620a2eddcb3e96b18d4b1c","null","","null","","","","","","","","./tasks/HMM-beads/Images/BlackBeadChoice.png","","","","","","","","","",""
"image-keyboard-response","75","557122","0.0-3.0-4.0-1.0-2.20","5b87e73d53303600015ea51c","6662009ae78f21dd82fcd179","66620a2eddcb3e96b18d4b1c","null","","null","","","","","","","","./tasks/HMM-beads/Images/BlackBeadChoiceCorrect.png","","","","","","","","","",""
"image-keyboard-response","76","557707","0.0-3.0-4.0-1.0-0.21","5b87e73d53303600015ea51c","6662009ae78f21dd82fcd179","66620a2eddcb3e96b18d4b1c","584","","f","","","","","","","","./tasks/HMM-beads/Images/NewTrialBC.png","practice","0","21","0","1","0","0","false","",""
"image-keyboard-response","77","558013","0.0-3.0-4.0-1.0-1.21","5b87e73d53303600015ea51c","6662009ae78f21dd82fcd179","66620a2eddcb3e96b18d4b1c","null","","null","","","","","","","","./tasks/HMM-beads/Images/BlackBeadChoice.png","","","","","","","","","",""
"image-keyboard-response","78","558526","0.0-3.0-4.0-1.0-2.21","5b87e73d53303600015ea51c","6662009ae78f21dd82fcd179","66620a2eddcb3e96b18d4b1c","null","","null","","","","","","","","./tasks/HMM-beads/Images/BlackBeadChoiceWrong.png","","","","","","","","","",""
"image-keyboard-response","79","558900","0.0-3.0-4.0-1.0-0.22","5b87e73d53303600015ea51c","6662009ae78f21dd82fcd179","66620a2eddcb3e96b18d4b1c","373","","f","","","","","","","","./tasks/HMM-beads/Images/NewTrialWC.png","practice","0","22","1","1","1","0","false","",""
"image-keyboard-response","80","559214","0.0-3.0-4.0-1.0-1.22","5b87e73d53303600015ea51c","6662009ae78f21dd82fcd179","66620a2eddcb3e96b18d4b1c","null","","null","","","","","","","","./tasks/HMM-beads/Images/BlackBeadChoice.png","","","","","","","","","",""
"image-keyboard-response","81","559717","0.0-3.0-4.0-1.0-2.22","5b87e73d53303600015ea51c","6662009ae78f21dd82fcd179","66620a2eddcb3e96b18d4b1c","null","","null","","","","","","","","./tasks/HMM-beads/Images/BlackBeadChoiceWrong.png","","","","","","","","","",""
"image-keyboard-response","82","560058","0.0-3.0-4.0-1.0-0.23","5b87e73d53303600015ea51c","6662009ae78f21dd82fcd179","66620a2eddcb3e96b18d4b1c","340","","f","","","","","","","","./tasks/HMM-beads/Images/NewTrialWC.png","practice","0","23","1","0","1","0","true","",""
"image-keyboard-response","83","560373","0.0-3.0-4.0-1.0-1.23","5b87e73d53303600015ea51c","6662009ae78f21dd82fcd179","66620a2eddcb3e96b18d4b1c","null","","null","","","","","","","","./tasks/HMM-beads/Images/BlackBeadChoice.png","","","","","","","","","",""
"image-keyboard-response","84","560876","0.0-3.0-4.0-1.0-2.23","5b87e73d53303600015ea51c","6662009ae78f21dd82fcd179","66620a2eddcb3e96b18d4b1c","null","","null","","","","","","","","./tasks/HMM-beads/Images/BlackBeadChoiceCorrect.png","","","","","","","","","",""
"image-keyboard-response","85","561478","0.0-3.0-4.0-1.0-0.24","5b87e73d53303600015ea51c","6662009ae78f21dd82fcd179","66620a2eddcb3e96b18d4b1c","601","","f","","","","","","","","./tasks/HMM-beads/Images/NewTrialBC.png","practice","0","24","1","1","0","0","false","",""
"image-keyboard-response","86","561785","0.0-3.0-4.0-1.0-1.24","5b87e73d53303600015ea51c","6662009ae78f21dd82fcd179","66620a2eddcb3e96b18d4b1c","null","","null","","","","","","","","./tasks/HMM-beads/Images/BlackBeadChoice.png","","","","","","","","","",""
"image-keyboard-response","87","562301","0.0-3.0-4.0-1.0-2.24","5b87e73d53303600015ea51c","6662009ae78f21dd82fcd179","66620a2eddcb3e96b18d4b1c","null","","null","","","","","","","","./tasks/HMM-beads/Images/BlackBeadChoiceWrong.png","","","","","","","","","",""
"image-keyboard-response","88","562892","0.0-3.0-4.0-1.0-0.25","5b87e73d53303600015ea51c","6662009ae78f21dd82fcd179","66620a2eddcb3e96b18d4b1c","590","","f","","","","","","","","./tasks/HMM-beads/Images/NewTrialWC.png","practice","0","25","1","1","1","0","false","",""
"image-keyboard-response","89","563209","0.0-3.0-4.0-1.0-1.25","5b87e73d53303600015ea51c","6662009ae78f21dd82fcd179","66620a2eddcb3e96b18d4b1c","null","","null","","","","","","","","./tasks/HMM-beads/Images/BlackBeadChoice.png","","","","","","","","","",""
"image-keyboard-response","90","563723","0.0-3.0-4.0-1.0-2.25","5b87e73d53303600015ea51c","6662009ae78f21dd82fcd179","66620a2eddcb3e96b18d4b1c","null","","null","","","","","","","","./tasks/HMM-beads/Images/BlackBeadChoiceWrong.png","","","","","","","","","",""
"image-keyboard-response","91","564323","0.0-3.0-4.0-1.0-0.26","5b87e73d53303600015ea51c","6662009ae78f21dd82fcd179","66620a2eddcb3e96b18d4b1c","599","","f","","","","","","","","./tasks/HMM-beads/Images/NewTrialWC.png","practice","0","26","1","1","1","0","false","",""
"image-keyboard-response","92","564638","0.0-3.0-4.0-1.0-1.26","5b87e73d53303600015ea51c","6662009ae78f21dd82fcd179","66620a2eddcb3e96b18d4b1c","null","","null","","","","","","","","./tasks/HMM-beads/Images/BlackBeadChoice.png","","","","","","","","","",""
"image-keyboard-response","93","565141","0.0-3.0-4.0-1.0-2.26","5b87e73d53303600015ea51c","6662009ae78f21dd82fcd179","66620a2eddcb3e96b18d4b1c","null","","null","","","","","","","","./tasks/HMM-beads/Images/BlackBeadChoiceWrong.png","","","","","","","","","",""
"image-keyboard-response","94","565601","0.0-3.0-4.0-1.0-0.27","5b87e73d53303600015ea51c","6662009ae78f21dd82fcd179","66620a2eddcb3e96b18d4b1c","459","","f","","","","","","","","./tasks/HMM-beads/Images/NewTrialWC.png","practice","0","27","1","1","1","0","false","",""
"image-keyboard-response","95","565908","0.0-3.0-4.0-1.0-1.27","5b87e73d53303600015ea51c","6662009ae78f21dd82fcd179","66620a2eddcb3e96b18d4b1c","null","","null","","","","","","","","./tasks/HMM-beads/Images/BlackBeadChoice.png","","","","","","","","","",""
"image-keyboard-response","96","566413","0.0-3.0-4.0-1.0-2.27","5b87e73d53303600015ea51c","6662009ae78f21dd82fcd179","66620a2eddcb3e96b18d4b1c","null","","null","","","","","","","","./tasks/HMM-beads/Images/BlackBeadChoiceWrong.png","","","","","","","","","",""
"image-keyboard-response","97","569929","0.0-3.0-4.0-1.0-0.28","5b87e73d53303600015ea51c","6662009ae78f21dd82fcd179","66620a2eddcb3e96b18d4b1c","3515","","f","","","","","","","","./tasks/HMM-beads/Images/NewTrialWC.png","practice","0","28","1","0","1","0","true","",""
"image-keyboard-response","98","570234","0.0-3.0-4.0-1.0-1.28","5b87e73d53303600015ea51c","6662009ae78f21dd82fcd179","66620a2eddcb3e96b18d4b1c","null","","null","","","","","","","","./tasks/HMM-beads/Images/BlackBeadChoice.png","","","","","","","","","",""
"image-keyboard-response","99","570741","0.0-3.0-4.0-1.0-2.28","5b87e73d53303600015ea51c","6662009ae78f21dd82fcd179","66620a2eddcb3e96b18d4b1c","null","","null","","","","","","","","./tasks/HMM-beads/Images/BlackBeadChoiceCorrect.png","","","","","","","","","",""
"image-keyboard-response","100","573055","0.0-3.0-4.0-1.0-0.29","5b87e73d53303600015ea51c","6662009ae78f21dd82fcd179","66620a2eddcb3e96b18d4b1c","2313","","f","","","","","","","","./tasks/HMM-beads/Images/NewTrialBC.png","practice","0","29","1","1","0","0","false","",""
"image-keyboard-response","101","573369","0.0-3.0-4.0-1.0-1.29","5b87e73d53303600015ea51c","6662009ae78f21dd82fcd179","66620a2eddcb3e96b18d4b1c","null","","null","","","","","","","","./tasks/HMM-beads/Images/BlackBeadChoice.png","","","","","","","","","",""
"image-keyboard-response","102","573885","0.0-3.0-4.0-1.0-2.29","5b87e73d53303600015ea51c","6662009ae78f21dd82fcd179","66620a2eddcb3e96b18d4b1c","null","","null","","","","","","","","./tasks/HMM-beads/Images/BlackBeadChoiceWrong.png","","","","","","","","","",""
"image-keyboard-response","103","576277","0.0-3.0-4.0-1.0-0.30","5b87e73d53303600015ea51c","6662009ae78f21dd82fcd179","66620a2eddcb3e96b18d4b1c","2387","","f","","","","","","","","./tasks/HMM-beads/Images/NewTrialWC.png","practice","0","30","1","0","1","0","true","",""
"image-keyboard-response","104","576593","0.0-3.0-4.0-1.0-1.30","5b87e73d53303600015ea51c","6662009ae78f21dd82fcd179","66620a2eddcb3e96b18d4b1c","null","","null","","","","","","","","./tasks/HMM-beads/Images/BlackBeadChoice.png","","","","","","","","","",""
"image-keyboard-response","105","577095","0.0-3.0-4.0-1.0-2.30","5b87e73d53303600015ea51c","6662009ae78f21dd82fcd179","66620a2eddcb3e96b18d4b1c","null","","null","","","","","","","","./tasks/HMM-beads/Images/BlackBeadChoiceCorrect.png","","","","","","","","","",""
"image-keyboard-response","106","577688","0.0-3.0-4.0-1.0-0.31","5b87e73d53303600015ea51c","6662009ae78f21dd82fcd179","66620a2eddcb3e96b18d4b1c","592","","f","","","","","","","","./tasks/HMM-beads/Images/NewTrialBC.png","practice","0","31","1","1","0","0","false","",""
"image-keyboard-response","107","578004","0.0-3.0-4.0-1.0-1.31","5b87e73d53303600015ea51c","6662009ae78f21dd82fcd179","66620a2eddcb3e96b18d4b1c","null","","null","","","","","","","","./tasks/HMM-beads/Images/BlackBeadChoice.png","","","","","","","","","",""
"image-keyboard-response","108","578520","0.0-3.0-4.0-1.0-2.31","5b87e73d53303600015ea51c","6662009ae78f21dd82fcd179","66620a2eddcb3e96b18d4b1c","null","","null","","","","","","","","./tasks/HMM-beads/Images/BlackBeadChoiceWrong.png","","","","","","","","","",""
"image-keyboard-response","109","593266","0.0-3.0-4.0-1.0-0.32","5b87e73d53303600015ea51c","6662009ae78f21dd82fcd179","66620a2eddcb3e96b18d4b1c","14746","","f","","","","","","","","./tasks/HMM-beads/Images/NewTrialWC.png","practice","0","32","1","1","1","0","false","",""
"image-keyboard-response","110","593579","0.0-3.0-4.0-1.0-1.32","5b87e73d53303600015ea51c","6662009ae78f21dd82fcd179","66620a2eddcb3e96b18d4b1c","null","","null","","","","","","","","./tasks/HMM-beads/Images/BlackBeadChoice.png","","","","","","","","","",""
"image-keyboard-response","111","594096","0.0-3.0-4.0-1.0-2.32","5b87e73d53303600015ea51c","6662009ae78f21dd82fcd179","66620a2eddcb3e96b18d4b1c","null","","null","","","","","","","","./tasks/HMM-beads/Images/BlackBeadChoiceWrong.png","","","","","","","","","",""
"image-keyboard-response","112","594219","0.0-3.0-4.0-1.0-0.33","5b87e73d53303600015ea51c","6662009ae78f21dd82fcd179","66620a2eddcb3e96b18d4b1c","122","","f","","","","","","","","./tasks/HMM-beads/Images/NewTrialWC.png","practice","0","33","1","1","1","0","false","",""
"image-keyboard-response","113","594534","0.0-3.0-4.0-1.0-1.33","5b87e73d53303600015ea51c","6662009ae78f21dd82fcd179","66620a2eddcb3e96b18d4b1c","null","","null","","","","","","","","./tasks/HMM-beads/Images/BlackBeadChoice.png","","","","","","","","","",""
"image-keyboard-response","114","595050","0.0-3.0-4.0-1.0-2.33","5b87e73d53303600015ea51c","6662009ae78f21dd82fcd179","66620a2eddcb3e96b18d4b1c","null","","null","","","","","","","","./tasks/HMM-beads/Images/BlackBeadChoiceWrong.png","","","","","","","","","",""
"image-keyboard-response","115","595426","0.0-3.0-4.0-1.0-0.34","5b87e73d53303600015ea51c","6662009ae78f21dd82fcd179","66620a2eddcb3e96b18d4b1c","375","","f","","","","","","","","./tasks/HMM-beads/Images/NewTrialWC.png","practice","0","34","1","1","1","0","false","",""
"image-keyboard-response","116","595737","0.0-3.0-4.0-1.0-1.34","5b87e73d53303600015ea51c","6662009ae78f21dd82fcd179","66620a2eddcb3e96b18d4b1c","null","","null","","","","","","","","./tasks/HMM-beads/Images/BlackBeadChoice.png","","","","","","","","","",""
"image-keyboard-response","117","596251","0.0-3.0-4.0-1.0-2.34","5b87e73d53303600015ea51c","6662009ae78f21dd82fcd179","66620a2eddcb3e96b18d4b1c","null","","null","","","","","","","","./tasks/HMM-beads/Images/BlackBeadChoiceWrong.png","","","","","","","","","",""
"image-keyboard-response","118","596696","0.0-3.0-4.0-1.0-0.35","5b87e73d53303600015ea51c","6662009ae78f21dd82fcd179","66620a2eddcb3e96b18d4b1c","444","","f","","","","","","","","./tasks/HMM-beads/Images/NewTrialWC.png","practice","0","35","1","1","1","0","false","",""
"image-keyboard-response","119","597002","0.0-3.0-4.0-1.0-1.35","5b87e73d53303600015ea51c","6662009ae78f21dd82fcd179","66620a2eddcb3e96b18d4b1c","null","","null","","","","","","","","./tasks/HMM-beads/Images/BlackBeadChoice.png","","","","","","","","","",""
"image-keyboard-response","120","597503","0.0-3.0-4.0-1.0-2.35","5b87e73d53303600015ea51c","6662009ae78f21dd82fcd179","66620a2eddcb3e96b18d4b1c","null","","null","","","","","","","","./tasks/HMM-beads/Images/BlackBeadChoiceWrong.png","","","","","","","","","",""
"image-keyboard-response","121","599430","0.0-3.0-4.0-1.0-0.36","5b87e73d53303600015ea51c","6662009ae78f21dd82fcd179","66620a2eddcb3e96b18d4b1c","1925","","j","","","","","","","","./tasks/HMM-beads/Images/NewTrialWC.png","practice","0","36","1","0","1","1","false","",""
"image-keyboard-response","122","599731","0.0-3.0-4.0-1.0-1.36","5b87e73d53303600015ea51c","6662009ae78f21dd82fcd179","66620a2eddcb3e96b18d4b1c","null","","null","","","","","","","","./tasks/HMM-beads/Images/WhiteBeadChoice.png","","","","","","","","","",""
"image-keyboard-response","123","600234","0.0-3.0-4.0-1.0-2.36","5b87e73d53303600015ea51c","6662009ae78f21dd82fcd179","66620a2eddcb3e96b18d4b1c","null","","null","","","","","","","","./tasks/HMM-beads/Images/WhiteBeadChoiceWrong.png","","","","","","","","","",""
"image-keyboard-response","124","600555","0.0-3.0-4.0-1.0-0.37","5b87e73d53303600015ea51c","6662009ae78f21dd82fcd179","66620a2eddcb3e96b18d4b1c","320","","f","","","","","","","","./tasks/HMM-beads/Images/NewTrialBC.png","practice","0","37","1","1","0","0","false","",""
"image-keyboard-response","125","600857","0.0-3.0-4.0-1.0-1.37","5b87e73d53303600015ea51c","6662009ae78f21dd82fcd179","66620a2eddcb3e96b18d4b1c","null","","null","","","","","","","","./tasks/HMM-beads/Images/BlackBeadChoice.png","","","","","","","","","",""
"image-keyboard-response","126","601378","0.0-3.0-4.0-1.0-2.37","5b87e73d53303600015ea51c","6662009ae78f21dd82fcd179","66620a2eddcb3e96b18d4b1c","null","","null","","","","","","","","./tasks/HMM-beads/Images/BlackBeadChoiceWrong.png","","","","","","","","","",""
"image-keyboard-response","127","601842","0.0-3.0-4.0-1.0-0.38","5b87e73d53303600015ea51c","6662009ae78f21dd82fcd179","66620a2eddcb3e96b18d4b1c","463","","j","","","","","","","","./tasks/HMM-beads/Images/NewTrialWC.png","practice","0","38","1","1","1","1","true","",""
"image-keyboard-response","128","602154","0.0-3.0-4.0-1.0-1.38","5b87e73d53303600015ea51c","6662009ae78f21dd82fcd179","66620a2eddcb3e96b18d4b1c","null","","null","","","","","","","","./tasks/HMM-beads/Images/WhiteBeadChoice.png","","","","","","","","","",""
"image-keyboard-response","129","602668","0.0-3.0-4.0-1.0-2.38","5b87e73d53303600015ea51c","6662009ae78f21dd82fcd179","66620a2eddcb3e96b18d4b1c","null","","null","","","","","","","","./tasks/HMM-beads/Images/WhiteBeadChoiceCorrect.png","","","","","","","","","",""
"image-keyboard-response","130","602967","0.0-3.0-4.0-1.0-0.39","5b87e73d53303600015ea51c","6662009ae78f21dd82fcd179","66620a2eddcb3e96b18d4b1c","298","","j","","","","","","","","./tasks/HMM-beads/Images/NewTrialWC.png","practice","0","39","1","1","1","1","true","",""
"image-keyboard-response","131","603274","0.0-3.0-4.0-1.0-1.39","5b87e73d53303600015ea51c","6662009ae78f21dd82fcd179","66620a2eddcb3e96b18d4b1c","null","","null","","","","","","","","./tasks/HMM-beads/Images/WhiteBeadChoice.png","","","","","","","","","",""
"image-keyboard-response","132","603782","0.0-3.0-4.0-1.0-2.39","5b87e73d53303600015ea51c","6662009ae78f21dd82fcd179","66620a2eddcb3e96b18d4b1c","null","","null","","","","","","","","./tasks/HMM-beads/Images/WhiteBeadChoiceCorrect.png","","","","","","","","","",""
"html-keyboard-response","133","726938","0.0-3.0-4.0-2.0","5b87e73d53303600015ea51c","6662009ae78f21dd82fcd179","66620a2eddcb3e96b18d4b1c","123156",""," ","","","","","","","","","","","","","","","","","",""
"instructions","134","744563","0.0-3.0-5.0","5b87e73d53303600015ea51c","6662009ae78f21dd82fcd179","66620a2eddcb3e96b18d4b1c","17625","","","","[{""page_index"":0,""viewing_time"":15373},{""page_index"":1,""viewing_time"":2251}]","","","","","","","","","","","","","","","",""
"html-keyboard-response","135","747539","0.0-3.0-6.0-0.0","5b87e73d53303600015ea51c","6662009ae78f21dd82fcd179","66620a2eddcb3e96b18d4b1c","2975",""," ","","","","","","","","<div align=center>In this block, there will be a <b>1% chance</b> that the jar on the next trial will be different from the jar on the current trial.<br><br></div>","","","","","","","","","",""
"image-keyboard-response","136","750631","0.0-3.0-6.0-1.0-0.0","5b87e73d53303600015ea51c","6662009ae78f21dd82fcd179","66620a2eddcb3e96b18d4b1c","3091","","f","","","","","","","","./tasks/HMM-beads/Images/NoChoice.png","lowH","1","0","1","0","9","0","true","",""
"image-keyboard-response","137","750946","0.0-3.0-6.0-1.0-1.0","5b87e73d53303600015ea51c","6662009ae78f21dd82fcd179","66620a2eddcb3e96b18d4b1c","null","","null","","","","","","","","./tasks/HMM-beads/Images/BlackBeadChoice.png","","","","","","","","","",""
"image-keyboard-response","138","751458","0.0-3.0-6.0-1.0-2.0","5b87e73d53303600015ea51c","6662009ae78f21dd82fcd179","66620a2eddcb3e96b18d4b1c","null","","null","","","","","","","","./tasks/HMM-beads/Images/BlackBeadChoiceCorrect.png","","","","","","","","","",""
"image-keyboard-response","139","752230","0.0-3.0-6.0-1.0-0.1","5b87e73d53303600015ea51c","6662009ae78f21dd82fcd179","66620a2eddcb3e96b18d4b1c","771","","f","","","","","","","","./tasks/HMM-beads/Images/NewTrialBC.png","lowH","1","1","1","1","0","0","false","",""
"image-keyboard-response","140","752541","0.0-3.0-6.0-1.0-1.1","5b87e73d53303600015ea51c","6662009ae78f21dd82fcd179","66620a2eddcb3e96b18d4b1c","null","","null","","","","","","","","./tasks/HMM-beads/Images/BlackBeadChoice.png","","","","","","","","","",""
"image-keyboard-response","141","753057","0.0-3.0-6.0-1.0-2.1","5b87e73d53303600015ea51c","6662009ae78f21dd82fcd179","66620a2eddcb3e96b18d4b1c","null","","null","","","","","","","","./tasks/HMM-beads/Images/BlackBeadChoiceWrong.png","","","","","","","","","",""
"image-keyboard-response","142","753843","0.0-3.0-6.0-1.0-0.2","5b87e73d53303600015ea51c","6662009ae78f21dd82fcd179","66620a2eddcb3e96b18d4b1c","785","","j","","","","","","","","./tasks/HMM-beads/Images/NewTrialWC.png","lowH","1","2","1","1","1","1","true","",""
"image-keyboard-response","143","754154","0.0-3.0-6.0-1.0-1.2","5b87e73d53303600015ea51c","6662009ae78f21dd82fcd179","66620a2eddcb3e96b18d4b1c","null","","null","","","","","","","","./tasks/HMM-beads/Images/WhiteBeadChoice.png","","","","","","","","","",""
"image-keyboard-response","144","754668","0.0-3.0-6.0-1.0-2.2","5b87e73d53303600015ea51c","6662009ae78f21dd82fcd179","66620a2eddcb3e96b18d4b1c","null","","null","","","","","","","","./tasks/HMM-beads/Images/WhiteBeadChoiceCorrect.png","","","","","","","","","",""
"image-keyboard-response","145","755126","0.0-3.0-6.0-1.0-0.3","5b87e73d53303600015ea51c","6662009ae78f21dd82fcd179","66620a2eddcb3e96b18d4b1c","457","","j","","","","","","","","./tasks/HMM-beads/Images/NewTrialWC.png","lowH","1","3","1","1","1","1","true","",""
"image-keyboard-response","146","755428","0.0-3.0-6.0-1.0-1.3","5b87e73d53303600015ea51c","6662009ae78f21dd82fcd179","66620a2eddcb3e96b18d4b1c","null","","null","","","","","","","","./tasks/HMM-beads/Images/WhiteBeadChoice.png","","","","","","","","","",""
"image-keyboard-response","147","755933","0.0-3.0-6.0-1.0-2.3","5b87e73d53303600015ea51c","6662009ae78f21dd82fcd179","66620a2eddcb3e96b18d4b1c","null","","null","","","","","","","","./tasks/HMM-beads/Images/WhiteBeadChoiceCorrect.png","","","","","","","","","",""
"image-keyboard-response","148","756458","0.0-3.0-6.0-1.0-0.4","5b87e73d53303600015ea51c","6662009ae78f21dd82fcd179","66620a2eddcb3e96b18d4b1c","524","","j","","","","","","","","./tasks/HMM-beads/Images/NewTrialWC.png","lowH","1","4","1","1","1","1","true","",""
"image-keyboard-response","149","756764","0.0-3.0-6.0-1.0-1.4","5b87e73d53303600015ea51c","6662009ae78f21dd82fcd179","66620a2eddcb3e96b18d4b1c","null","","null","","","","","","","","./tasks/HMM-beads/Images/WhiteBeadChoice.png","","","","","","","","","",""
"image-keyboard-response","150","757274","0.0-3.0-6.0-1.0-2.4","5b87e73d53303600015ea51c","6662009ae78f21dd82fcd179","66620a2eddcb3e96b18d4b1c","null","","null","","","","","","","","./tasks/HMM-beads/Images/WhiteBeadChoiceCorrect.png","","","","","","","","","",""
"image-keyboard-response","151","757742","0.0-3.0-6.0-1.0-0.5","5b87e73d53303600015ea51c","6662009ae78f21dd82fcd179","66620a2eddcb3e96b18d4b1c","467","","j","","","","","","","","./tasks/HMM-beads/Images/NewTrialWC.png","lowH","1","5","1","1","1","1","true","",""
"image-keyboard-response","152","758059","0.0-3.0-6.0-1.0-1.5","5b87e73d53303600015ea51c","6662009ae78f21dd82fcd179","66620a2eddcb3e96b18d4b1c","null","","null","","","","","","","","./tasks/HMM-beads/Images/WhiteBeadChoice.png","","","","","","","","","",""
"image-keyboard-response","153","758563","0.0-3.0-6.0-1.0-2.5","5b87e73d53303600015ea51c","6662009ae78f21dd82fcd179","66620a2eddcb3e96b18d4b1c","null","","null","","","","","","","","./tasks/HMM-beads/Images/WhiteBeadChoiceCorrect.png","","","","","","","","","",""
"image-keyboard-response","154","759065","0.0-3.0-6.0-1.0-0.6","5b87e73d53303600015ea51c","6662009ae78f21dd82fcd179","66620a2eddcb3e96b18d4b1c","501","","j","","","","","","","","./tasks/HMM-beads/Images/NewTrialWC.png","lowH","1","6","1","0","1","1","false","",""
"image-keyboard-response","155","759369","0.0-3.0-6.0-1.0-1.6","5b87e73d53303600015ea51c","6662009ae78f21dd82fcd179","66620a2eddcb3e96b18d4b1c","null","","null","","","","","","","","./tasks/HMM-beads/Images/WhiteBeadChoice.png","","","","","","","","","",""
"image-keyboard-response","156","759884","0.0-3.0-6.0-1.0-2.6","5b87e73d53303600015ea51c","6662009ae78f21dd82fcd179","66620a2eddcb3e96b18d4b1c","null","","null","","","","","","","","./tasks/HMM-beads/Images/WhiteBeadChoiceWrong.png","","","","","","","","","",""
"image-keyboard-response","157","760653","0.0-3.0-6.0-1.0-0.7","5b87e73d53303600015ea51c","6662009ae78f21dd82fcd179","66620a2eddcb3e96b18d4b1c","768","","j","","","","","","","","./tasks/HMM-beads/Images/NewTrialBC.png","lowH","1","7","1","1","0","1","true","",""
"image-keyboard-response","158","760958","0.0-3.0-6.0-1.0-1.7","5b87e73d53303600015ea51c","6662009ae78f21dd82fcd179","66620a2eddcb3e96b18d4b1c","null","","null","","","","","","","","./tasks/HMM-beads/Images/WhiteBeadChoice.png","","","","","","","","","",""
"image-keyboard-response","159","761461","0.0-3.0-6.0-1.0-2.7","5b87e73d53303600015ea51c","6662009ae78f21dd82fcd179","66620a2eddcb3e96b18d4b1c","null","","null","","","","","","","","./tasks/HMM-beads/Images/WhiteBeadChoiceCorrect.png","","","","","","","","","",""
"image-keyboard-response","160","761973","0.0-3.0-6.0-1.0-0.8","5b87e73d53303600015ea51c","6662009ae78f21dd82fcd179","66620a2eddcb3e96b18d4b1c","511","","j","","","","","","","","./tasks/HMM-beads/Images/NewTrialWC.png","lowH","1","8","1","1","1","1","true","",""
"image-keyboard-response","161","762290","0.0-3.0-6.0-1.0-1.8","5b87e73d53303600015ea51c","6662009ae78f21dd82fcd179","66620a2eddcb3e96b18d4b1c","null","","null","","","","","","","","./tasks/HMM-beads/Images/WhiteBeadChoice.png","","","","","","","","","",""
"image-keyboard-response","162","762793","0.0-3.0-6.0-1.0-2.8","5b87e73d53303600015ea51c","6662009ae78f21dd82fcd179","66620a2eddcb3e96b18d4b1c","null","","null","","","","","","","","./tasks/HMM-beads/Images/WhiteBeadChoiceCorrect.png","","","","","","","","","",""
"image-keyboard-response","163","763448","0.0-3.0-6.0-1.0-0.9","5b87e73d53303600015ea51c","6662009ae78f21dd82fcd179","66620a2eddcb3e96b18d4b1c","654","","j","","","","","","","","./tasks/HMM-beads/Images/NewTrialWC.png","lowH","1","9","1","1","1","1","true","",""
"image-keyboard-response","164","763760","0.0-3.0-6.0-1.0-1.9","5b87e73d53303600015ea51c","6662009ae78f21dd82fcd179","66620a2eddcb3e96b18d4b1c","null","","null","","","","","","","","./tasks/HMM-beads/Images/WhiteBeadChoice.png","","","","","","","","","",""
"image-keyboard-response","165","764267","0.0-3.0-6.0-1.0-2.9","5b87e73d53303600015ea51c","6662009ae78f21dd82fcd179","66620a2eddcb3e96b18d4b1c","null","","null","","","","","","","","./tasks/HMM-beads/Images/WhiteBeadChoiceCorrect.png","","","","","","","","","",""
"image-keyboard-response","166","764952","0.0-3.0-6.0-1.0-0.10","5b87e73d53303600015ea51c","6662009ae78f21dd82fcd179","66620a2eddcb3e96b18d4b1c","676","","j","","","","","","","","./tasks/HMM-beads/Images/NewTrialWC.png","lowH","1","10","1","1","1","1","true","",""
"image-keyboard-response","167","765262","0.0-3.0-6.0-1.0-1.10","5b87e73d53303600015ea51c","6662009ae78f21dd82fcd179","66620a2eddcb3e96b18d4b1c","null","","null","","","","","","","","./tasks/HMM-beads/Images/WhiteBeadChoice.png","","","","","","","","","",""
"image-keyboard-response","168","765776","0.0-3.0-6.0-1.0-2.10","5b87e73d53303600015ea51c","6662009ae78f21dd82fcd179","66620a2eddcb3e96b18d4b1c","null","","null","","","","","","","","./tasks/HMM-beads/Images/WhiteBeadChoiceCorrect.png","","","","","","","","","",""
"image-keyboard-response","169","766438","0.0-3.0-6.0-1.0-0.11","5b87e73d53303600015ea51c","6662009ae78f21dd82fcd179","66620a2eddcb3e96b18d4b1c","662","","j","","","","","","","","./tasks/HMM-beads/Images/NewTrialWC.png","lowH","1","11","1","1","1","1","true","",""
"image-keyboard-response","170","766740","0.0-3.0-6.0-1.0-1.11","5b87e73d53303600015ea51c","6662009ae78f21dd82fcd179","66620a2eddcb3e96b18d4b1c","null","","null","","","","","","","","./tasks/HMM-beads/Images/WhiteBeadChoice.png","","","","","","","","","",""
"image-keyboard-response","171","767253","0.0-3.0-6.0-1.0-2.11","5b87e73d53303600015ea51c","6662009ae78f21dd82fcd179","66620a2eddcb3e96b18d4b1c","null","","null","","","","","","","","./tasks/HMM-beads/Images/WhiteBeadChoiceCorrect.png","","","","","","","","","",""
"image-keyboard-response","172","767851","0.0-3.0-6.0-1.0-0.12","5b87e73d53303600015ea51c","6662009ae78f21dd82fcd179","66620a2eddcb3e96b18d4b1c","597","","j","","","","","","","","./tasks/HMM-beads/Images/NewTrialWC.png","lowH","1","12","1","1","1","1","true","",""
"image-keyboard-response","173","768157","0.0-3.0-6.0-1.0-1.12","5b87e73d53303600015ea51c","6662009ae78f21dd82fcd179","66620a2eddcb3e96b18d4b1c","null","","null","","","","","","","","./tasks/HMM-beads/Images/WhiteBeadChoice.png","","","","","","","","","",""
"image-keyboard-response","174","768668","0.0-3.0-6.0-1.0-2.12","5b87e73d53303600015ea51c","6662009ae78f21dd82fcd179","66620a2eddcb3e96b18d4b1c","null","","null","","","","","","","","./tasks/HMM-beads/Images/WhiteBeadChoiceCorrect.png","","","","","","","","","",""
"image-keyboard-response","175","769163","0.0-3.0-6.0-1.0-0.13","5b87e73d53303600015ea51c","6662009ae78f21dd82fcd179","66620a2eddcb3e96b18d4b1c","495","","j","","","","","","","","./tasks/HMM-beads/Images/NewTrialWC.png","lowH","1","13","1","0","1","1","false","",""
"image-keyboard-response","176","769474","0.0-3.0-6.0-1.0-1.13","5b87e73d53303600015ea51c","6662009ae78f21dd82fcd179","66620a2eddcb3e96b18d4b1c","null","","null","","","","","","","","./tasks/HMM-beads/Images/WhiteBeadChoice.png","","","","","","","","","",""
"image-keyboard-response","177","769987","0.0-3.0-6.0-1.0-2.13","5b87e73d53303600015ea51c","6662009ae78f21dd82fcd179","66620a2eddcb3e96b18d4b1c","null","","null","","","","","","","","./tasks/HMM-beads/Images/WhiteBeadChoiceWrong.png","","","","","","","","","",""
"image-keyboard-response","178","770335","0.0-3.0-6.0-1.0-0.14","5b87e73d53303600015ea51c","6662009ae78f21dd82fcd179","66620a2eddcb3e96b18d4b1c","347","","j","","","","","","","","./tasks/HMM-beads/Images/NewTrialBC.png","lowH","1","14","1","0","0","1","false","",""
"image-keyboard-response","179","770637","0.0-3.0-6.0-1.0-1.14","5b87e73d53303600015ea51c","6662009ae78f21dd82fcd179","66620a2eddcb3e96b18d4b1c","null","","null","","","","","","","","./tasks/HMM-beads/Images/WhiteBeadChoice.png","","","","","","","","","",""
"image-keyboard-response","180","771149","0.0-3.0-6.0-1.0-2.14","5b87e73d53303600015ea51c","6662009ae78f21dd82fcd179","66620a2eddcb3e96b18d4b1c","null","","null","","","","","","","","./tasks/HMM-beads/Images/WhiteBeadChoiceWrong.png","","","","","","","","","",""
"image-keyboard-response","181","771627","0.0-3.0-6.0-1.0-0.15","5b87e73d53303600015ea51c","6662009ae78f21dd82fcd179","66620a2eddcb3e96b18d4b1c","477","","j","","","","","","","","./tasks/HMM-beads/Images/NewTrialBC.png","lowH","1","15","1","1","0","1","true","",""
"image-keyboard-response","182","771942","0.0-3.0-6.0-1.0-1.15","5b87e73d53303600015ea51c","6662009ae78f21dd82fcd179","66620a2eddcb3e96b18d4b1c","null","","null","","","","","","","","./tasks/HMM-beads/Images/WhiteBeadChoice.png","","","","","","","","","",""
"image-keyboard-response","183","772447","0.0-3.0-6.0-1.0-2.15","5b87e73d53303600015ea51c","6662009ae78f21dd82fcd179","66620a2eddcb3e96b18d4b1c","null","","null","","","","","","","","./tasks/HMM-beads/Images/WhiteBeadChoiceCorrect.png","","","","","","","","","",""
"image-keyboard-response","184","772809","0.0-3.0-6.0-1.0-0.16","5b87e73d53303600015ea51c","6662009ae78f21dd82fcd179","66620a2eddcb3e96b18d4b1c","361","","j","","","","","","","","./tasks/HMM-beads/Images/NewTrialWC.png","lowH","1","16","1","1","1","1","true","",""
"image-keyboard-response","185","773119","0.0-3.0-6.0-1.0-1.16","5b87e73d53303600015ea51c","6662009ae78f21dd82fcd179","66620a2eddcb3e96b18d4b1c","null","","null","","","","","","","","./tasks/HMM-beads/Images/WhiteBeadChoice.png","","","","","","","","","",""
"image-keyboard-response","186","773624","0.0-3.0-6.0-1.0-2.16","5b87e73d53303600015ea51c","6662009ae78f21dd82fcd179","66620a2eddcb3e96b18d4b1c","null","","null","","","","","","","","./tasks/HMM-beads/Images/WhiteBeadChoiceCorrect.png","","","","","","","","","",""
"image-keyboard-response","187","773941","0.0-3.0-6.0-1.0-0.17","5b87e73d53303600015ea51c","6662009ae78f21dd82fcd179","66620a2eddcb3e96b18d4b1c","316","","j","","","","","","","","./tasks/HMM-beads/Images/NewTrialWC.png","lowH","1","17","1","1","1","1","true","",""
"image-keyboard-response","188","774245","0.0-3.0-6.0-1.0-1.17","5b87e73d53303600015ea51c","6662009ae78f21dd82fcd179","66620a2eddcb3e96b18d4b1c","null","","null","","","","","","","","./tasks/HMM-beads/Images/WhiteBeadChoice.png","","","","","","","","","",""
"image-keyboard-response","189","774758","0.0-3.0-6.0-1.0-2.17","5b87e73d53303600015ea51c","6662009ae78f21dd82fcd179","66620a2eddcb3e96b18d4b1c","null","","null","","","","","","","","./tasks/HMM-beads/Images/WhiteBeadChoiceCorrect.png","","","","","","","","","",""
"image-keyboard-response","190","774922","0.0-3.0-6.0-1.0-0.18","5b87e73d53303600015ea51c","6662009ae78f21dd82fcd179","66620a2eddcb3e96b18d4b1c","163","","j","","","","","","","","./tasks/HMM-beads/Images/NewTrialWC.png","lowH","1","18","1","1","1","1","true","",""
"image-keyboard-response","191","775229","0.0-3.0-6.0-1.0-1.18","5b87e73d53303600015ea51c","6662009ae78f21dd82fcd179","66620a2eddcb3e96b18d4b1c","null","","null","","","","","","","","./tasks/HMM-beads/Images/WhiteBeadChoice.png","","","","","","","","","",""
"image-keyboard-response","192","775737","0.0-3.0-6.0-1.0-2.18","5b87e73d53303600015ea51c","6662009ae78f21dd82fcd179","66620a2eddcb3e96b18d4b1c","null","","null","","","","","","","","./tasks/HMM-beads/Images/WhiteBeadChoiceCorrect.png","","","","","","","","","",""
"image-keyboard-response","193","775881","0.0-3.0-6.0-1.0-0.19","5b87e73d53303600015ea51c","6662009ae78f21dd82fcd179","66620a2eddcb3e96b18d4b1c","143","","j","","","","","","","","./tasks/HMM-beads/Images/NewTrialWC.png","lowH","1","19","1","1","1","1","true","",""
"image-keyboard-response","194","776194","0.0-3.0-6.0-1.0-1.19","5b87e73d53303600015ea51c","6662009ae78f21dd82fcd179","66620a2eddcb3e96b18d4b1c","null","","null","","","","","","","","./tasks/HMM-beads/Images/WhiteBeadChoice.png","","","","","","","","","",""
"image-keyboard-response","195","776709","0.0-3.0-6.0-1.0-2.19","5b87e73d53303600015ea51c","6662009ae78f21dd82fcd179","66620a2eddcb3e96b18d4b1c","null","","null","","","","","","","","./tasks/HMM-beads/Images/WhiteBeadChoiceCorrect.png","","","","","","","","","",""
"image-keyboard-response","196","776825","0.0-3.0-6.0-1.0-0.20","5b87e73d53303600015ea51c","6662009ae78f21dd82fcd179","66620a2eddcb3e96b18d4b1c","115","","j","","","","","","","","./tasks/HMM-beads/Images/NewTrialWC.png","lowH","1","20","1","1","1","1","true","",""
"image-keyboard-response","197","777139","0.0-3.0-6.0-1.0-1.20","5b87e73d53303600015ea51c","6662009ae78f21dd82fcd179","66620a2eddcb3e96b18d4b1c","null","","null","","","","","","","","./tasks/HMM-beads/Images/WhiteBeadChoice.png","","","","","","","","","",""
"image-keyboard-response","198","777649","0.0-3.0-6.0-1.0-2.20","5b87e73d53303600015ea51c","6662009ae78f21dd82fcd179","66620a2eddcb3e96b18d4b1c","null","","null","","","","","","","","./tasks/HMM-beads/Images/WhiteBeadChoiceCorrect.png","","","","","","","","","",""
"image-keyboard-response","199","777697","0.0-3.0-6.0-1.0-0.21","5b87e73d53303600015ea51c","6662009ae78f21dd82fcd179","66620a2eddcb3e96b18d4b1c","47","","j","","","","","","","","./tasks/HMM-beads/Images/NewTrialWC.png","lowH","1","21","1","1","1","1","true","",""
"image-keyboard-response","200","778002","0.0-3.0-6.0-1.0-1.21","5b87e73d53303600015ea51c","6662009ae78f21dd82fcd179","66620a2eddcb3e96b18d4b1c","null","","null","","","","","","","","./tasks/HMM-beads/Images/WhiteBeadChoice.png","","","","","","","","","",""
"image-keyboard-response","201","778507","0.0-3.0-6.0-1.0-2.21","5b87e73d53303600015ea51c","6662009ae78f21dd82fcd179","66620a2eddcb3e96b18d4b1c","null","","null","","","","","","","","./tasks/HMM-beads/Images/WhiteBeadChoiceCorrect.png","","","","","","","","","",""
"image-keyboard-response","202","778921","0.0-3.0-6.0-1.0-0.22","5b87e73d53303600015ea51c","6662009ae78f21dd82fcd179","66620a2eddcb3e96b18d4b1c","412","","j","","","","","","","","./tasks/HMM-beads/Images/NewTrialWC.png","lowH","1","22","1","1","1","1","true","",""
"image-keyboard-response","203","779233","0.0-3.0-6.0-1.0-1.22","5b87e73d53303600015ea51c","6662009ae78f21dd82fcd179","66620a2eddcb3e96b18d4b1c","null","","null","","","","","","","","./tasks/HMM-beads/Images/WhiteBeadChoice.png","","","","","","","","","",""
"image-keyboard-response","204","779746","0.0-3.0-6.0-1.0-2.22","5b87e73d53303600015ea51c","6662009ae78f21dd82fcd179","66620a2eddcb3e96b18d4b1c","null","","null","","","","","","","","./tasks/HMM-beads/Images/WhiteBeadChoiceCorrect.png","","","","","","","","","",""
"image-keyboard-response","205","780134","0.0-3.0-6.0-1.0-0.23","5b87e73d53303600015ea51c","6662009ae78f21dd82fcd179","66620a2eddcb3e96b18d4b1c","387","","j","","","","","","","","./tasks/HMM-beads/Images/NewTrialWC.png","lowH","1","23","1","1","1","1","true","",""
"image-keyboard-response","206","780449","0.0-3.0-6.0-1.0-1.23","5b87e73d53303600015ea51c","6662009ae78f21dd82fcd179","66620a2eddcb3e96b18d4b1c","null","","null","","","","","","","","./tasks/HMM-beads/Images/WhiteBeadChoice.png","","","","","","","","","",""
"image-keyboard-response","207","780954","0.0-3.0-6.0-1.0-2.23","5b87e73d53303600015ea51c","6662009ae78f21dd82fcd179","66620a2eddcb3e96b18d4b1c","null","","null","","","","","","","","./tasks/HMM-beads/Images/WhiteBeadChoiceCorrect.png","","","","","","","","","",""
"image-keyboard-response","208","781438","0.0-3.0-6.0-1.0-0.24","5b87e73d53303600015ea51c","6662009ae78f21dd82fcd179","66620a2eddcb3e96b18d4b1c","483","","j","","","","","","","","./tasks/HMM-beads/Images/NewTrialWC.png","lowH","1","24","1","0","1","1","false","",""
"image-keyboard-response","209","781744","0.0-3.0-6.0-1.0-1.24","5b87e73d53303600015ea51c","6662009ae78f21dd82fcd179","66620a2eddcb3e96b18d4b1c","null","","null","","","","","","","","./tasks/HMM-beads/Images/WhiteBeadChoice.png","","","","","","","","","",""
"image-keyboard-response","210","782252","0.0-3.0-6.0-1.0-2.24","5b87e73d53303600015ea51c","6662009ae78f21dd82fcd179","66620a2eddcb3e96b18d4b1c","null","","null","","","","","","","","./tasks/HMM-beads/Images/WhiteBeadChoiceWrong.png","","","","","","","","","",""
"image-keyboard-response","211","782717","0.0-3.0-6.0-1.0-0.25","5b87e73d53303600015ea51c","6662009ae78f21dd82fcd179","66620a2eddcb3e96b18d4b1c","465","","j","","","","","","","","./tasks/HMM-beads/Images/NewTrialBC.png","lowH","1","25","1","1","0","1","true","",""
"image-keyboard-response","212","783033","0.0-3.0-6.0-1.0-1.25","5b87e73d53303600015ea51c","6662009ae78f21dd82fcd179","66620a2eddcb3e96b18d4b1c","null","","null","","","","","","","","./tasks/HMM-beads/Images/WhiteBeadChoice.png","","","","","","","","","",""
"image-keyboard-response","213","783544","0.0-3.0-6.0-1.0-2.25","5b87e73d53303600015ea51c","6662009ae78f21dd82fcd179","66620a2eddcb3e96b18d4b1c","null","","null","","","","","","","","./tasks/HMM-beads/Images/WhiteBeadChoiceCorrect.png","","","","","","","","","",""
"image-keyboard-response","214","783731","0.0-3.0-6.0-1.0-0.26","5b87e73d53303600015ea51c","6662009ae78f21dd82fcd179","66620a2eddcb3e96b18d4b1c","186","","j","","","","","","","","./tasks/HMM-beads/Images/NewTrialWC.png","lowH","1","26","1","0","1","1","false","",""
"image-keyboard-response","215","784034","0.0-3.0-6.0-1.0-1.26","5b87e73d53303600015ea51c","6662009ae78f21dd82fcd179","66620a2eddcb3e96b18d4b1c","null","","null","","","","","","","","./tasks/HMM-beads/Images/WhiteBeadChoice.png","","","","","","","","","",""
"image-keyboard-response","216","784548","0.0-3.0-6.0-1.0-2.26","5b87e73d53303600015ea51c","6662009ae78f21dd82fcd179","66620a2eddcb3e96b18d4b1c","null","","null","","","","","","","","./tasks/HMM-beads/Images/WhiteBeadChoiceWrong.png","","","","","","","","","",""
"image-keyboard-response","217","785002","0.0-3.0-6.0-1.0-0.27","5b87e73d53303600015ea51c","6662009ae78f21dd82fcd179","66620a2eddcb3e96b18d4b1c","453","","j","","","","","","","","./tasks/HMM-beads/Images/NewTrialBC.png","lowH","1","27","1","1","0","1","true","",""
"image-keyboard-response","218","785310","0.0-3.0-6.0-1.0-1.27","5b87e73d53303600015ea51c","6662009ae78f21dd82fcd179","66620a2eddcb3e96b18d4b1c","null","","null","","","","","","","","./tasks/HMM-beads/Images/WhiteBeadChoice.png","","","","","","","","","",""
"image-keyboard-response","219","785821","0.0-3.0-6.0-1.0-2.27","5b87e73d53303600015ea51c","6662009ae78f21dd82fcd179","66620a2eddcb3e96b18d4b1c","null","","null","","","","","","","","./tasks/HMM-beads/Images/WhiteBeadChoiceCorrect.png","","","","","","","","","",""
"image-keyboard-response","220","786038","0.0-3.0-6.0-1.0-0.28","5b87e73d53303600015ea51c","6662009ae78f21dd82fcd179","66620a2eddcb3e96b18d4b1c","217","","j","","","","","","","","./tasks/HMM-beads/Images/NewTrialWC.png","lowH","1","28","1","1","1","1","true","",""
"image-keyboard-response","221","786340","0.0-3.0-6.0-1.0-1.28","5b87e73d53303600015ea51c","6662009ae78f21dd82fcd179","66620a2eddcb3e96b18d4b1c","null","","null","","","","","","","","./tasks/HMM-beads/Images/WhiteBeadChoice.png","","","","","","","","","",""
"image-keyboard-response","222","786846","0.0-3.0-6.0-1.0-2.28","5b87e73d53303600015ea51c","6662009ae78f21dd82fcd179","66620a2eddcb3e96b18d4b1c","null","","null","","","","","","","","./tasks/HMM-beads/Images/WhiteBeadChoiceCorrect.png","","","","","","","","","",""
"image-keyboard-response","223","787005","0.0-3.0-6.0-1.0-0.29","5b87e73d53303600015ea51c","6662009ae78f21dd82fcd179","66620a2eddcb3e96b18d4b1c","159","","j","","","","","","","","./tasks/HMM-beads/Images/NewTrialWC.png","lowH","1","29","1","1","1","1","true","",""
"image-keyboard-response","224","787310","0.0-3.0-6.0-1.0-1.29","5b87e73d53303600015ea51c","6662009ae78f21dd82fcd179","66620a2eddcb3e96b18d4b1c","null","","null","","","","","","","","./tasks/HMM-beads/Images/WhiteBeadChoice.png","","","","","","","","","",""
"image-keyboard-response","225","787815","0.0-3.0-6.0-1.0-2.29","5b87e73d53303600015ea51c","6662009ae78f21dd82fcd179","66620a2eddcb3e96b18d4b1c","null","","null","","","","","","","","./tasks/HMM-beads/Images/WhiteBeadChoiceCorrect.png","","","","","","","","","",""
"image-keyboard-response","226","787916","0.0-3.0-6.0-1.0-0.30","5b87e73d53303600015ea51c","6662009ae78f21dd82fcd179","66620a2eddcb3e96b18d4b1c","100","","j","","","","","","","","./tasks/HMM-beads/Images/NewTrialWC.png","lowH","1","30","1","1","1","1","true","",""
"image-keyboard-response","227","788229","0.0-3.0-6.0-1.0-1.30","5b87e73d53303600015ea51c","6662009ae78f21dd82fcd179","66620a2eddcb3e96b18d4b1c","null","","null","","","","","","","","./tasks/HMM-beads/Images/WhiteBeadChoice.png","","","","","","","","","",""
"image-keyboard-response","228","788731","0.0-3.0-6.0-1.0-2.30","5b87e73d53303600015ea51c","6662009ae78f21dd82fcd179","66620a2eddcb3e96b18d4b1c","null","","null","","","","","","","","./tasks/HMM-beads/Images/WhiteBeadChoiceCorrect.png","","","","","","","","","",""
"image-keyboard-response","229","788742","0.0-3.0-6.0-1.0-0.31","5b87e73d53303600015ea51c","6662009ae78f21dd82fcd179","66620a2eddcb3e96b18d4b1c","10","","j","","","","","","","","./tasks/HMM-beads/Images/NewTrialWC.png","lowH","1","31","1","1","1","1","true","",""
"image-keyboard-response","230","789059","0.0-3.0-6.0-1.0-1.31","5b87e73d53303600015ea51c","6662009ae78f21dd82fcd179","66620a2eddcb3e96b18d4b1c","null","","null","","","","","","","","./tasks/HMM-beads/Images/WhiteBeadChoice.png","","","","","","","","","",""
"image-keyboard-response","231","789569","0.0-3.0-6.0-1.0-2.31","5b87e73d53303600015ea51c","6662009ae78f21dd82fcd179","66620a2eddcb3e96b18d4b1c","null","","null","","","","","","","","./tasks/HMM-beads/Images/WhiteBeadChoiceCorrect.png","","","","","","","","","",""
"image-keyboard-response","232","789783","0.0-3.0-6.0-1.0-0.32","5b87e73d53303600015ea51c","6662009ae78f21dd82fcd179","66620a2eddcb3e96b18d4b1c","213","","j","","","","","","","","./tasks/HMM-beads/Images/NewTrialWC.png","lowH","1","32","1","1","1","1","true","",""
"image-keyboard-response","233","790097","0.0-3.0-6.0-1.0-1.32","5b87e73d53303600015ea51c","6662009ae78f21dd82fcd179","66620a2eddcb3e96b18d4b1c","null","","null","","","","","","","","./tasks/HMM-beads/Images/WhiteBeadChoice.png","","","","","","","","","",""
"image-keyboard-response","234","790599","0.0-3.0-6.0-1.0-2.32","5b87e73d53303600015ea51c","6662009ae78f21dd82fcd179","66620a2eddcb3e96b18d4b1c","null","","null","","","","","","","","./tasks/HMM-beads/Images/WhiteBeadChoiceCorrect.png","","","","","","","","","",""
"image-keyboard-response","235","790926","0.0-3.0-6.0-1.0-0.33","5b87e73d53303600015ea51c","6662009ae78f21dd82fcd179","66620a2eddcb3e96b18d4b1c","326","","j","","","","","","","","./tasks/HMM-beads/Images/NewTrialWC.png","lowH","1","33","1","1","1","1","true","",""
"image-keyboard-response","236","791233","0.0-3.0-6.0-1.0-1.33","5b87e73d53303600015ea51c","6662009ae78f21dd82fcd179","66620a2eddcb3e96b18d4b1c","null","","null","","","","","","","","./tasks/HMM-beads/Images/WhiteBeadChoice.png","","","","","","","","","",""
"image-keyboard-response","237","791746","0.0-3.0-6.0-1.0-2.33","5b87e73d53303600015ea51c","6662009ae78f21dd82fcd179","66620a2eddcb3e96b18d4b1c","null","","null","","","","","","","","./tasks/HMM-beads/Images/WhiteBeadChoiceCorrect.png","","","","","","","","","",""
"image-keyboard-response","238","791901","0.0-3.0-6.0-1.0-0.34","5b87e73d53303600015ea51c","6662009ae78f21dd82fcd179","66620a2eddcb3e96b18d4b1c","154","","j","","","","","","","","./tasks/HMM-beads/Images/NewTrialWC.png","lowH","1","34","1","1","1","1","true","",""
"image-keyboard-response","239","792213","0.0-3.0-6.0-1.0-1.34","5b87e73d53303600015ea51c","6662009ae78f21dd82fcd179","66620a2eddcb3e96b18d4b1c","null","","null","","","","","","","","./tasks/HMM-beads/Images/WhiteBeadChoice.png","","","","","","","","","",""
"image-keyboard-response","240","792734","0.0-3.0-6.0-1.0-2.34","5b87e73d53303600015ea51c","6662009ae78f21dd82fcd179","66620a2eddcb3e96b18d4b1c","null","","null","","","","","","","","./tasks/HMM-beads/Images/WhiteBeadChoiceCorrect.png","","","","","","","","","",""
"image-keyboard-response","241","792852","0.0-3.0-6.0-1.0-0.35","5b87e73d53303600015ea51c","6662009ae78f21dd82fcd179","66620a2eddcb3e96b18d4b1c","118","","j","","","","","","","","./tasks/HMM-beads/Images/NewTrialWC.png","lowH","1","35","1","1","1","1","true","",""
"image-keyboard-response","242","793158","0.0-3.0-6.0-1.0-1.35","5b87e73d53303600015ea51c","6662009ae78f21dd82fcd179","66620a2eddcb3e96b18d4b1c","null","","null","","","","","","","","./tasks/HMM-beads/Images/WhiteBeadChoice.png","","","","","","","","","",""
"image-keyboard-response","243","793664","0.0-3.0-6.0-1.0-2.35","5b87e73d53303600015ea51c","6662009ae78f21dd82fcd179","66620a2eddcb3e96b18d4b1c","null","","null","","","","","","","","./tasks/HMM-beads/Images/WhiteBeadChoiceCorrect.png","","","","","","","","","",""
"image-keyboard-response","244","793760","0.0-3.0-6.0-1.0-0.36","5b87e73d53303600015ea51c","6662009ae78f21dd82fcd179","66620a2eddcb3e96b18d4b1c","95","","j","","","","","","","","./tasks/HMM-beads/Images/NewTrialWC.png","lowH","1","36","1","1","1","1","true","",""
"image-keyboard-response","245","794076","0.0-3.0-6.0-1.0-1.36","5b87e73d53303600015ea51c","6662009ae78f21dd82fcd179","66620a2eddcb3e96b18d4b1c","null","","null","","","","","","","","./tasks/HMM-beads/Images/WhiteBeadChoice.png","","","","","","","","","",""
"image-keyboard-response","246","794592","0.0-3.0-6.0-1.0-2.36","5b87e73d53303600015ea51c","6662009ae78f21dd82fcd179","66620a2eddcb3e96b18d4b1c","null","","null","","","","","","","","./tasks/HMM-beads/Images/WhiteBeadChoiceCorrect.png","","","","","","","","","",""
"image-keyboard-response","247","794622","0.0-3.0-6.0-1.0-0.37","5b87e73d53303600015ea51c","6662009ae78f21dd82fcd179","66620a2eddcb3e96b18d4b1c","28","","j","","","","","","","","./tasks/HMM-beads/Images/NewTrialWC.png","lowH","1","37","1","1","1","1","true","",""
"image-keyboard-response","248","794936","0.0-3.0-6.0-1.0-1.37","5b87e73d53303600015ea51c","6662009ae78f21dd82fcd179","66620a2eddcb3e96b18d4b1c","null","","null","","","","","","","","./tasks/HMM-beads/Images/WhiteBeadChoice.png","","","","","","","","","",""
"image-keyboard-response","249","795440","0.0-3.0-6.0-1.0-2.37","5b87e73d53303600015ea51c","6662009ae78f21dd82fcd179","66620a2eddcb3e96b18d4b1c","null","","null","","","","","","","","./tasks/HMM-beads/Images/WhiteBeadChoiceCorrect.png","","","","","","","","","",""
"image-keyboard-response","250","795486","0.0-3.0-6.0-1.0-0.38","5b87e73d53303600015ea51c","6662009ae78f21dd82fcd179","66620a2eddcb3e96b18d4b1c","45","","j","","","","","","","","./tasks/HMM-beads/Images/NewTrialWC.png","lowH","1","38","1","1","1","1","true","",""
"image-keyboard-response","251","795800","0.0-3.0-6.0-1.0-1.38","5b87e73d53303600015ea51c","6662009ae78f21dd82fcd179","66620a2eddcb3e96b18d4b1c","null","","null","","","","","","","","./tasks/HMM-beads/Images/WhiteBeadChoice.png","","","","","","","","","",""
"image-keyboard-response","252","796312","0.0-3.0-6.0-1.0-2.38","5b87e73d53303600015ea51c","6662009ae78f21dd82fcd179","66620a2eddcb3e96b18d4b1c","null","","null","","","","","","","","./tasks/HMM-beads/Images/WhiteBeadChoiceCorrect.png","","","","","","","","","",""
"image-keyboard-response","253","796380","0.0-3.0-6.0-1.0-0.39","5b87e73d53303600015ea51c","6662009ae78f21dd82fcd179","66620a2eddcb3e96b18d4b1c","67","","j","","","","","","","","./tasks/HMM-beads/Images/NewTrialWC.png","lowH","1","39","1","1","1","1","true","",""
"image-keyboard-response","254","796685","0.0-3.0-6.0-1.0-1.39","5b87e73d53303600015ea51c","6662009ae78f21dd82fcd179","66620a2eddcb3e96b18d4b1c","null","","null","","","","","","","","./tasks/HMM-beads/Images/WhiteBeadChoice.png","","","","","","","","","",""
"image-keyboard-response","255","797190","0.0-3.0-6.0-1.0-2.39","5b87e73d53303600015ea51c","6662009ae78f21dd82fcd179","66620a2eddcb3e96b18d4b1c","null","","null","","","","","","","","./tasks/HMM-beads/Images/WhiteBeadChoiceCorrect.png","","","","","","","","","",""
"image-keyboard-response","256","797372","0.0-3.0-6.0-1.0-0.40","5b87e73d53303600015ea51c","6662009ae78f21dd82fcd179","66620a2eddcb3e96b18d4b1c","180","","j","","","","","","","","./tasks/HMM-beads/Images/NewTrialWC.png","lowH","1","40","1","1","1","1","true","",""
"image-keyboard-response","257","797688","0.0-3.0-6.0-1.0-1.40","5b87e73d53303600015ea51c","6662009ae78f21dd82fcd179","66620a2eddcb3e96b18d4b1c","null","","null","","","","","","","","./tasks/HMM-beads/Images/WhiteBeadChoice.png","","","","","","","","","",""
"image-keyboard-response","258","798193","0.0-3.0-6.0-1.0-2.40","5b87e73d53303600015ea51c","6662009ae78f21dd82fcd179","66620a2eddcb3e96b18d4b1c","null","","null","","","","","","","","./tasks/HMM-beads/Images/WhiteBeadChoiceCorrect.png","","","","","","","","","",""
"image-keyboard-response","259","798329","0.0-3.0-6.0-1.0-0.41","5b87e73d53303600015ea51c","6662009ae78f21dd82fcd179","66620a2eddcb3e96b18d4b1c","135","","j","","","","","","","","./tasks/HMM-beads/Images/NewTrialWC.png","lowH","1","41","1","1","1","1","true","",""
"image-keyboard-response","260","798643","0.0-3.0-6.0-1.0-1.41","5b87e73d53303600015ea51c","6662009ae78f21dd82fcd179","66620a2eddcb3e96b18d4b1c","null","","null","","","","","","","","./tasks/HMM-beads/Images/WhiteBeadChoice.png","","","","","","","","","",""
"image-keyboard-response","261","799147","0.0-3.0-6.0-1.0-2.41","5b87e73d53303600015ea51c","6662009ae78f21dd82fcd179","66620a2eddcb3e96b18d4b1c","null","","null","","","","","","","","./tasks/HMM-beads/Images/WhiteBeadChoiceCorrect.png","","","","","","","","","",""
"image-keyboard-response","262","799239","0.0-3.0-6.0-1.0-0.42","5b87e73d53303600015ea51c","6662009ae78f21dd82fcd179","66620a2eddcb3e96b18d4b1c","90","","j","","","","","","","","./tasks/HMM-beads/Images/NewTrialWC.png","lowH","1","42","1","1","1","1","true","",""
"image-keyboard-response","263","799554","0.0-3.0-6.0-1.0-1.42","5b87e73d53303600015ea51c","6662009ae78f21dd82fcd179","66620a2eddcb3e96b18d4b1c","null","","null","","","","","","","","./tasks/HMM-beads/Images/WhiteBeadChoice.png","","","","","","","","","",""
"image-keyboard-response","264","800058","0.0-3.0-6.0-1.0-2.42","5b87e73d53303600015ea51c","6662009ae78f21dd82fcd179","66620a2eddcb3e96b18d4b1c","null","","null","","","","","","","","./tasks/HMM-beads/Images/WhiteBeadChoiceCorrect.png","","","","","","","","","",""
"image-keyboard-response","265","800086","0.0-3.0-6.0-1.0-0.43","5b87e73d53303600015ea51c","6662009ae78f21dd82fcd179","66620a2eddcb3e96b18d4b1c","27","","j","","","","","","","","./tasks/HMM-beads/Images/NewTrialWC.png","lowH","1","43","1","1","1","1","true","",""
"image-keyboard-response","266","800399","0.0-3.0-6.0-1.0-1.43","5b87e73d53303600015ea51c","6662009ae78f21dd82fcd179","66620a2eddcb3e96b18d4b1c","null","","null","","","","","","","","./tasks/HMM-beads/Images/WhiteBeadChoice.png","","","","","","","","","",""
"image-keyboard-response","267","800912","0.0-3.0-6.0-1.0-2.43","5b87e73d53303600015ea51c","6662009ae78f21dd82fcd179","66620a2eddcb3e96b18d4b1c","null","","null","","","","","","","","./tasks/HMM-beads/Images/WhiteBeadChoiceCorrect.png","","","","","","","","","",""
"image-keyboard-response","268","801086","0.0-3.0-6.0-1.0-0.44","5b87e73d53303600015ea51c","6662009ae78f21dd82fcd179","66620a2eddcb3e96b18d4b1c","173","","j","","","","","","","","./tasks/HMM-beads/Images/NewTrialWC.png","lowH","1","44","1","1","1","1","true","",""
"image-keyboard-response","269","801390","0.0-3.0-6.0-1.0-1.44","5b87e73d53303600015ea51c","6662009ae78f21dd82fcd179","66620a2eddcb3e96b18d4b1c","null","","null","","","","","","","","./tasks/HMM-beads/Images/WhiteBeadChoice.png","","","","","","","","","",""
"image-keyboard-response","270","801899","0.0-3.0-6.0-1.0-2.44","5b87e73d53303600015ea51c","6662009ae78f21dd82fcd179","66620a2eddcb3e96b18d4b1c","null","","null","","","","","","","","./tasks/HMM-beads/Images/WhiteBeadChoiceCorrect.png","","","","","","","","","",""
"image-keyboard-response","271","802095","0.0-3.0-6.0-1.0-0.45","5b87e73d53303600015ea51c","6662009ae78f21dd82fcd179","66620a2eddcb3e96b18d4b1c","195","","j","","","","","","","","./tasks/HMM-beads/Images/NewTrialWC.png","lowH","1","45","1","1","1","1","true","",""
"image-keyboard-response","272","802398","0.0-3.0-6.0-1.0-1.45","5b87e73d53303600015ea51c","6662009ae78f21dd82fcd179","66620a2eddcb3e96b18d4b1c","null","","null","","","","","","","","./tasks/HMM-beads/Images/WhiteBeadChoice.png","","","","","","","","","",""
"image-keyboard-response","273","802904","0.0-3.0-6.0-1.0-2.45","5b87e73d53303600015ea51c","6662009ae78f21dd82fcd179","66620a2eddcb3e96b18d4b1c","null","","null","","","","","","","","./tasks/HMM-beads/Images/WhiteBeadChoiceCorrect.png","","","","","","","","","",""
"image-keyboard-response","274","803252","0.0-3.0-6.0-1.0-0.46","5b87e73d53303600015ea51c","6662009ae78f21dd82fcd179","66620a2eddcb3e96b18d4b1c","348","","j","","","","","","","","./tasks/HMM-beads/Images/NewTrialWC.png","lowH","1","46","1","1","1","1","true","",""
"image-keyboard-response","275","803555","0.0-3.0-6.0-1.0-1.46","5b87e73d53303600015ea51c","6662009ae78f21dd82fcd179","66620a2eddcb3e96b18d4b1c","null","","null","","","","","","","","./tasks/HMM-beads/Images/WhiteBeadChoice.png","","","","","","","","","",""
"image-keyboard-response","276","804072","0.0-3.0-6.0-1.0-2.46","5b87e73d53303600015ea51c","6662009ae78f21dd82fcd179","66620a2eddcb3e96b18d4b1c","null","","null","","","","","","","","./tasks/HMM-beads/Images/WhiteBeadChoiceCorrect.png","","","","","","","","","",""
"image-keyboard-response","277","804284","0.0-3.0-6.0-1.0-0.47","5b87e73d53303600015ea51c","6662009ae78f21dd82fcd179","66620a2eddcb3e96b18d4b1c","202","","j","","","","","","","","./tasks/HMM-beads/Images/NewTrialWC.png","lowH","1","47","1","0","1","1","false","",""
"image-keyboard-response","278","804585","0.0-3.0-6.0-1.0-1.47","5b87e73d53303600015ea51c","6662009ae78f21dd82fcd179","66620a2eddcb3e96b18d4b1c","null","","null","","","","","","","","./tasks/HMM-beads/Images/WhiteBeadChoice.png","","","","","","","","","",""
"image-keyboard-response","279","805100","0.0-3.0-6.0-1.0-2.47","5b87e73d53303600015ea51c","6662009ae78f21dd82fcd179","66620a2eddcb3e96b18d4b1c","null","","null","","","","","","","","./tasks/HMM-beads/Images/WhiteBeadChoiceWrong.png","","","","","","","","","",""
"image-keyboard-response","280","805349","0.0-3.0-6.0-1.0-0.48","5b87e73d53303600015ea51c","6662009ae78f21dd82fcd179","66620a2eddcb3e96b18d4b1c","248","","j","","","","","","","","./tasks/HMM-beads/Images/NewTrialBC.png","lowH","1","48","1","0","0","1","false","",""
"image-keyboard-response","281","805662","0.0-3.0-6.0-1.0-1.48","5b87e73d53303600015ea51c","6662009ae78f21dd82fcd179","66620a2eddcb3e96b18d4b1c","null","","null","","","","","","","","./tasks/HMM-beads/Images/WhiteBeadChoice.png","","","","","","","","","",""
"image-keyboard-response","282","806176","0.0-3.0-6.0-1.0-2.48","5b87e73d53303600015ea51c","6662009ae78f21dd82fcd179","66620a2eddcb3e96b18d4b1c","null","","null","","","","","","","","./tasks/HMM-beads/Images/WhiteBeadChoiceWrong.png","","","","","","","","","",""
"image-keyboard-response","283","806328","0.0-3.0-6.0-1.0-0.49","5b87e73d53303600015ea51c","6662009ae78f21dd82fcd179","66620a2eddcb3e96b18d4b1c","151","","j","","","","","","","","./tasks/HMM-beads/Images/NewTrialBC.png","lowH","1","49","1","0","0","1","false","",""
"image-keyboard-response","284","806640","0.0-3.0-6.0-1.0-1.49","5b87e73d53303600015ea51c","6662009ae78f21dd82fcd179","66620a2eddcb3e96b18d4b1c","null","","null","","","","","","","","./tasks/HMM-beads/Images/WhiteBeadChoice.png","","","","","","","","","",""
"image-keyboard-response","285","807143","0.0-3.0-6.0-1.0-2.49","5b87e73d53303600015ea51c","6662009ae78f21dd82fcd179","66620a2eddcb3e96b18d4b1c","null","","null","","","","","","","","./tasks/HMM-beads/Images/WhiteBeadChoiceWrong.png","","","","","","","","","",""
"image-keyboard-response","286","807273","0.0-3.0-6.0-1.0-0.50","5b87e73d53303600015ea51c","6662009ae78f21dd82fcd179","66620a2eddcb3e96b18d4b1c","129","","j","","","","","","","","./tasks/HMM-beads/Images/NewTrialBC.png","lowH","1","50","1","1","0","1","true","",""
"image-keyboard-response","287","807578","0.0-3.0-6.0-1.0-1.50","5b87e73d53303600015ea51c","6662009ae78f21dd82fcd179","66620a2eddcb3e96b18d4b1c","null","","null","","","","","","","","./tasks/HMM-beads/Images/WhiteBeadChoice.png","","","","","","","","","",""
"image-keyboard-response","288","808093","0.0-3.0-6.0-1.0-2.50","5b87e73d53303600015ea51c","6662009ae78f21dd82fcd179","66620a2eddcb3e96b18d4b1c","null","","null","","","","","","","","./tasks/HMM-beads/Images/WhiteBeadChoiceCorrect.png","","","","","","","","","",""
"image-keyboard-response","289","808461","0.0-3.0-6.0-1.0-0.51","5b87e73d53303600015ea51c","6662009ae78f21dd82fcd179","66620a2eddcb3e96b18d4b1c","367","","j","","","","","","","","./tasks/HMM-beads/Images/NewTrialWC.png","lowH","1","51","1","1","1","1","true","",""
"image-keyboard-response","290","808771","0.0-3.0-6.0-1.0-1.51","5b87e73d53303600015ea51c","6662009ae78f21dd82fcd179","66620a2eddcb3e96b18d4b1c","null","","null","","","","","","","","./tasks/HMM-beads/Images/WhiteBeadChoice.png","","","","","","","","","",""
"image-keyboard-response","291","809284","0.0-3.0-6.0-1.0-2.51","5b87e73d53303600015ea51c","6662009ae78f21dd82fcd179","66620a2eddcb3e96b18d4b1c","null","","null","","","","","","","","./tasks/HMM-beads/Images/WhiteBeadChoiceCorrect.png","","","","","","","","","",""
"image-keyboard-response","292","809370","0.0-3.0-6.0-1.0-0.52","5b87e73d53303600015ea51c","6662009ae78f21dd82fcd179","66620a2eddcb3e96b18d4b1c","84","","j","","","","","","","","./tasks/HMM-beads/Images/NewTrialWC.png","lowH","1","52","1","1","1","1","true","",""
"image-keyboard-response","293","809677","0.0-3.0-6.0-1.0-1.52","5b87e73d53303600015ea51c","6662009ae78f21dd82fcd179","66620a2eddcb3e96b18d4b1c","null","","null","","","","","","","","./tasks/HMM-beads/Images/WhiteBeadChoice.png","","","","","","","","","",""
"image-keyboard-response","294","810188","0.0-3.0-6.0-1.0-2.52","5b87e73d53303600015ea51c","6662009ae78f21dd82fcd179","66620a2eddcb3e96b18d4b1c","null","","null","","","","","","","","./tasks/HMM-beads/Images/WhiteBeadChoiceCorrect.png","","","","","","","","","",""
"image-keyboard-response","295","810252","0.0-3.0-6.0-1.0-0.53","5b87e73d53303600015ea51c","6662009ae78f21dd82fcd179","66620a2eddcb3e96b18d4b1c","62","","j","","","","","","","","./tasks/HMM-beads/Images/NewTrialWC.png","lowH","1","53","1","1","1","1","true","",""
"image-keyboard-response","296","810558","0.0-3.0-6.0-1.0-1.53","5b87e73d53303600015ea51c","6662009ae78f21dd82fcd179","66620a2eddcb3e96b18d4b1c","null","","null","","","","","","","","./tasks/HMM-beads/Images/WhiteBeadChoice.png","","","","","","","","","",""
"image-keyboard-response","297","811074","0.0-3.0-6.0-1.0-2.53","5b87e73d53303600015ea51c","6662009ae78f21dd82fcd179","66620a2eddcb3e96b18d4b1c","null","","null","","","","","","","","./tasks/HMM-beads/Images/WhiteBeadChoiceCorrect.png","","","","","","","","","",""
"image-keyboard-response","298","811091","0.0-3.0-6.0-1.0-0.54","5b87e73d53303600015ea51c","6662009ae78f21dd82fcd179","66620a2eddcb3e96b18d4b1c","16","","j","","","","","","","","./tasks/HMM-beads/Images/NewTrialWC.png","lowH","1","54","1","1","1","1","true","",""
"image-keyboard-response","299","811399","0.0-3.0-6.0-1.0-1.54","5b87e73d53303600015ea51c","6662009ae78f21dd82fcd179","66620a2eddcb3e96b18d4b1c","null","","null","","","","","","","","./tasks/HMM-beads/Images/WhiteBeadChoice.png","","","","","","","","","",""
"image-keyboard-response","300","811912","0.0-3.0-6.0-1.0-2.54","5b87e73d53303600015ea51c","6662009ae78f21dd82fcd179","66620a2eddcb3e96b18d4b1c","null","","null","","","","","","","","./tasks/HMM-beads/Images/WhiteBeadChoiceCorrect.png","","","","","","","","","",""
"image-keyboard-response","301","812044","0.0-3.0-6.0-1.0-0.55","5b87e73d53303600015ea51c","6662009ae78f21dd82fcd179","66620a2eddcb3e96b18d4b1c","131","","j","","","","","","","","./tasks/HMM-beads/Images/NewTrialWC.png","lowH","1","55","1","1","1","1","true","",""
"image-keyboard-response","302","812359","0.0-3.0-6.0-1.0-1.55","5b87e73d53303600015ea51c","6662009ae78f21dd82fcd179","66620a2eddcb3e96b18d4b1c","null","","null","","","","","","","","./tasks/HMM-beads/Images/WhiteBeadChoice.png","","","","","","","","","",""
"image-keyboard-response","303","812868","0.0-3.0-6.0-1.0-2.55","5b87e73d53303600015ea51c","6662009ae78f21dd82fcd179","66620a2eddcb3e96b18d4b1c","null","","null","","","","","","","","./tasks/HMM-beads/Images/WhiteBeadChoiceCorrect.png","","","","","","","","","",""
"image-keyboard-response","304","812928","0.0-3.0-6.0-1.0-0.56","5b87e73d53303600015ea51c","6662009ae78f21dd82fcd179","66620a2eddcb3e96b18d4b1c","59","","j","","","","","","","","./tasks/HMM-beads/Images/NewTrialWC.png","lowH","1","56","1","1","1","1","true","",""
"image-keyboard-response","305","813245","0.0-3.0-6.0-1.0-1.56","5b87e73d53303600015ea51c","6662009ae78f21dd82fcd179","66620a2eddcb3e96b18d4b1c","null","","null","","","","","","","","./tasks/HMM-beads/Images/WhiteBeadChoice.png","","","","","","","","","",""
"image-keyboard-response","306","813762","0.0-3.0-6.0-1.0-2.56","5b87e73d53303600015ea51c","6662009ae78f21dd82fcd179","66620a2eddcb3e96b18d4b1c","null","","null","","","","","","","","./tasks/HMM-beads/Images/WhiteBeadChoiceCorrect.png","","","","","","","","","",""
"image-keyboard-response","307","813765","0.0-3.0-6.0-1.0-0.57","5b87e73d53303600015ea51c","6662009ae78f21dd82fcd179","66620a2eddcb3e96b18d4b1c","2","","j","","","","","","","","./tasks/HMM-beads/Images/NewTrialWC.png","lowH","1","57","1","1","1","1","true","",""
"image-keyboard-response","308","814076","0.0-3.0-6.0-1.0-1.57","5b87e73d53303600015ea51c","6662009ae78f21dd82fcd179","66620a2eddcb3e96b18d4b1c","null","","null","","","","","","","","./tasks/HMM-beads/Images/WhiteBeadChoice.png","","","","","","","","","",""
"image-keyboard-response","309","814590","0.0-3.0-6.0-1.0-2.57","5b87e73d53303600015ea51c","6662009ae78f21dd82fcd179","66620a2eddcb3e96b18d4b1c","null","","null","","","","","","","","./tasks/HMM-beads/Images/WhiteBeadChoiceCorrect.png","","","","","","","","","",""
"image-keyboard-response","310","814856","0.0-3.0-6.0-1.0-0.58","5b87e73d53303600015ea51c","6662009ae78f21dd82fcd179","66620a2eddcb3e96b18d4b1c","265","","j","","","","","","","","./tasks/HMM-beads/Images/NewTrialWC.png","lowH","1","58","1","1","1","1","true","",""
"image-keyboard-response","311","815166","0.0-3.0-6.0-1.0-1.58","5b87e73d53303600015ea51c","6662009ae78f21dd82fcd179","66620a2eddcb3e96b18d4b1c","null","","null","","","","","","","","./tasks/HMM-beads/Images/WhiteBeadChoice.png","","","","","","","","","",""
"image-keyboard-response","312","815681","0.0-3.0-6.0-1.0-2.58","5b87e73d53303600015ea51c","6662009ae78f21dd82fcd179","66620a2eddcb3e96b18d4b1c","null","","null","","","","","","","","./tasks/HMM-beads/Images/WhiteBeadChoiceCorrect.png","","","","","","","","","",""
"image-keyboard-response","313","816040","0.0-3.0-6.0-1.0-0.59","5b87e73d53303600015ea51c","6662009ae78f21dd82fcd179","66620a2eddcb3e96b18d4b1c","358","","j","","","","","","","","./tasks/HMM-beads/Images/NewTrialWC.png","lowH","1","59","1","0","1","1","false","",""
"image-keyboard-response","314","816363","0.0-3.0-6.0-1.0-1.59","5b87e73d53303600015ea51c","6662009ae78f21dd82fcd179","66620a2eddcb3e96b18d4b1c","null","","null","","","","","","","","./tasks/HMM-beads/Images/WhiteBeadChoice.png","","","","","","","","","",""
"image-keyboard-response","315","816873","0.0-3.0-6.0-1.0-2.59","5b87e73d53303600015ea51c","6662009ae78f21dd82fcd179","66620a2eddcb3e96b18d4b1c","null","","null","","","","","","","","./tasks/HMM-beads/Images/WhiteBeadChoiceWrong.png","","","","","","","","","",""
"image-keyboard-response","316","817165","0.0-3.0-6.0-1.0-0.60","5b87e73d53303600015ea51c","6662009ae78f21dd82fcd179","66620a2eddcb3e96b18d4b1c","291","","j","","","","","","","","./tasks/HMM-beads/Images/NewTrialBC.png","lowH","1","60","1","1","0","1","true","",""
"image-keyboard-response","317","817476","0.0-3.0-6.0-1.0-1.60","5b87e73d53303600015ea51c","6662009ae78f21dd82fcd179","66620a2eddcb3e96b18d4b1c","null","","null","","","","","","","","./tasks/HMM-beads/Images/WhiteBeadChoice.png","","","","","","","","","",""
"image-keyboard-response","318","817988","0.0-3.0-6.0-1.0-2.60","5b87e73d53303600015ea51c","6662009ae78f21dd82fcd179","66620a2eddcb3e96b18d4b1c","null","","null","","","","","","","","./tasks/HMM-beads/Images/WhiteBeadChoiceCorrect.png","","","","","","","","","",""
"image-keyboard-response","319","818323","0.0-3.0-6.0-1.0-0.61","5b87e73d53303600015ea51c","6662009ae78f21dd82fcd179","66620a2eddcb3e96b18d4b1c","334","","j","","","","","","","","./tasks/HMM-beads/Images/NewTrialWC.png","lowH","1","61","1","1","1","1","true","",""
"image-keyboard-response","320","818634","0.0-3.0-6.0-1.0-1.61","5b87e73d53303600015ea51c","6662009ae78f21dd82fcd179","66620a2eddcb3e96b18d4b1c","null","","null","","","","","","","","./tasks/HMM-beads/Images/WhiteBeadChoice.png","","","","","","","","","",""
"image-keyboard-response","321","819146","0.0-3.0-6.0-1.0-2.61","5b87e73d53303600015ea51c","6662009ae78f21dd82fcd179","66620a2eddcb3e96b18d4b1c","null","","null","","","","","","","","./tasks/HMM-beads/Images/WhiteBeadChoiceCorrect.png","","","","","","","","","",""
"image-keyboard-response","322","819600","0.0-3.0-6.0-1.0-0.62","5b87e73d53303600015ea51c","6662009ae78f21dd82fcd179","66620a2eddcb3e96b18d4b1c","453","","j","","","","","","","","./tasks/HMM-beads/Images/NewTrialWC.png","lowH","1","62","1","0","1","1","false","",""
"image-keyboard-response","323","819909","0.0-3.0-6.0-1.0-1.62","5b87e73d53303600015ea51c","6662009ae78f21dd82fcd179","66620a2eddcb3e96b18d4b1c","null","","null","","","","","","","","./tasks/HMM-beads/Images/WhiteBeadChoice.png","","","","","","","","","",""
"image-keyboard-response","324","820410","0.0-3.0-6.0-1.0-2.62","5b87e73d53303600015ea51c","6662009ae78f21dd82fcd179","66620a2eddcb3e96b18d4b1c","null","","null","","","","","","","","./tasks/HMM-beads/Images/WhiteBeadChoiceWrong.png","","","","","","","","","",""
"image-keyboard-response","325","820654","0.0-3.0-6.0-1.0-0.63","5b87e73d53303600015ea51c","6662009ae78f21dd82fcd179","66620a2eddcb3e96b18d4b1c","243","","j","","","","","","","","./tasks/HMM-beads/Images/NewTrialBC.png","lowH","1","63","1","1","0","1","true","",""
"image-keyboard-response","326","820958","0.0-3.0-6.0-1.0-1.63","5b87e73d53303600015ea51c","6662009ae78f21dd82fcd179","66620a2eddcb3e96b18d4b1c","null","","null","","","","","","","","./tasks/HMM-beads/Images/WhiteBeadChoice.png","","","","","","","","","",""
"image-keyboard-response","327","821465","0.0-3.0-6.0-1.0-2.63","5b87e73d53303600015ea51c","6662009ae78f21dd82fcd179","66620a2eddcb3e96b18d4b1c","null","","null","","","","","","","","./tasks/HMM-beads/Images/WhiteBeadChoiceCorrect.png","","","","","","","","","",""
"image-keyboard-response","328","821906","0.0-3.0-6.0-1.0-0.64","5b87e73d53303600015ea51c","6662009ae78f21dd82fcd179","66620a2eddcb3e96b18d4b1c","440","","j","","","","","","","","./tasks/HMM-beads/Images/NewTrialWC.png","lowH","1","64","1","1","1","1","true","",""
"image-keyboard-response","329","822208","0.0-3.0-6.0-1.0-1.64","5b87e73d53303600015ea51c","6662009ae78f21dd82fcd179","66620a2eddcb3e96b18d4b1c","null","","null","","","","","","","","./tasks/HMM-beads/Images/WhiteBeadChoice.png","","","","","","","","","",""
"image-keyboard-response","330","822715","0.0-3.0-6.0-1.0-2.64","5b87e73d53303600015ea51c","6662009ae78f21dd82fcd179","66620a2eddcb3e96b18d4b1c","null","","null","","","","","","","","./tasks/HMM-beads/Images/WhiteBeadChoiceCorrect.png","","","","","","","","","",""
"image-keyboard-response","331","823051","0.0-3.0-6.0-1.0-0.65","5b87e73d53303600015ea51c","6662009ae78f21dd82fcd179","66620a2eddcb3e96b18d4b1c","335","","j","","","","","","","","./tasks/HMM-beads/Images/NewTrialWC.png","lowH","1","65","1","1","1","1","true","",""
"image-keyboard-response","332","823363","0.0-3.0-6.0-1.0-1.65","5b87e73d53303600015ea51c","6662009ae78f21dd82fcd179","66620a2eddcb3e96b18d4b1c","null","","null","","","","","","","","./tasks/HMM-beads/Images/WhiteBeadChoice.png","","","","","","","","","",""
"image-keyboard-response","333","823879","0.0-3.0-6.0-1.0-2.65","5b87e73d53303600015ea51c","6662009ae78f21dd82fcd179","66620a2eddcb3e96b18d4b1c","null","","null","","","","","","","","./tasks/HMM-beads/Images/WhiteBeadChoiceCorrect.png","","","","","","","","","",""
"image-keyboard-response","334","824244","0.0-3.0-6.0-1.0-0.66","5b87e73d53303600015ea51c","6662009ae78f21dd82fcd179","66620a2eddcb3e96b18d4b1c","364","","j","","","","","","","","./tasks/HMM-beads/Images/NewTrialWC.png","lowH","1","66","1","1","1","1","true","",""
"image-keyboard-response","335","824548","0.0-3.0-6.0-1.0-1.66","5b87e73d53303600015ea51c","6662009ae78f21dd82fcd179","66620a2eddcb3e96b18d4b1c","null","","null","","","","","","","","./tasks/HMM-beads/Images/WhiteBeadChoice.png","","","","","","","","","",""
"image-keyboard-response","336","825058","0.0-3.0-6.0-1.0-2.66","5b87e73d53303600015ea51c","6662009ae78f21dd82fcd179","66620a2eddcb3e96b18d4b1c","null","","null","","","","","","","","./tasks/HMM-beads/Images/WhiteBeadChoiceCorrect.png","","","","","","","","","",""
"image-keyboard-response","337","825429","0.0-3.0-6.0-1.0-0.67","5b87e73d53303600015ea51c","6662009ae78f21dd82fcd179","66620a2eddcb3e96b18d4b1c","370","","j","","","","","","","","./tasks/HMM-beads/Images/NewTrialWC.png","lowH","1","67","1","0","1","1","false","",""
"image-keyboard-response","338","825736","0.0-3.0-6.0-1.0-1.67","5b87e73d53303600015ea51c","6662009ae78f21dd82fcd179","66620a2eddcb3e96b18d4b1c","null","","null","","","","","","","","./tasks/HMM-beads/Images/WhiteBeadChoice.png","","","","","","","","","",""
"image-keyboard-response","339","826239","0.0-3.0-6.0-1.0-2.67","5b87e73d53303600015ea51c","6662009ae78f21dd82fcd179","66620a2eddcb3e96b18d4b1c","null","","null","","","","","","","","./tasks/HMM-beads/Images/WhiteBeadChoiceWrong.png","","","","","","","","","",""
"image-keyboard-response","340","826528","0.0-3.0-6.0-1.0-0.68","5b87e73d53303600015ea51c","6662009ae78f21dd82fcd179","66620a2eddcb3e96b18d4b1c","289","","j","","","","","","","","./tasks/HMM-beads/Images/NewTrialBC.png","lowH","1","68","1","1","0","1","true","",""
"image-keyboard-response","341","826839","0.0-3.0-6.0-1.0-1.68","5b87e73d53303600015ea51c","6662009ae78f21dd82fcd179","66620a2eddcb3e96b18d4b1c","null","","null","","","","","","","","./tasks/HMM-beads/Images/WhiteBeadChoice.png","","","","","","","","","",""
"image-keyboard-response","342","827349","0.0-3.0-6.0-1.0-2.68","5b87e73d53303600015ea51c","6662009ae78f21dd82fcd179","66620a2eddcb3e96b18d4b1c","null","","null","","","","","","","","./tasks/HMM-beads/Images/WhiteBeadChoiceCorrect.png","","","","","","","","","",""
"image-keyboard-response","343","827524","0.0-3.0-6.0-1.0-0.69","5b87e73d53303600015ea51c","6662009ae78f21dd82fcd179","66620a2eddcb3e96b18d4b1c","174","","j","","","","","","","","./tasks/HMM-beads/Images/NewTrialWC.png","lowH","1","69","0","1","1","1","true","",""
"image-keyboard-response","344","827831","0.0-3.0-6.0-1.0-1.69","5b87e73d53303600015ea51c","6662009ae78f21dd82fcd179","66620a2eddcb3e96b18d4b1c","null","","null","","","","","","","","./tasks/HMM-beads/Images/WhiteBeadChoice.png","","","","","","","","","",""
"image-keyboard-response","345","828344","0.0-3.0-6.0-1.0-2.69","5b87e73d53303600015ea51c","6662009ae78f21dd82fcd179","66620a2eddcb3e96b18d4b1c","null","","null","","","","","","","","./tasks/HMM-beads/Images/WhiteBeadChoiceCorrect.png","","","","","","","","","",""
"image-keyboard-response","346","828676","0.0-3.0-6.0-1.0-0.70","5b87e73d53303600015ea51c","6662009ae78f21dd82fcd179","66620a2eddcb3e96b18d4b1c","331","","j","","","","","","","","./tasks/HMM-beads/Images/NewTrialWC.png","lowH","1","70","0","1","1","1","true","",""
"image-keyboard-response","347","828993","0.0-3.0-6.0-1.0-1.70","5b87e73d53303600015ea51c","6662009ae78f21dd82fcd179","66620a2eddcb3e96b18d4b1c","null","","null","","","","","","","","./tasks/HMM-beads/Images/WhiteBeadChoice.png","","","","","","","","","",""
"image-keyboard-response","348","829506","0.0-3.0-6.0-1.0-2.70","5b87e73d53303600015ea51c","6662009ae78f21dd82fcd179","66620a2eddcb3e96b18d4b1c","null","","null","","","","","","","","./tasks/HMM-beads/Images/WhiteBeadChoiceCorrect.png","","","","","","","","","",""
"image-keyboard-response","349","829841","0.0-3.0-6.0-1.0-0.71","5b87e73d53303600015ea51c","6662009ae78f21dd82fcd179","66620a2eddcb3e96b18d4b1c","333","","j","","","","","","","","./tasks/HMM-beads/Images/NewTrialWC.png","lowH","1","71","0","0","1","1","false","",""
"image-keyboard-response","350","830157","0.0-3.0-6.0-1.0-1.71","5b87e73d53303600015ea51c","6662009ae78f21dd82fcd179","66620a2eddcb3e96b18d4b1c","null","","null","","","","","","","","./tasks/HMM-beads/Images/WhiteBeadChoice.png","","","","","","","","","",""
"image-keyboard-response","351","830671","0.0-3.0-6.0-1.0-2.71","5b87e73d53303600015ea51c","6662009ae78f21dd82fcd179","66620a2eddcb3e96b18d4b1c","null","","null","","","","","","","","./tasks/HMM-beads/Images/WhiteBeadChoiceWrong.png","","","","","","","","","",""
"image-keyboard-response","352","830833","0.0-3.0-6.0-1.0-0.72","5b87e73d53303600015ea51c","6662009ae78f21dd82fcd179","66620a2eddcb3e96b18d4b1c","160","","j","","","","","","","","./tasks/HMM-beads/Images/NewTrialBC.png","lowH","1","72","0","0","0","1","false","",""
"image-keyboard-response","353","831141","0.0-3.0-6.0-1.0-1.72","5b87e73d53303600015ea51c","6662009ae78f21dd82fcd179","66620a2eddcb3e96b18d4b1c","null","","null","","","","","","","","./tasks/HMM-beads/Images/WhiteBeadChoice.png","","","","","","","","","",""
"image-keyboard-response","354","831643","0.0-3.0-6.0-1.0-2.72","5b87e73d53303600015ea51c","6662009ae78f21dd82fcd179","66620a2eddcb3e96b18d4b1c","null","","null","","","","","","","","./tasks/HMM-beads/Images/WhiteBeadChoiceWrong.png","","","","","","","","","",""
"image-keyboard-response","355","831880","0.0-3.0-6.0-1.0-0.73","5b87e73d53303600015ea51c","6662009ae78f21dd82fcd179","66620a2eddcb3e96b18d4b1c","236","","j","","","","","","","","./tasks/HMM-beads/Images/NewTrialBC.png","lowH","1","73","0","1","0","1","true","",""
"image-keyboard-response","356","832189","0.0-3.0-6.0-1.0-1.73","5b87e73d53303600015ea51c","6662009ae78f21dd82fcd179","66620a2eddcb3e96b18d4b1c","null","","null","","","","","","","","./tasks/HMM-beads/Images/WhiteBeadChoice.png","","","","","","","","","",""
"image-keyboard-response","357","832691","0.0-3.0-6.0-1.0-2.73","5b87e73d53303600015ea51c","6662009ae78f21dd82fcd179","66620a2eddcb3e96b18d4b1c","null","","null","","","","","","","","./tasks/HMM-beads/Images/WhiteBeadChoiceCorrect.png","","","","","","","","","",""
"image-keyboard-response","358","832958","0.0-3.0-6.0-1.0-0.74","5b87e73d53303600015ea51c","6662009ae78f21dd82fcd179","66620a2eddcb3e96b18d4b1c","266","","j","","","","","","","","./tasks/HMM-beads/Images/NewTrialWC.png","lowH","1","74","0","0","1","1","false","",""
"image-keyboard-response","359","833266","0.0-3.0-6.0-1.0-1.74","5b87e73d53303600015ea51c","6662009ae78f21dd82fcd179","66620a2eddcb3e96b18d4b1c","null","","null","","","","","","","","./tasks/HMM-beads/Images/WhiteBeadChoice.png","","","","","","","","","",""
"image-keyboard-response","360","833778","0.0-3.0-6.0-1.0-2.74","5b87e73d53303600015ea51c","6662009ae78f21dd82fcd179","66620a2eddcb3e96b18d4b1c","null","","null","","","","","","","","./tasks/HMM-beads/Images/WhiteBeadChoiceWrong.png","","","","","","","","","",""
"image-keyboard-response","361","834114","0.0-3.0-6.0-1.0-0.75","5b87e73d53303600015ea51c","6662009ae78f21dd82fcd179","66620a2eddcb3e96b18d4b1c","335","","j","","","","","","","","./tasks/HMM-beads/Images/NewTrialBC.png","lowH","1","75","0","1","0","1","true","",""
"image-keyboard-response","362","834419","0.0-3.0-6.0-1.0-1.75","5b87e73d53303600015ea51c","6662009ae78f21dd82fcd179","66620a2eddcb3e96b18d4b1c","null","","null","","","","","","","","./tasks/HMM-beads/Images/WhiteBeadChoice.png","","","","","","","","","",""
"image-keyboard-response","363","834934","0.0-3.0-6.0-1.0-2.75","5b87e73d53303600015ea51c","6662009ae78f21dd82fcd179","66620a2eddcb3e96b18d4b1c","null","","null","","","","","","","","./tasks/HMM-beads/Images/WhiteBeadChoiceCorrect.png","","","","","","","","","",""
"image-keyboard-response","364","835181","0.0-3.0-6.0-1.0-0.76","5b87e73d53303600015ea51c","6662009ae78f21dd82fcd179","66620a2eddcb3e96b18d4b1c","246","","j","","","","","","","","./tasks/HMM-beads/Images/NewTrialWC.png","lowH","1","76","0","1","1","1","true","",""
"image-keyboard-response","365","835494","0.0-3.0-6.0-1.0-1.76","5b87e73d53303600015ea51c","6662009ae78f21dd82fcd179","66620a2eddcb3e96b18d4b1c","null","","null","","","","","","","","./tasks/HMM-beads/Images/WhiteBeadChoice.png","","","","","","","","","",""
"image-keyboard-response","366","836000","0.0-3.0-6.0-1.0-2.76","5b87e73d53303600015ea51c","6662009ae78f21dd82fcd179","66620a2eddcb3e96b18d4b1c","null","","null","","","","","","","","./tasks/HMM-beads/Images/WhiteBeadChoiceCorrect.png","","","","","","","","","",""
"image-keyboard-response","367","836269","0.0-3.0-6.0-1.0-0.77","5b87e73d53303600015ea51c","6662009ae78f21dd82fcd179","66620a2eddcb3e96b18d4b1c","268","","j","","","","","","","","./tasks/HMM-beads/Images/NewTrialWC.png","lowH","1","77","0","0","1","1","false","",""
"image-keyboard-response","368","836584","0.0-3.0-6.0-1.0-1.77","5b87e73d53303600015ea51c","6662009ae78f21dd82fcd179","66620a2eddcb3e96b18d4b1c","null","","null","","","","","","","","./tasks/HMM-beads/Images/WhiteBeadChoice.png","","","","","","","","","",""
"image-keyboard-response","369","837097","0.0-3.0-6.0-1.0-2.77","5b87e73d53303600015ea51c","6662009ae78f21dd82fcd179","66620a2eddcb3e96b18d4b1c","null","","null","","","","","","","","./tasks/HMM-beads/Images/WhiteBeadChoiceWrong.png","","","","","","","","","",""
"image-keyboard-response","370","837470","0.0-3.0-6.0-1.0-0.78","5b87e73d53303600015ea51c","6662009ae78f21dd82fcd179","66620a2eddcb3e96b18d4b1c","371","","j","","","","","","","","./tasks/HMM-beads/Images/NewTrialBC.png","lowH","1","78","0","0","0","1","false","",""
"image-keyboard-response","371","837776","0.0-3.0-6.0-1.0-1.78","5b87e73d53303600015ea51c","6662009ae78f21dd82fcd179","66620a2eddcb3e96b18d4b1c","null","","null","","","","","","","","./tasks/HMM-beads/Images/WhiteBeadChoice.png","","","","","","","","","",""
"image-keyboard-response","372","838279","0.0-3.0-6.0-1.0-2.78","5b87e73d53303600015ea51c","6662009ae78f21dd82fcd179","66620a2eddcb3e96b18d4b1c","null","","null","","","","","","","","./tasks/HMM-beads/Images/WhiteBeadChoiceWrong.png","","","","","","","","","",""
"image-keyboard-response","373","838282","0.0-3.0-6.0-1.0-0.79","5b87e73d53303600015ea51c","6662009ae78f21dd82fcd179","66620a2eddcb3e96b18d4b1c","3","","j","","","","","","","","./tasks/HMM-beads/Images/NewTrialBC.png","lowH","1","79","0","0","0","1","false","",""
"image-keyboard-response","374","838592","0.0-3.0-6.0-1.0-1.79","5b87e73d53303600015ea51c","6662009ae78f21dd82fcd179","66620a2eddcb3e96b18d4b1c","null","","null","","","","","","","","./tasks/HMM-beads/Images/WhiteBeadChoice.png","","","","","","","","","",""
