"trial_type","trial_index","time_elapsed","internal_node_id","subject_id","study_id","session_id","rt","url","response","question_order","view_history","success","timeout","failed_images","failed_audio","failed_video","stimulus","block","block_rep","trial_number","jar","bead","previous_bead","choice","correct","lowH_score","total_bonus"
"pavlovia","0","1234","0.0-0.0","5b6545f19ed653000189a3a4","6662009ae78f21dd82fcd179","66620d404d066a268d713931","","","","","","","","","","","","","","","","","","","","",""
"external-html","1","14446","0.0-1.0-0.0","5b6545f19ed653000189a3a4","6662009ae78f21dd82fcd179","66620d404d066a268d713931","13047","new_consent.html","","","","","","","","","","","","","","","","","","",""
"survey-multi-choice","2","18280","0.0-1.0-1.0","5b6545f19ed653000189a3a4","6662009ae78f21dd82fcd179","66620d404d066a268d713931","3833","","{""Q0"":""Male"",""Q1"":""Asian""}","[0,1]","","","","","","","","","","","","","","","","",""
"survey-text","3","19974","0.0-1.0-2.0","5b6545f19ed653000189a3a4","6662009ae78f21dd82fcd179","66620d404d066a268d713931","1692","","{""Q0"":""23""}","","","","","","","","","","","","","","","","","",""
"instructions","4","21587","0.0-2.0","5b6545f19ed653000189a3a4","6662009ae78f21dd82fcd179","66620d404d066a268d713931","1511","","","","[{""page_index"":0,""viewing_time"":1511}]","","","","","","","","","","","","","","","",""
"preload","5","22887","0.0-3.0-0.0","5b6545f19ed653000189a3a4","6662009ae78f21dd82fcd179","66620d404d066a268d713931","","","","","","true","false","[]","[]","[]","","","","","","","","","","",""
"instructions","6","89921","0.0-3.0-1.0","5b6545f19ed653000189a3a4","6662009ae78f21dd82fcd179","66620d404d066a268d713931","67035","","","","[{""page_index"":0,""viewing_time"":15169},{""page_index"":1,""viewing_time"":4095},{""page_index"":2,""viewing_time"":1291},{""page_index"":3,""viewing_time"":847},{""page_index"":4,""viewing_time"":4598},{""page_index"":5,""viewing_time"":13823},{""page_index"":6,""viewing_time"":4417},{""page_index"":7,""viewing_time"":4157},{""page_index"":8,""viewing_time"":1980},{""page_index"":9,""viewing_time"":9435},{""page_index"":10,""viewing_time"":5963},{""page_index"":11,""viewing_time"":1260}]","","","","","","","","","","","","","","","",""
"html-button-response","7","92112","0.0-3.0-2.0-0.0-0.0","5b6545f19ed653000189a3a4","6662009ae78f21dd82fcd179","66620d404d066a268d713931","2190","","1","","","","","","","","<div align=center>Your goal is to predict…?<br><br></div>","","","","","","","","","",""
"html-button-response","8","94624","0.0-3.0-2.0-1.0-0.0","5b6545f19ed653000189a3a4","6662009ae78f21dd82fcd179","66620d404d066a268d713931","1469","","2","","","","","","","","<div align=center>In the jar with mostly white beads, there are ___% white beads and ___% black beads?<br><br></div>","","","","","","","","","",""
"html-button-response","9","103308","0.0-3.0-2.0-2.0-0.0","5b6545f19ed653000189a3a4","6662009ae78f21dd82fcd179","66620d404d066a268d713931","8061","","0","","","","","","","","<div align=center>When there is a 1% probability that the jars will switch, the next bead will most likely be drawn from the…<br><br></div>","","","","","","","","","",""
"html-button-response","10","105268","0.0-3.0-2.0-3.0-0.0","5b6545f19ed653000189a3a4","6662009ae78f21dd82fcd179","66620d404d066a268d713931","1209","","1","","","","","","","","<div align=center>When there is a 99% probability that the jars will switch, the next bead will most likely be drawn from the…<br><br></div>","","","","","","","","","",""
"instructions","11","126088","0.0-3.0-3.0","5b6545f19ed653000189a3a4","6662009ae78f21dd82fcd179","66620d404d066a268d713931","20175","","","","[{""page_index"":0,""viewing_time"":20175}]","","","","","","","","","","","","","","","",""
"html-keyboard-response","12","129334","0.0-3.0-4.0-0.0","5b6545f19ed653000189a3a4","6662009ae78f21dd82fcd179","66620d404d066a268d713931","3246",""," ","","","","","","","","<div align=center>In this practice block, there will be a <b>1% chance</b> that the jar on the next trial will be different from the jar on the current trial.<br><br></div>","","","","","","","","","",""
"image-keyboard-response","13","133229","0.0-3.0-4.0-1.0-0.0","5b6545f19ed653000189a3a4","6662009ae78f21dd82fcd179","66620d404d066a268d713931","3893","","f","","","","","","","","./tasks/HMM-beads/Images/NoChoice.png","practice","0","0","0","0","9","0","true","",""
"image-keyboard-response","14","133530","0.0-3.0-4.0-1.0-1.0","5b6545f19ed653000189a3a4","6662009ae78f21dd82fcd179","66620d404d066a268d713931","null","","null","","","","","","","","./tasks/HMM-beads/Images/BlackBeadChoice.png","","","","","","","","","",""
"image-keyboard-response","15","134032","0.0-3.0-4.0-1.0-2.0","5b6545f19ed653000189a3a4","6662009ae78f21dd82fcd179","66620d404d066a268d713931","null","","null","","","","","","","","./tasks/HMM-beads/Images/BlackBeadChoiceCorrect.png","","","","","","","","","",""
"image-keyboard-response","16","135597","0.0-3.0-4.0-1.0-0.1","5b6545f19ed653000189a3a4","6662009ae78f21dd82fcd179","66620d404d066a268d713931","1565","","f","","","","","","","","./tasks/HMM-beads/Images/NewTrialBC.png","practice","0","1","0","0","0","0","true","",""
"image-keyboard-response","17","135899","0.0-3.0-4.0-1.0-1.1","5b6545f19ed653000189a3a4","6662009ae78f21dd82fcd179","66620d404d066a268d713931","null","","null","","","","","","","","./tasks/HMM-beads/Images/BlackBeadChoice.png","","","","","","","","","",""
"image-keyboard-response","18","136400","0.0-3.0-4.0-1.0-2.1","5b6545f19ed653000189a3a4","6662009ae78f21dd82fcd179","66620d404d066a268d713931","null","","null","","","","","","","","./tasks/HMM-beads/Images/BlackBeadChoiceCorrect.png","","","","","","","","","",""
"image-keyboard-response","19","137406","0.0-3.0-4.0-1.0-0.2","5b6545f19ed653000189a3a4","6662009ae78f21dd82fcd179","66620d404d066a268d713931","1006","","f","","","","","","","","./tasks/HMM-beads/Images/NewTrialBC.png","practice","0","2","0","1","0","0","false","",""
"image-keyboard-response","20","137708","0.0-3.0-4.0-1.0-1.2","5b6545f19ed653000189a3a4","6662009ae78f21dd82fcd179","66620d404d066a268d713931","null","","null","","","","","","","","./tasks/HMM-beads/Images/BlackBeadChoice.png","","","","","","","","","",""
"image-keyboard-response","21","138209","0.0-3.0-4.0-1.0-2.2","5b6545f19ed653000189a3a4","6662009ae78f21dd82fcd179","66620d404d066a268d713931","null","","null","","","","","","","","./tasks/HMM-beads/Images/BlackBeadChoiceWrong.png","","","","","","","","","",""
"image-keyboard-response","22","138655","0.0-3.0-4.0-1.0-0.3","5b6545f19ed653000189a3a4","6662009ae78f21dd82fcd179","66620d404d066a268d713931","445","","f","","","","","","","","./tasks/HMM-beads/Images/NewTrialWC.png","practice","0","3","0","0","1","0","true","",""
"image-keyboard-response","23","138956","0.0-3.0-4.0-1.0-1.3","5b6545f19ed653000189a3a4","6662009ae78f21dd82fcd179","66620d404d066a268d713931","null","","null","","","","","","","","./tasks/HMM-beads/Images/BlackBeadChoice.png","","","","","","","","","",""
"image-keyboard-response","24","139458","0.0-3.0-4.0-1.0-2.3","5b6545f19ed653000189a3a4","6662009ae78f21dd82fcd179","66620d404d066a268d713931","null","","null","","","","","","","","./tasks/HMM-beads/Images/BlackBeadChoiceCorrect.png","","","","","","","","","",""
"image-keyboard-response","25","139789","0.0-3.0-4.0-1.0-0.4","5b6545f19ed653000189a3a4","6662009ae78f21dd82fcd179","66620d404d066a268d713931","330","","f","","","","","","","","./tasks/HMM-beads/Images/NewTrialBC.png","practice","0","4","0","0","0","0","true","",""
"image-keyboard-response","26","140090","0.0-3.0-4.0-1.0-1.4","5b6545f19ed653000189a3a4","6662009ae78f21dd82fcd179","66620d404d066a268d713931","null","","null","","","","","","","","./tasks/HMM-beads/Images/BlackBeadChoice.png","","","","","","","","","",""
"image-keyboard-response","27","140591","0.0-3.0-4.0-1.0-2.4","5b6545f19ed653000189a3a4","6662009ae78f21dd82fcd179","66620d404d066a268d713931","null","","null","","","","","","","","./tasks/HMM-beads/Images/BlackBeadChoiceCorrect.png","","","","","","","","","",""
"image-keyboard-response","28","141133","0.0-3.0-4.0-1.0-0.5","5b6545f19ed653000189a3a4","6662009ae78f21dd82fcd179","66620d404d066a268d713931","541","","f","","","","","","","","./tasks/HMM-beads/Images/NewTrialBC.png","practice","0","5","0","1","0","0","false","",""
"image-keyboard-response","29","141435","0.0-3.0-4.0-1.0-1.5","5b6545f19ed653000189a3a4","6662009ae78f21dd82fcd179","66620d404d066a268d713931","null","","null","","","","","","","","./tasks/HMM-beads/Images/BlackBeadChoice.png","","","","","","","","","",""
"image-keyboard-response","30","141936","0.0-3.0-4.0-1.0-2.5","5b6545f19ed653000189a3a4","6662009ae78f21dd82fcd179","66620d404d066a268d713931","null","","null","","","","","","","","./tasks/HMM-beads/Images/BlackBeadChoiceWrong.png","","","","","","","","","",""
"image-keyboard-response","31","142509","0.0-3.0-4.0-1.0-0.6","5b6545f19ed653000189a3a4","6662009ae78f21dd82fcd179","66620d404d066a268d713931","573","","f","","","","","","","","./tasks/HMM-beads/Images/NewTrialWC.png","practice","0","6","0","0","1","0","true","",""
"image-keyboard-response","32","142810","0.0-3.0-4.0-1.0-1.6","5b6545f19ed653000189a3a4","6662009ae78f21dd82fcd179","66620d404d066a268d713931","null","","null","","","","","","","","./tasks/HMM-beads/Images/BlackBeadChoice.png","","","","","","","","","",""
"image-keyboard-response","33","143312","0.0-3.0-4.0-1.0-2.6","5b6545f19ed653000189a3a4","6662009ae78f21dd82fcd179","66620d404d066a268d713931","null","","null","","","","","","","","./tasks/HMM-beads/Images/BlackBeadChoiceCorrect.png","","","","","","","","","",""
"image-keyboard-response","34","143951","0.0-3.0-4.0-1.0-0.7","5b6545f19ed653000189a3a4","6662009ae78f21dd82fcd179","66620d404d066a268d713931","639","","f","","","","","","","","./tasks/HMM-beads/Images/NewTrialBC.png","practice","0","7","0","0","0","0","true","",""
"image-keyboard-response","35","144252","0.0-3.0-4.0-1.0-1.7","5b6545f19ed653000189a3a4","6662009ae78f21dd82fcd179","66620d404d066a268d713931","null","","null","","","","","","","","./tasks/HMM-beads/Images/BlackBeadChoice.png","","","","","","","","","",""
"image-keyboard-response","36","144753","0.0-3.0-4.0-1.0-2.7","5b6545f19ed653000189a3a4","6662009ae78f21dd82fcd179","66620d404d066a268d713931","null","","null","","","","","","","","./tasks/HMM-beads/Images/BlackBeadChoiceCorrect.png","","","","","","","","","",""
"image-keyboard-response","37","145213","0.0-3.0-4.0-1.0-0.8","5b6545f19ed653000189a3a4","6662009ae78f21dd82fcd179","66620d404d066a268d713931","460","","j","","","","","","","","./tasks/HMM-beads/Images/NewTrialBC.png","practice","0","8","0","0","0","1","false","",""
"image-keyboard-response","38","145516","0.0-3.0-4.0-1.0-1.8","5b6545f19ed653000189a3a4","6662009ae78f21dd82fcd179","66620d404d066a268d713931","null","","null","","","","","","","","./tasks/HMM-beads/Images/WhiteBeadChoice.png","","","","","","","","","",""
"image-keyboard-response","39","146017","0.0-3.0-4.0-1.0-2.8","5b6545f19ed653000189a3a4","6662009ae78f21dd82fcd179","66620d404d066a268d713931","null","","null","","","","","","","","./tasks/HMM-beads/Images/WhiteBeadChoiceWrong.png","","","","","","","","","",""
"image-keyboard-response","40","147197","0.0-3.0-4.0-1.0-0.9","5b6545f19ed653000189a3a4","6662009ae78f21dd82fcd179","66620d404d066a268d713931","1179","","f","","","","","","","","./tasks/HMM-beads/Images/NewTrialBC.png","practice","0","9","0","1","0","0","false","",""
"image-keyboard-response","41","147499","0.0-3.0-4.0-1.0-1.9","5b6545f19ed653000189a3a4","6662009ae78f21dd82fcd179","66620d404d066a268d713931","null","","null","","","","","","","","./tasks/HMM-beads/Images/BlackBeadChoice.png","","","","","","","","","",""
"image-keyboard-response","42","148001","0.0-3.0-4.0-1.0-2.9","5b6545f19ed653000189a3a4","6662009ae78f21dd82fcd179","66620d404d066a268d713931","null","","null","","","","","","","","./tasks/HMM-beads/Images/BlackBeadChoiceWrong.png","","","","","","","","","",""
"image-keyboard-response","43","148605","0.0-3.0-4.0-1.0-0.10","5b6545f19ed653000189a3a4","6662009ae78f21dd82fcd179","66620d404d066a268d713931","604","","f","","","","","","","","./tasks/HMM-beads/Images/NewTrialWC.png","practice","0","10","0","0","1","0","true","",""
"image-keyboard-response","44","148907","0.0-3.0-4.0-1.0-1.10","5b6545f19ed653000189a3a4","6662009ae78f21dd82fcd179","66620d404d066a268d713931","null","","null","","","","","","","","./tasks/HMM-beads/Images/BlackBeadChoice.png","","","","","","","","","",""
"image-keyboard-response","45","149408","0.0-3.0-4.0-1.0-2.10","5b6545f19ed653000189a3a4","6662009ae78f21dd82fcd179","66620d404d066a268d713931","null","","null","","","","","","","","./tasks/HMM-beads/Images/BlackBeadChoiceCorrect.png","","","","","","","","","",""
"image-keyboard-response","46","149686","0.0-3.0-4.0-1.0-0.11","5b6545f19ed653000189a3a4","6662009ae78f21dd82fcd179","66620d404d066a268d713931","277","","f","","","","","","","","./tasks/HMM-beads/Images/NewTrialBC.png","practice","0","11","0","1","0","0","false","",""
"image-keyboard-response","47","149986","0.0-3.0-4.0-1.0-1.11","5b6545f19ed653000189a3a4","6662009ae78f21dd82fcd179","66620d404d066a268d713931","null","","null","","","","","","","","./tasks/HMM-beads/Images/BlackBeadChoice.png","","","","","","","","","",""
"image-keyboard-response","48","150488","0.0-3.0-4.0-1.0-2.11","5b6545f19ed653000189a3a4","6662009ae78f21dd82fcd179","66620d404d066a268d713931","null","","null","","","","","","","","./tasks/HMM-beads/Images/BlackBeadChoiceWrong.png","","","","","","","","","",""
"image-keyboard-response","49","151101","0.0-3.0-4.0-1.0-0.12","5b6545f19ed653000189a3a4","6662009ae78f21dd82fcd179","66620d404d066a268d713931","613","","f","","","","","","","","./tasks/HMM-beads/Images/NewTrialWC.png","practice","0","12","0","0","1","0","true","",""
"image-keyboard-response","50","151402","0.0-3.0-4.0-1.0-1.12","5b6545f19ed653000189a3a4","6662009ae78f21dd82fcd179","66620d404d066a268d713931","null","","null","","","","","","","","./tasks/HMM-beads/Images/BlackBeadChoice.png","","","","","","","","","",""
"image-keyboard-response","51","151905","0.0-3.0-4.0-1.0-2.12","5b6545f19ed653000189a3a4","6662009ae78f21dd82fcd179","66620d404d066a268d713931","null","","null","","","","","","","","./tasks/HMM-beads/Images/BlackBeadChoiceCorrect.png","","","","","","","","","",""
"image-keyboard-response","52","152142","0.0-3.0-4.0-1.0-0.13","5b6545f19ed653000189a3a4","6662009ae78f21dd82fcd179","66620d404d066a268d713931","237","","j","","","","","","","","./tasks/HMM-beads/Images/NewTrialBC.png","practice","0","13","0","0","0","1","false","",""
"image-keyboard-response","53","152442","0.0-3.0-4.0-1.0-1.13","5b6545f19ed653000189a3a4","6662009ae78f21dd82fcd179","66620d404d066a268d713931","null","","null","","","","","","","","./tasks/HMM-beads/Images/WhiteBeadChoice.png","","","","","","","","","",""
"image-keyboard-response","54","152944","0.0-3.0-4.0-1.0-2.13","5b6545f19ed653000189a3a4","6662009ae78f21dd82fcd179","66620d404d066a268d713931","null","","null","","","","","","","","./tasks/HMM-beads/Images/WhiteBeadChoiceWrong.png","","","","","","","","","",""
"image-keyboard-response","55","153645","0.0-3.0-4.0-1.0-0.14","5b6545f19ed653000189a3a4","6662009ae78f21dd82fcd179","66620d404d066a268d713931","701","","f","","","","","","","","./tasks/HMM-beads/Images/NewTrialBC.png","practice","0","14","0","0","0","0","true","",""
"image-keyboard-response","56","153947","0.0-3.0-4.0-1.0-1.14","5b6545f19ed653000189a3a4","6662009ae78f21dd82fcd179","66620d404d066a268d713931","null","","null","","","","","","","","./tasks/HMM-beads/Images/BlackBeadChoice.png","","","","","","","","","",""
"image-keyboard-response","57","154448","0.0-3.0-4.0-1.0-2.14","5b6545f19ed653000189a3a4","6662009ae78f21dd82fcd179","66620d404d066a268d713931","null","","null","","","","","","","","./tasks/HMM-beads/Images/BlackBeadChoiceCorrect.png","","","","","","","","","",""
"image-keyboard-response","58","154734","0.0-3.0-4.0-1.0-0.15","5b6545f19ed653000189a3a4","6662009ae78f21dd82fcd179","66620d404d066a268d713931","286","","j","","","","","","","","./tasks/HMM-beads/Images/NewTrialBC.png","practice","0","15","0","0","0","1","false","",""
"image-keyboard-response","59","155035","0.0-3.0-4.0-1.0-1.15","5b6545f19ed653000189a3a4","6662009ae78f21dd82fcd179","66620d404d066a268d713931","null","","null","","","","","","","","./tasks/HMM-beads/Images/WhiteBeadChoice.png","","","","","","","","","",""
"image-keyboard-response","60","155537","0.0-3.0-4.0-1.0-2.15","5b6545f19ed653000189a3a4","6662009ae78f21dd82fcd179","66620d404d066a268d713931","null","","null","","","","","","","","./tasks/HMM-beads/Images/WhiteBeadChoiceWrong.png","","","","","","","","","",""
"image-keyboard-response","61","155949","0.0-3.0-4.0-1.0-0.16","5b6545f19ed653000189a3a4","6662009ae78f21dd82fcd179","66620d404d066a268d713931","412","","f","","","","","","","","./tasks/HMM-beads/Images/NewTrialBC.png","practice","0","16","0","0","0","0","true","",""
"image-keyboard-response","62","156250","0.0-3.0-4.0-1.0-1.16","5b6545f19ed653000189a3a4","6662009ae78f21dd82fcd179","66620d404d066a268d713931","null","","null","","","","","","","","./tasks/HMM-beads/Images/BlackBeadChoice.png","","","","","","","","","",""
"image-keyboard-response","63","156751","0.0-3.0-4.0-1.0-2.16","5b6545f19ed653000189a3a4","6662009ae78f21dd82fcd179","66620d404d066a268d713931","null","","null","","","","","","","","./tasks/HMM-beads/Images/BlackBeadChoiceCorrect.png","","","","","","","","","",""
"image-keyboard-response","64","157253","0.0-3.0-4.0-1.0-0.17","5b6545f19ed653000189a3a4","6662009ae78f21dd82fcd179","66620d404d066a268d713931","502","","j","","","","","","","","./tasks/HMM-beads/Images/NewTrialBC.png","practice","0","17","0","0","0","1","false","",""
"image-keyboard-response","65","157554","0.0-3.0-4.0-1.0-1.17","5b6545f19ed653000189a3a4","6662009ae78f21dd82fcd179","66620d404d066a268d713931","null","","null","","","","","","","","./tasks/HMM-beads/Images/WhiteBeadChoice.png","","","","","","","","","",""
"image-keyboard-response","66","158056","0.0-3.0-4.0-1.0-2.17","5b6545f19ed653000189a3a4","6662009ae78f21dd82fcd179","66620d404d066a268d713931","null","","null","","","","","","","","./tasks/HMM-beads/Images/WhiteBeadChoiceWrong.png","","","","","","","","","",""
"image-keyboard-response","67","158285","0.0-3.0-4.0-1.0-0.18","5b6545f19ed653000189a3a4","6662009ae78f21dd82fcd179","66620d404d066a268d713931","229","","f","","","","","","","","./tasks/HMM-beads/Images/NewTrialBC.png","practice","0","18","0","1","0","0","false","",""
"image-keyboard-response","68","158586","0.0-3.0-4.0-1.0-1.18","5b6545f19ed653000189a3a4","6662009ae78f21dd82fcd179","66620d404d066a268d713931","null","","null","","","","","","","","./tasks/HMM-beads/Images/BlackBeadChoice.png","","","","","","","","","",""
"image-keyboard-response","69","159087","0.0-3.0-4.0-1.0-2.18","5b6545f19ed653000189a3a4","6662009ae78f21dd82fcd179","66620d404d066a268d713931","null","","null","","","","","","","","./tasks/HMM-beads/Images/BlackBeadChoiceWrong.png","","","","","","","","","",""
"image-keyboard-response","70","160046","0.0-3.0-4.0-1.0-0.19","5b6545f19ed653000189a3a4","6662009ae78f21dd82fcd179","66620d404d066a268d713931","958","","f","","","","","","","","./tasks/HMM-beads/Images/NewTrialWC.png","practice","0","19","0","0","1","0","true","",""
"image-keyboard-response","71","160347","0.0-3.0-4.0-1.0-1.19","5b6545f19ed653000189a3a4","6662009ae78f21dd82fcd179","66620d404d066a268d713931","null","","null","","","","","","","","./tasks/HMM-beads/Images/BlackBeadChoice.png","","","","","","","","","",""
"image-keyboard-response","72","160849","0.0-3.0-4.0-1.0-2.19","5b6545f19ed653000189a3a4","6662009ae78f21dd82fcd179","66620d404d066a268d713931","null","","null","","","","","","","","./tasks/HMM-beads/Images/BlackBeadChoiceCorrect.png","","","","","","","","","",""
"image-keyboard-response","73","161165","0.0-3.0-4.0-1.0-0.20","5b6545f19ed653000189a3a4","6662009ae78f21dd82fcd179","66620d404d066a268d713931","316","","f","","","","","","","","./tasks/HMM-beads/Images/NewTrialBC.png","practice","0","20","0","0","0","0","true","",""
"image-keyboard-response","74","161467","0.0-3.0-4.0-1.0-1.20","5b6545f19ed653000189a3a4","6662009ae78f21dd82fcd179","66620d404d066a268d713931","null","","null","","","","","","","","./tasks/HMM-beads/Images/BlackBeadChoice.png","","","","","","","","","",""
"image-keyboard-response","75","161968","0.0-3.0-4.0-1.0-2.20","5b6545f19ed653000189a3a4","6662009ae78f21dd82fcd179","66620d404d066a268d713931","null","","null","","","","","","","","./tasks/HMM-beads/Images/BlackBeadChoiceCorrect.png","","","","","","","","","",""
"image-keyboard-response","76","162301","0.0-3.0-4.0-1.0-0.21","5b6545f19ed653000189a3a4","6662009ae78f21dd82fcd179","66620d404d066a268d713931","333","","f","","","","","","","","./tasks/HMM-beads/Images/NewTrialBC.png","practice","0","21","0","1","0","0","false","",""
"image-keyboard-response","77","162604","0.0-3.0-4.0-1.0-1.21","5b6545f19ed653000189a3a4","6662009ae78f21dd82fcd179","66620d404d066a268d713931","null","","null","","","","","","","","./tasks/HMM-beads/Images/BlackBeadChoice.png","","","","","","","","","",""
"image-keyboard-response","78","163105","0.0-3.0-4.0-1.0-2.21","5b6545f19ed653000189a3a4","6662009ae78f21dd82fcd179","66620d404d066a268d713931","null","","null","","","","","","","","./tasks/HMM-beads/Images/BlackBeadChoiceWrong.png","","","","","","","","","",""
"image-keyboard-response","79","163422","0.0-3.0-4.0-1.0-0.22","5b6545f19ed653000189a3a4","6662009ae78f21dd82fcd179","66620d404d066a268d713931","316","","f","","","","","","","","./tasks/HMM-beads/Images/NewTrialWC.png","practice","0","22","1","1","1","0","false","",""
"image-keyboard-response","80","163723","0.0-3.0-4.0-1.0-1.22","5b6545f19ed653000189a3a4","6662009ae78f21dd82fcd179","66620d404d066a268d713931","null","","null","","","","","","","","./tasks/HMM-beads/Images/BlackBeadChoice.png","","","","","","","","","",""
"image-keyboard-response","81","164225","0.0-3.0-4.0-1.0-2.22","5b6545f19ed653000189a3a4","6662009ae78f21dd82fcd179","66620d404d066a268d713931","null","","null","","","","","","","","./tasks/HMM-beads/Images/BlackBeadChoiceWrong.png","","","","","","","","","",""
"image-keyboard-response","82","164549","0.0-3.0-4.0-1.0-0.23","5b6545f19ed653000189a3a4","6662009ae78f21dd82fcd179","66620d404d066a268d713931","324","","f","","","","","","","","./tasks/HMM-beads/Images/NewTrialWC.png","practice","0","23","1","0","1","0","true","",""
"image-keyboard-response","83","164850","0.0-3.0-4.0-1.0-1.23","5b6545f19ed653000189a3a4","6662009ae78f21dd82fcd179","66620d404d066a268d713931","null","","null","","","","","","","","./tasks/HMM-beads/Images/BlackBeadChoice.png","","","","","","","","","",""
"image-keyboard-response","84","165352","0.0-3.0-4.0-1.0-2.23","5b6545f19ed653000189a3a4","6662009ae78f21dd82fcd179","66620d404d066a268d713931","null","","null","","","","","","","","./tasks/HMM-beads/Images/BlackBeadChoiceCorrect.png","","","","","","","","","",""
"image-keyboard-response","85","165702","0.0-3.0-4.0-1.0-0.24","5b6545f19ed653000189a3a4","6662009ae78f21dd82fcd179","66620d404d066a268d713931","349","","f","","","","","","","","./tasks/HMM-beads/Images/NewTrialBC.png","practice","0","24","1","1","0","0","false","",""
"image-keyboard-response","86","166003","0.0-3.0-4.0-1.0-1.24","5b6545f19ed653000189a3a4","6662009ae78f21dd82fcd179","66620d404d066a268d713931","null","","null","","","","","","","","./tasks/HMM-beads/Images/BlackBeadChoice.png","","","","","","","","","",""
"image-keyboard-response","87","166504","0.0-3.0-4.0-1.0-2.24","5b6545f19ed653000189a3a4","6662009ae78f21dd82fcd179","66620d404d066a268d713931","null","","null","","","","","","","","./tasks/HMM-beads/Images/BlackBeadChoiceWrong.png","","","","","","","","","",""
"image-keyboard-response","88","166725","0.0-3.0-4.0-1.0-0.25","5b6545f19ed653000189a3a4","6662009ae78f21dd82fcd179","66620d404d066a268d713931","220","","j","","","","","","","","./tasks/HMM-beads/Images/NewTrialWC.png","practice","0","25","1","1","1","1","true","",""
"image-keyboard-response","89","167026","0.0-3.0-4.0-1.0-1.25","5b6545f19ed653000189a3a4","6662009ae78f21dd82fcd179","66620d404d066a268d713931","null","","null","","","","","","","","./tasks/HMM-beads/Images/WhiteBeadChoice.png","","","","","","","","","",""
"image-keyboard-response","90","167529","0.0-3.0-4.0-1.0-2.25","5b6545f19ed653000189a3a4","6662009ae78f21dd82fcd179","66620d404d066a268d713931","null","","null","","","","","","","","./tasks/HMM-beads/Images/WhiteBeadChoiceCorrect.png","","","","","","","","","",""
"image-keyboard-response","91","167917","0.0-3.0-4.0-1.0-0.26","5b6545f19ed653000189a3a4","6662009ae78f21dd82fcd179","66620d404d066a268d713931","388","","j","","","","","","","","./tasks/HMM-beads/Images/NewTrialWC.png","practice","0","26","1","1","1","1","true","",""
"image-keyboard-response","92","168218","0.0-3.0-4.0-1.0-1.26","5b6545f19ed653000189a3a4","6662009ae78f21dd82fcd179","66620d404d066a268d713931","null","","null","","","","","","","","./tasks/HMM-beads/Images/WhiteBeadChoice.png","","","","","","","","","",""
"image-keyboard-response","93","168720","0.0-3.0-4.0-1.0-2.26","5b6545f19ed653000189a3a4","6662009ae78f21dd82fcd179","66620d404d066a268d713931","null","","null","","","","","","","","./tasks/HMM-beads/Images/WhiteBeadChoiceCorrect.png","","","","","","","","","",""
"image-keyboard-response","94","168933","0.0-3.0-4.0-1.0-0.27","5b6545f19ed653000189a3a4","6662009ae78f21dd82fcd179","66620d404d066a268d713931","213","","j","","","","","","","","./tasks/HMM-beads/Images/NewTrialWC.png","practice","0","27","1","1","1","1","true","",""
"image-keyboard-response","95","169234","0.0-3.0-4.0-1.0-1.27","5b6545f19ed653000189a3a4","6662009ae78f21dd82fcd179","66620d404d066a268d713931","null","","null","","","","","","","","./tasks/HMM-beads/Images/WhiteBeadChoice.png","","","","","","","","","",""
"image-keyboard-response","96","169735","0.0-3.0-4.0-1.0-2.27","5b6545f19ed653000189a3a4","6662009ae78f21dd82fcd179","66620d404d066a268d713931","null","","null","","","","","","","","./tasks/HMM-beads/Images/WhiteBeadChoiceCorrect.png","","","","","","","","","",""
"image-keyboard-response","97","170046","0.0-3.0-4.0-1.0-0.28","5b6545f19ed653000189a3a4","6662009ae78f21dd82fcd179","66620d404d066a268d713931","310","","j","","","","","","","","./tasks/HMM-beads/Images/NewTrialWC.png","practice","0","28","1","0","1","1","false","",""
"image-keyboard-response","98","170347","0.0-3.0-4.0-1.0-1.28","5b6545f19ed653000189a3a4","6662009ae78f21dd82fcd179","66620d404d066a268d713931","null","","null","","","","","","","","./tasks/HMM-beads/Images/WhiteBeadChoice.png","","","","","","","","","",""
"image-keyboard-response","99","170849","0.0-3.0-4.0-1.0-2.28","5b6545f19ed653000189a3a4","6662009ae78f21dd82fcd179","66620d404d066a268d713931","null","","null","","","","","","","","./tasks/HMM-beads/Images/WhiteBeadChoiceWrong.png","","","","","","","","","",""
"image-keyboard-response","100","171285","0.0-3.0-4.0-1.0-0.29","5b6545f19ed653000189a3a4","6662009ae78f21dd82fcd179","66620d404d066a268d713931","436","","f","","","","","","","","./tasks/HMM-beads/Images/NewTrialBC.png","practice","0","29","1","1","0","0","false","",""
"image-keyboard-response","101","171587","0.0-3.0-4.0-1.0-1.29","5b6545f19ed653000189a3a4","6662009ae78f21dd82fcd179","66620d404d066a268d713931","null","","null","","","","","","","","./tasks/HMM-beads/Images/BlackBeadChoice.png","","","","","","","","","",""
"image-keyboard-response","102","172088","0.0-3.0-4.0-1.0-2.29","5b6545f19ed653000189a3a4","6662009ae78f21dd82fcd179","66620d404d066a268d713931","null","","null","","","","","","","","./tasks/HMM-beads/Images/BlackBeadChoiceWrong.png","","","","","","","","","",""
"image-keyboard-response","103","172462","0.0-3.0-4.0-1.0-0.30","5b6545f19ed653000189a3a4","6662009ae78f21dd82fcd179","66620d404d066a268d713931","373","","j","","","","","","","","./tasks/HMM-beads/Images/NewTrialWC.png","practice","0","30","1","0","1","1","false","",""
"image-keyboard-response","104","172763","0.0-3.0-4.0-1.0-1.30","5b6545f19ed653000189a3a4","6662009ae78f21dd82fcd179","66620d404d066a268d713931","null","","null","","","","","","","","./tasks/HMM-beads/Images/WhiteBeadChoice.png","","","","","","","","","",""
"image-keyboard-response","105","173264","0.0-3.0-4.0-1.0-2.30","5b6545f19ed653000189a3a4","6662009ae78f21dd82fcd179","66620d404d066a268d713931","null","","null","","","","","","","","./tasks/HMM-beads/Images/WhiteBeadChoiceWrong.png","","","","","","","","","",""
"image-keyboard-response","106","173589","0.0-3.0-4.0-1.0-0.31","5b6545f19ed653000189a3a4","6662009ae78f21dd82fcd179","66620d404d066a268d713931","325","","j","","","","","","","","./tasks/HMM-beads/Images/NewTrialBC.png","practice","0","31","1","1","0","1","true","",""
"image-keyboard-response","107","173890","0.0-3.0-4.0-1.0-1.31","5b6545f19ed653000189a3a4","6662009ae78f21dd82fcd179","66620d404d066a268d713931","null","","null","","","","","","","","./tasks/HMM-beads/Images/WhiteBeadChoice.png","","","","","","","","","",""
"image-keyboard-response","108","174391","0.0-3.0-4.0-1.0-2.31","5b6545f19ed653000189a3a4","6662009ae78f21dd82fcd179","66620d404d066a268d713931","null","","null","","","","","","","","./tasks/HMM-beads/Images/WhiteBeadChoiceCorrect.png","","","","","","","","","",""
"image-keyboard-response","109","174597","0.0-3.0-4.0-1.0-0.32","5b6545f19ed653000189a3a4","6662009ae78f21dd82fcd179","66620d404d066a268d713931","206","","j","","","","","","","","./tasks/HMM-beads/Images/NewTrialWC.png","practice","0","32","1","1","1","1","true","",""
"image-keyboard-response","110","174899","0.0-3.0-4.0-1.0-1.32","5b6545f19ed653000189a3a4","6662009ae78f21dd82fcd179","66620d404d066a268d713931","null","","null","","","","","","","","./tasks/HMM-beads/Images/WhiteBeadChoice.png","","","","","","","","","",""
"image-keyboard-response","111","175400","0.0-3.0-4.0-1.0-2.32","5b6545f19ed653000189a3a4","6662009ae78f21dd82fcd179","66620d404d066a268d713931","null","","null","","","","","","","","./tasks/HMM-beads/Images/WhiteBeadChoiceCorrect.png","","","","","","","","","",""
"image-keyboard-response","112","175613","0.0-3.0-4.0-1.0-0.33","5b6545f19ed653000189a3a4","6662009ae78f21dd82fcd179","66620d404d066a268d713931","213","","j","","","","","","","","./tasks/HMM-beads/Images/NewTrialWC.png","practice","0","33","1","1","1","1","true","",""
"image-keyboard-response","113","175914","0.0-3.0-4.0-1.0-1.33","5b6545f19ed653000189a3a4","6662009ae78f21dd82fcd179","66620d404d066a268d713931","null","","null","","","","","","","","./tasks/HMM-beads/Images/WhiteBeadChoice.png","","","","","","","","","",""
"image-keyboard-response","114","176415","0.0-3.0-4.0-1.0-2.33","5b6545f19ed653000189a3a4","6662009ae78f21dd82fcd179","66620d404d066a268d713931","null","","null","","","","","","","","./tasks/HMM-beads/Images/WhiteBeadChoiceCorrect.png","","","","","","","","","",""
"image-keyboard-response","115","176597","0.0-3.0-4.0-1.0-0.34","5b6545f19ed653000189a3a4","6662009ae78f21dd82fcd179","66620d404d066a268d713931","182","","j","","","","","","","","./tasks/HMM-beads/Images/NewTrialWC.png","practice","0","34","1","1","1","1","true","",""
"image-keyboard-response","116","176900","0.0-3.0-4.0-1.0-1.34","5b6545f19ed653000189a3a4","6662009ae78f21dd82fcd179","66620d404d066a268d713931","null","","null","","","","","","","","./tasks/HMM-beads/Images/WhiteBeadChoice.png","","","","","","","","","",""
"image-keyboard-response","117","177401","0.0-3.0-4.0-1.0-2.34","5b6545f19ed653000189a3a4","6662009ae78f21dd82fcd179","66620d404d066a268d713931","null","","null","","","","","","","","./tasks/HMM-beads/Images/WhiteBeadChoiceCorrect.png","","","","","","","","","",""
"image-keyboard-response","118","177670","0.0-3.0-4.0-1.0-0.35","5b6545f19ed653000189a3a4","6662009ae78f21dd82fcd179","66620d404d066a268d713931","269","","j","","","","","","","","./tasks/HMM-beads/Images/NewTrialWC.png","practice","0","35","1","1","1","1","true","",""
"image-keyboard-response","119","177971","0.0-3.0-4.0-1.0-1.35","5b6545f19ed653000189a3a4","6662009ae78f21dd82fcd179","66620d404d066a268d713931","null","","null","","","","","","","","./tasks/HMM-beads/Images/WhiteBeadChoice.png","","","","","","","","","",""
"image-keyboard-response","120","178472","0.0-3.0-4.0-1.0-2.35","5b6545f19ed653000189a3a4","6662009ae78f21dd82fcd179","66620d404d066a268d713931","null","","null","","","","","","","","./tasks/HMM-beads/Images/WhiteBeadChoiceCorrect.png","","","","","","","","","",""
"image-keyboard-response","121","178718","0.0-3.0-4.0-1.0-0.36","5b6545f19ed653000189a3a4","6662009ae78f21dd82fcd179","66620d404d066a268d713931","245","","j","","","","","","","","./tasks/HMM-beads/Images/NewTrialWC.png","practice","0","36","1","0","1","1","false","",""
"image-keyboard-response","122","179019","0.0-3.0-4.0-1.0-1.36","5b6545f19ed653000189a3a4","6662009ae78f21dd82fcd179","66620d404d066a268d713931","null","","null","","","","","","","","./tasks/HMM-beads/Images/WhiteBeadChoice.png","","","","","","","","","",""
"image-keyboard-response","123","179520","0.0-3.0-4.0-1.0-2.36","5b6545f19ed653000189a3a4","6662009ae78f21dd82fcd179","66620d404d066a268d713931","null","","null","","","","","","","","./tasks/HMM-beads/Images/WhiteBeadChoiceWrong.png","","","","","","","","","",""
"image-keyboard-response","124","179933","0.0-3.0-4.0-1.0-0.37","5b6545f19ed653000189a3a4","6662009ae78f21dd82fcd179","66620d404d066a268d713931","412","","j","","","","","","","","./tasks/HMM-beads/Images/NewTrialBC.png","practice","0","37","1","1","0","1","true","",""
"image-keyboard-response","125","180234","0.0-3.0-4.0-1.0-1.37","5b6545f19ed653000189a3a4","6662009ae78f21dd82fcd179","66620d404d066a268d713931","null","","null","","","","","","","","./tasks/HMM-beads/Images/WhiteBeadChoice.png","","","","","","","","","",""
"image-keyboard-response","126","180734","0.0-3.0-4.0-1.0-2.37","5b6545f19ed653000189a3a4","6662009ae78f21dd82fcd179","66620d404d066a268d713931","null","","null","","","","","","","","./tasks/HMM-beads/Images/WhiteBeadChoiceCorrect.png","","","","","","","","","",""
"image-keyboard-response","127","180869","0.0-3.0-4.0-1.0-0.38","5b6545f19ed653000189a3a4","6662009ae78f21dd82fcd179","66620d404d066a268d713931","135","","j","","","","","","","","./tasks/HMM-beads/Images/NewTrialWC.png","practice","0","38","1","1","1","1","true","",""
"image-keyboard-response","128","181170","0.0-3.0-4.0-1.0-1.38","5b6545f19ed653000189a3a4","6662009ae78f21dd82fcd179","66620d404d066a268d713931","null","","null","","","","","","","","./tasks/HMM-beads/Images/WhiteBeadChoice.png","","","","","","","","","",""
"image-keyboard-response","129","181673","0.0-3.0-4.0-1.0-2.38","5b6545f19ed653000189a3a4","6662009ae78f21dd82fcd179","66620d404d066a268d713931","null","","null","","","","","","","","./tasks/HMM-beads/Images/WhiteBeadChoiceCorrect.png","","","","","","","","","",""
"image-keyboard-response","130","181766","0.0-3.0-4.0-1.0-0.39","5b6545f19ed653000189a3a4","6662009ae78f21dd82fcd179","66620d404d066a268d713931","93","","j","","","","","","","","./tasks/HMM-beads/Images/NewTrialWC.png","practice","0","39","1","1","1","1","true","",""
"image-keyboard-response","131","182066","0.0-3.0-4.0-1.0-1.39","5b6545f19ed653000189a3a4","6662009ae78f21dd82fcd179","66620d404d066a268d713931","null","","null","","","","","","","","./tasks/HMM-beads/Images/WhiteBeadChoice.png","","","","","","","","","",""
"image-keyboard-response","132","182568","0.0-3.0-4.0-1.0-2.39","5b6545f19ed653000189a3a4","6662009ae78f21dd82fcd179","66620d404d066a268d713931","null","","null","","","","","","","","./tasks/HMM-beads/Images/WhiteBeadChoiceCorrect.png","","","","","","","","","",""
"html-keyboard-response","133","184853","0.0-3.0-4.0-2.0","5b6545f19ed653000189a3a4","6662009ae78f21dd82fcd179","66620d404d066a268d713931","2285",""," ","","","","","","","","","","","","","","","","","",""
"instructions","134","193568","0.0-3.0-5.0","5b6545f19ed653000189a3a4","6662009ae78f21dd82fcd179","66620d404d066a268d713931","8715","","","","[{""page_index"":0,""viewing_time"":7035},{""page_index"":1,""viewing_time"":1680}]","","","","","","","","","","","","","","","",""
"html-keyboard-response","135","195285","0.0-3.0-6.0-0.0","5b6545f19ed653000189a3a4","6662009ae78f21dd82fcd179","66620d404d066a268d713931","1717",""," ","","","","","","","","<div align=center>In this block, there will be a <b>1% chance</b> that the jar on the next trial will be different from the jar on the current trial.<br><br></div>","","","","","","","","","",""
"image-keyboard-response","136","196261","0.0-3.0-6.0-1.0-0.0","5b6545f19ed653000189a3a4","6662009ae78f21dd82fcd179","66620d404d066a268d713931","975","","f","","","","","","","","./tasks/HMM-beads/Images/NoChoice.png","lowH","1","0","1","0","9","0","true","",""
"image-keyboard-response","137","196562","0.0-3.0-6.0-1.0-1.0","5b6545f19ed653000189a3a4","6662009ae78f21dd82fcd179","66620d404d066a268d713931","null","","null","","","","","","","","./tasks/HMM-beads/Images/BlackBeadChoice.png","","","","","","","","","",""
"image-keyboard-response","138","197063","0.0-3.0-6.0-1.0-2.0","5b6545f19ed653000189a3a4","6662009ae78f21dd82fcd179","66620d404d066a268d713931","null","","null","","","","","","","","./tasks/HMM-beads/Images/BlackBeadChoiceCorrect.png","","","","","","","","","",""
"image-keyboard-response","139","197485","0.0-3.0-6.0-1.0-0.1","5b6545f19ed653000189a3a4","6662009ae78f21dd82fcd179","66620d404d066a268d713931","422","","f","","","","","","","","./tasks/HMM-beads/Images/NewTrialBC.png","lowH","1","1","1","1","0","0","false","",""
"image-keyboard-response","140","197786","0.0-3.0-6.0-1.0-1.1","5b6545f19ed653000189a3a4","6662009ae78f21dd82fcd179","66620d404d066a268d713931","null","","null","","","","","","","","./tasks/HMM-beads/Images/BlackBeadChoice.png","","","","","","","","","",""
"image-keyboard-response","141","198288","0.0-3.0-6.0-1.0-2.1","5b6545f19ed653000189a3a4","6662009ae78f21dd82fcd179","66620d404d066a268d713931","null","","null","","","","","","","","./tasks/HMM-beads/Images/BlackBeadChoiceWrong.png","","","","","","","","","",""
"image-keyboard-response","142","198637","0.0-3.0-6.0-1.0-0.2","5b6545f19ed653000189a3a4","6662009ae78f21dd82fcd179","66620d404d066a268d713931","348","","f","","","","","","","","./tasks/HMM-beads/Images/NewTrialWC.png","lowH","1","2","1","1","1","0","false","",""
"image-keyboard-response","143","198938","0.0-3.0-6.0-1.0-1.2","5b6545f19ed653000189a3a4","6662009ae78f21dd82fcd179","66620d404d066a268d713931","null","","null","","","","","","","","./tasks/HMM-beads/Images/BlackBeadChoice.png","","","","","","","","","",""
"image-keyboard-response","144","199438","0.0-3.0-6.0-1.0-2.2","5b6545f19ed653000189a3a4","6662009ae78f21dd82fcd179","66620d404d066a268d713931","null","","null","","","","","","","","./tasks/HMM-beads/Images/BlackBeadChoiceWrong.png","","","","","","","","","",""
"image-keyboard-response","145","199693","0.0-3.0-6.0-1.0-0.3","5b6545f19ed653000189a3a4","6662009ae78f21dd82fcd179","66620d404d066a268d713931","254","","j","","","","","","","","./tasks/HMM-beads/Images/NewTrialWC.png","lowH","1","3","1","1","1","1","true","",""
"image-keyboard-response","146","199994","0.0-3.0-6.0-1.0-1.3","5b6545f19ed653000189a3a4","6662009ae78f21dd82fcd179","66620d404d066a268d713931","null","","null","","","","","","","","./tasks/HMM-beads/Images/WhiteBeadChoice.png","","","","","","","","","",""
"image-keyboard-response","147","200496","0.0-3.0-6.0-1.0-2.3","5b6545f19ed653000189a3a4","6662009ae78f21dd82fcd179","66620d404d066a268d713931","null","","null","","","","","","","","./tasks/HMM-beads/Images/WhiteBeadChoiceCorrect.png","","","","","","","","","",""
"image-keyboard-response","148","200837","0.0-3.0-6.0-1.0-0.4","5b6545f19ed653000189a3a4","6662009ae78f21dd82fcd179","66620d404d066a268d713931","341","","j","","","","","","","","./tasks/HMM-beads/Images/NewTrialWC.png","lowH","1","4","1","1","1","1","true","",""
"image-keyboard-response","149","201139","0.0-3.0-6.0-1.0-1.4","5b6545f19ed653000189a3a4","6662009ae78f21dd82fcd179","66620d404d066a268d713931","null","","null","","","","","","","","./tasks/HMM-beads/Images/WhiteBeadChoice.png","","","","","","","","","",""
"image-keyboard-response","150","201640","0.0-3.0-6.0-1.0-2.4","5b6545f19ed653000189a3a4","6662009ae78f21dd82fcd179","66620d404d066a268d713931","null","","null","","","","","","","","./tasks/HMM-beads/Images/WhiteBeadChoiceCorrect.png","","","","","","","","","",""
"image-keyboard-response","151","201853","0.0-3.0-6.0-1.0-0.5","5b6545f19ed653000189a3a4","6662009ae78f21dd82fcd179","66620d404d066a268d713931","212","","j","","","","","","","","./tasks/HMM-beads/Images/NewTrialWC.png","lowH","1","5","1","1","1","1","true","",""
"image-keyboard-response","152","202154","0.0-3.0-6.0-1.0-1.5","5b6545f19ed653000189a3a4","6662009ae78f21dd82fcd179","66620d404d066a268d713931","null","","null","","","","","","","","./tasks/HMM-beads/Images/WhiteBeadChoice.png","","","","","","","","","",""
"image-keyboard-response","153","202655","0.0-3.0-6.0-1.0-2.5","5b6545f19ed653000189a3a4","6662009ae78f21dd82fcd179","66620d404d066a268d713931","null","","null","","","","","","","","./tasks/HMM-beads/Images/WhiteBeadChoiceCorrect.png","","","","","","","","","",""
"image-keyboard-response","154","202869","0.0-3.0-6.0-1.0-0.6","5b6545f19ed653000189a3a4","6662009ae78f21dd82fcd179","66620d404d066a268d713931","213","","j","","","","","","","","./tasks/HMM-beads/Images/NewTrialWC.png","lowH","1","6","1","0","1","1","false","",""
"image-keyboard-response","155","203169","0.0-3.0-6.0-1.0-1.6","5b6545f19ed653000189a3a4","6662009ae78f21dd82fcd179","66620d404d066a268d713931","null","","null","","","","","","","","./tasks/HMM-beads/Images/WhiteBeadChoice.png","","","","","","","","","",""
"image-keyboard-response","156","203670","0.0-3.0-6.0-1.0-2.6","5b6545f19ed653000189a3a4","6662009ae78f21dd82fcd179","66620d404d066a268d713931","null","","null","","","","","","","","./tasks/HMM-beads/Images/WhiteBeadChoiceWrong.png","","","","","","","","","",""
"image-keyboard-response","157","203942","0.0-3.0-6.0-1.0-0.7","5b6545f19ed653000189a3a4","6662009ae78f21dd82fcd179","66620d404d066a268d713931","271","","j","","","","","","","","./tasks/HMM-beads/Images/NewTrialBC.png","lowH","1","7","1","1","0","1","true","",""
"image-keyboard-response","158","204245","0.0-3.0-6.0-1.0-1.7","5b6545f19ed653000189a3a4","6662009ae78f21dd82fcd179","66620d404d066a268d713931","null","","null","","","","","","","","./tasks/HMM-beads/Images/WhiteBeadChoice.png","","","","","","","","","",""
"image-keyboard-response","159","204746","0.0-3.0-6.0-1.0-2.7","5b6545f19ed653000189a3a4","6662009ae78f21dd82fcd179","66620d404d066a268d713931","null","","null","","","","","","","","./tasks/HMM-beads/Images/WhiteBeadChoiceCorrect.png","","","","","","","","","",""
"image-keyboard-response","160","204837","0.0-3.0-6.0-1.0-0.8","5b6545f19ed653000189a3a4","6662009ae78f21dd82fcd179","66620d404d066a268d713931","91","","j","","","","","","","","./tasks/HMM-beads/Images/NewTrialWC.png","lowH","1","8","1","1","1","1","true","",""
"image-keyboard-response","161","205138","0.0-3.0-6.0-1.0-1.8","5b6545f19ed653000189a3a4","6662009ae78f21dd82fcd179","66620d404d066a268d713931","null","","null","","","","","","","","./tasks/HMM-beads/Images/WhiteBeadChoice.png","","","","","","","","","",""
"image-keyboard-response","162","205639","0.0-3.0-6.0-1.0-2.8","5b6545f19ed653000189a3a4","6662009ae78f21dd82fcd179","66620d404d066a268d713931","null","","null","","","","","","","","./tasks/HMM-beads/Images/WhiteBeadChoiceCorrect.png","","","","","","","","","",""
"image-keyboard-response","163","205782","0.0-3.0-6.0-1.0-0.9","5b6545f19ed653000189a3a4","6662009ae78f21dd82fcd179","66620d404d066a268d713931","142","","j","","","","","","","","./tasks/HMM-beads/Images/NewTrialWC.png","lowH","1","9","1","1","1","1","true","",""
"image-keyboard-response","164","206083","0.0-3.0-6.0-1.0-1.9","5b6545f19ed653000189a3a4","6662009ae78f21dd82fcd179","66620d404d066a268d713931","null","","null","","","","","","","","./tasks/HMM-beads/Images/WhiteBeadChoice.png","","","","","","","","","",""
"image-keyboard-response","165","206585","0.0-3.0-6.0-1.0-2.9","5b6545f19ed653000189a3a4","6662009ae78f21dd82fcd179","66620d404d066a268d713931","null","","null","","","","","","","","./tasks/HMM-beads/Images/WhiteBeadChoiceCorrect.png","","","","","","","","","",""
"image-keyboard-response","166","206718","0.0-3.0-6.0-1.0-0.10","5b6545f19ed653000189a3a4","6662009ae78f21dd82fcd179","66620d404d066a268d713931","133","","j","","","","","","","","./tasks/HMM-beads/Images/NewTrialWC.png","lowH","1","10","1","1","1","1","true","",""
"image-keyboard-response","167","207019","0.0-3.0-6.0-1.0-1.10","5b6545f19ed653000189a3a4","6662009ae78f21dd82fcd179","66620d404d066a268d713931","null","","null","","","","","","","","./tasks/HMM-beads/Images/WhiteBeadChoice.png","","","","","","","","","",""
"image-keyboard-response","168","207520","0.0-3.0-6.0-1.0-2.10","5b6545f19ed653000189a3a4","6662009ae78f21dd82fcd179","66620d404d066a268d713931","null","","null","","","","","","","","./tasks/HMM-beads/Images/WhiteBeadChoiceCorrect.png","","","","","","","","","",""
"image-keyboard-response","169","208229","0.0-3.0-6.0-1.0-0.11","5b6545f19ed653000189a3a4","6662009ae78f21dd82fcd179","66620d404d066a268d713931","708","","j","","","","","","","","./tasks/HMM-beads/Images/NewTrialWC.png","lowH","1","11","1","1","1","1","true","",""
"image-keyboard-response","170","208530","0.0-3.0-6.0-1.0-1.11","5b6545f19ed653000189a3a4","6662009ae78f21dd82fcd179","66620d404d066a268d713931","null","","null","","","","","","","","./tasks/HMM-beads/Images/WhiteBeadChoice.png","","","","","","","","","",""
"image-keyboard-response","171","209033","0.0-3.0-6.0-1.0-2.11","5b6545f19ed653000189a3a4","6662009ae78f21dd82fcd179","66620d404d066a268d713931","null","","null","","","","","","","","./tasks/HMM-beads/Images/WhiteBeadChoiceCorrect.png","","","","","","","","","",""
"image-keyboard-response","172","209349","0.0-3.0-6.0-1.0-0.12","5b6545f19ed653000189a3a4","6662009ae78f21dd82fcd179","66620d404d066a268d713931","315","","f","","","","","","","","./tasks/HMM-beads/Images/NewTrialWC.png","lowH","1","12","1","1","1","0","false","",""
"image-keyboard-response","173","209651","0.0-3.0-6.0-1.0-1.12","5b6545f19ed653000189a3a4","6662009ae78f21dd82fcd179","66620d404d066a268d713931","null","","null","","","","","","","","./tasks/HMM-beads/Images/BlackBeadChoice.png","","","","","","","","","",""
"image-keyboard-response","174","210152","0.0-3.0-6.0-1.0-2.12","5b6545f19ed653000189a3a4","6662009ae78f21dd82fcd179","66620d404d066a268d713931","null","","null","","","","","","","","./tasks/HMM-beads/Images/BlackBeadChoiceWrong.png","","","","","","","","","",""
"image-keyboard-response","175","210221","0.0-3.0-6.0-1.0-0.13","5b6545f19ed653000189a3a4","6662009ae78f21dd82fcd179","66620d404d066a268d713931","68","","j","","","","","","","","./tasks/HMM-beads/Images/NewTrialWC.png","lowH","1","13","1","0","1","1","false","",""
"image-keyboard-response","176","210522","0.0-3.0-6.0-1.0-1.13","5b6545f19ed653000189a3a4","6662009ae78f21dd82fcd179","66620d404d066a268d713931","null","","null","","","","","","","","./tasks/HMM-beads/Images/WhiteBeadChoice.png","","","","","","","","","",""
"image-keyboard-response","177","211024","0.0-3.0-6.0-1.0-2.13","5b6545f19ed653000189a3a4","6662009ae78f21dd82fcd179","66620d404d066a268d713931","null","","null","","","","","","","","./tasks/HMM-beads/Images/WhiteBeadChoiceWrong.png","","","","","","","","","",""
"image-keyboard-response","178","211270","0.0-3.0-6.0-1.0-0.14","5b6545f19ed653000189a3a4","6662009ae78f21dd82fcd179","66620d404d066a268d713931","246","","j","","","","","","","","./tasks/HMM-beads/Images/NewTrialBC.png","lowH","1","14","1","0","0","1","false","",""
"image-keyboard-response","179","211571","0.0-3.0-6.0-1.0-1.14","5b6545f19ed653000189a3a4","6662009ae78f21dd82fcd179","66620d404d066a268d713931","null","","null","","","","","","","","./tasks/HMM-beads/Images/WhiteBeadChoice.png","","","","","","","","","",""
"image-keyboard-response","180","212072","0.0-3.0-6.0-1.0-2.14","5b6545f19ed653000189a3a4","6662009ae78f21dd82fcd179","66620d404d066a268d713931","null","","null","","","","","","","","./tasks/HMM-beads/Images/WhiteBeadChoiceWrong.png","","","","","","","","","",""
"image-keyboard-response","181","212245","0.0-3.0-6.0-1.0-0.15","5b6545f19ed653000189a3a4","6662009ae78f21dd82fcd179","66620d404d066a268d713931","172","","f","","","","","","","","./tasks/HMM-beads/Images/NewTrialBC.png","lowH","1","15","1","1","0","0","false","",""
"image-keyboard-response","182","212545","0.0-3.0-6.0-1.0-1.15","5b6545f19ed653000189a3a4","6662009ae78f21dd82fcd179","66620d404d066a268d713931","null","","null","","","","","","","","./tasks/HMM-beads/Images/BlackBeadChoice.png","","","","","","","","","",""
"image-keyboard-response","183","213046","0.0-3.0-6.0-1.0-2.15","5b6545f19ed653000189a3a4","6662009ae78f21dd82fcd179","66620d404d066a268d713931","null","","null","","","","","","","","./tasks/HMM-beads/Images/BlackBeadChoiceWrong.png","","","","","","","","","",""
"image-keyboard-response","184","213077","0.0-3.0-6.0-1.0-0.16","5b6545f19ed653000189a3a4","6662009ae78f21dd82fcd179","66620d404d066a268d713931","30","","j","","","","","","","","./tasks/HMM-beads/Images/NewTrialWC.png","lowH","1","16","1","1","1","1","true","",""
"image-keyboard-response","185","213379","0.0-3.0-6.0-1.0-1.16","5b6545f19ed653000189a3a4","6662009ae78f21dd82fcd179","66620d404d066a268d713931","null","","null","","","","","","","","./tasks/HMM-beads/Images/WhiteBeadChoice.png","","","","","","","","","",""
"image-keyboard-response","186","213880","0.0-3.0-6.0-1.0-2.16","5b6545f19ed653000189a3a4","6662009ae78f21dd82fcd179","66620d404d066a268d713931","null","","null","","","","","","","","./tasks/HMM-beads/Images/WhiteBeadChoiceCorrect.png","","","","","","","","","",""
"image-keyboard-response","187","214117","0.0-3.0-6.0-1.0-0.17","5b6545f19ed653000189a3a4","6662009ae78f21dd82fcd179","66620d404d066a268d713931","237","","j","","","","","","","","./tasks/HMM-beads/Images/NewTrialWC.png","lowH","1","17","1","1","1","1","true","",""
"image-keyboard-response","188","214419","0.0-3.0-6.0-1.0-1.17","5b6545f19ed653000189a3a4","6662009ae78f21dd82fcd179","66620d404d066a268d713931","null","","null","","","","","","","","./tasks/HMM-beads/Images/WhiteBeadChoice.png","","","","","","","","","",""
"image-keyboard-response","189","214920","0.0-3.0-6.0-1.0-2.17","5b6545f19ed653000189a3a4","6662009ae78f21dd82fcd179","66620d404d066a268d713931","null","","null","","","","","","","","./tasks/HMM-beads/Images/WhiteBeadChoiceCorrect.png","","","","","","","","","",""
"image-keyboard-response","190","215413","0.0-3.0-6.0-1.0-0.18","5b6545f19ed653000189a3a4","6662009ae78f21dd82fcd179","66620d404d066a268d713931","492","","j","","","","","","","","./tasks/HMM-beads/Images/NewTrialWC.png","lowH","1","18","1","1","1","1","true","",""
"image-keyboard-response","191","215715","0.0-3.0-6.0-1.0-1.18","5b6545f19ed653000189a3a4","6662009ae78f21dd82fcd179","66620d404d066a268d713931","null","","null","","","","","","","","./tasks/HMM-beads/Images/WhiteBeadChoice.png","","","","","","","","","",""
"image-keyboard-response","192","216215","0.0-3.0-6.0-1.0-2.18","5b6545f19ed653000189a3a4","6662009ae78f21dd82fcd179","66620d404d066a268d713931","null","","null","","","","","","","","./tasks/HMM-beads/Images/WhiteBeadChoiceCorrect.png","","","","","","","","","",""
"image-keyboard-response","193","216982","0.0-3.0-6.0-1.0-0.19","5b6545f19ed653000189a3a4","6662009ae78f21dd82fcd179","66620d404d066a268d713931","766","","j","","","","","","","","./tasks/HMM-beads/Images/NewTrialWC.png","lowH","1","19","1","1","1","1","true","",""
"image-keyboard-response","194","217283","0.0-3.0-6.0-1.0-1.19","5b6545f19ed653000189a3a4","6662009ae78f21dd82fcd179","66620d404d066a268d713931","null","","null","","","","","","","","./tasks/HMM-beads/Images/WhiteBeadChoice.png","","","","","","","","","",""
"image-keyboard-response","195","217784","0.0-3.0-6.0-1.0-2.19","5b6545f19ed653000189a3a4","6662009ae78f21dd82fcd179","66620d404d066a268d713931","null","","null","","","","","","","","./tasks/HMM-beads/Images/WhiteBeadChoiceCorrect.png","","","","","","","","","",""
"image-keyboard-response","196","217949","0.0-3.0-6.0-1.0-0.20","5b6545f19ed653000189a3a4","6662009ae78f21dd82fcd179","66620d404d066a268d713931","165","","j","","","","","","","","./tasks/HMM-beads/Images/NewTrialWC.png","lowH","1","20","1","1","1","1","true","",""
"image-keyboard-response","197","218251","0.0-3.0-6.0-1.0-1.20","5b6545f19ed653000189a3a4","6662009ae78f21dd82fcd179","66620d404d066a268d713931","null","","null","","","","","","","","./tasks/HMM-beads/Images/WhiteBeadChoice.png","","","","","","","","","",""
"image-keyboard-response","198","218752","0.0-3.0-6.0-1.0-2.20","5b6545f19ed653000189a3a4","6662009ae78f21dd82fcd179","66620d404d066a268d713931","null","","null","","","","","","","","./tasks/HMM-beads/Images/WhiteBeadChoiceCorrect.png","","","","","","","","","",""
"image-keyboard-response","199","219005","0.0-3.0-6.0-1.0-0.21","5b6545f19ed653000189a3a4","6662009ae78f21dd82fcd179","66620d404d066a268d713931","253","","j","","","","","","","","./tasks/HMM-beads/Images/NewTrialWC.png","lowH","1","21","1","1","1","1","true","",""
"image-keyboard-response","200","219306","0.0-3.0-6.0-1.0-1.21","5b6545f19ed653000189a3a4","6662009ae78f21dd82fcd179","66620d404d066a268d713931","null","","null","","","","","","","","./tasks/HMM-beads/Images/WhiteBeadChoice.png","","","","","","","","","",""
"image-keyboard-response","201","219807","0.0-3.0-6.0-1.0-2.21","5b6545f19ed653000189a3a4","6662009ae78f21dd82fcd179","66620d404d066a268d713931","null","","null","","","","","","","","./tasks/HMM-beads/Images/WhiteBeadChoiceCorrect.png","","","","","","","","","",""
"image-keyboard-response","202","219885","0.0-3.0-6.0-1.0-0.22","5b6545f19ed653000189a3a4","6662009ae78f21dd82fcd179","66620d404d066a268d713931","78","","j","","","","","","","","./tasks/HMM-beads/Images/NewTrialWC.png","lowH","1","22","1","1","1","1","true","",""
"image-keyboard-response","203","220186","0.0-3.0-6.0-1.0-1.22","5b6545f19ed653000189a3a4","6662009ae78f21dd82fcd179","66620d404d066a268d713931","null","","null","","","","","","","","./tasks/HMM-beads/Images/WhiteBeadChoice.png","","","","","","","","","",""
"image-keyboard-response","204","220688","0.0-3.0-6.0-1.0-2.22","5b6545f19ed653000189a3a4","6662009ae78f21dd82fcd179","66620d404d066a268d713931","null","","null","","","","","","","","./tasks/HMM-beads/Images/WhiteBeadChoiceCorrect.png","","","","","","","","","",""
"image-keyboard-response","205","220942","0.0-3.0-6.0-1.0-0.23","5b6545f19ed653000189a3a4","6662009ae78f21dd82fcd179","66620d404d066a268d713931","254","","j","","","","","","","","./tasks/HMM-beads/Images/NewTrialWC.png","lowH","1","23","1","1","1","1","true","",""
"image-keyboard-response","206","221244","0.0-3.0-6.0-1.0-1.23","5b6545f19ed653000189a3a4","6662009ae78f21dd82fcd179","66620d404d066a268d713931","null","","null","","","","","","","","./tasks/HMM-beads/Images/WhiteBeadChoice.png","","","","","","","","","",""
"image-keyboard-response","207","221745","0.0-3.0-6.0-1.0-2.23","5b6545f19ed653000189a3a4","6662009ae78f21dd82fcd179","66620d404d066a268d713931","null","","null","","","","","","","","./tasks/HMM-beads/Images/WhiteBeadChoiceCorrect.png","","","","","","","","","",""
"image-keyboard-response","208","222005","0.0-3.0-6.0-1.0-0.24","5b6545f19ed653000189a3a4","6662009ae78f21dd82fcd179","66620d404d066a268d713931","259","","j","","","","","","","","./tasks/HMM-beads/Images/NewTrialWC.png","lowH","1","24","1","0","1","1","false","",""
"image-keyboard-response","209","222306","0.0-3.0-6.0-1.0-1.24","5b6545f19ed653000189a3a4","6662009ae78f21dd82fcd179","66620d404d066a268d713931","null","","null","","","","","","","","./tasks/HMM-beads/Images/WhiteBeadChoice.png","","","","","","","","","",""
"image-keyboard-response","210","222809","0.0-3.0-6.0-1.0-2.24","5b6545f19ed653000189a3a4","6662009ae78f21dd82fcd179","66620d404d066a268d713931","null","","null","","","","","","","","./tasks/HMM-beads/Images/WhiteBeadChoiceWrong.png","","","","","","","","","",""
"image-keyboard-response","211","223141","0.0-3.0-6.0-1.0-0.25","5b6545f19ed653000189a3a4","6662009ae78f21dd82fcd179","66620d404d066a268d713931","332","","j","","","","","","","","./tasks/HMM-beads/Images/NewTrialBC.png","lowH","1","25","1","1","0","1","true","",""
"image-keyboard-response","212","223443","0.0-3.0-6.0-1.0-1.25","5b6545f19ed653000189a3a4","6662009ae78f21dd82fcd179","66620d404d066a268d713931","null","","null","","","","","","","","./tasks/HMM-beads/Images/WhiteBeadChoice.png","","","","","","","","","",""
"image-keyboard-response","213","223944","0.0-3.0-6.0-1.0-2.25","5b6545f19ed653000189a3a4","6662009ae78f21dd82fcd179","66620d404d066a268d713931","null","","null","","","","","","","","./tasks/HMM-beads/Images/WhiteBeadChoiceCorrect.png","","","","","","","","","",""
"image-keyboard-response","214","224213","0.0-3.0-6.0-1.0-0.26","5b6545f19ed653000189a3a4","6662009ae78f21dd82fcd179","66620d404d066a268d713931","268","","j","","","","","","","","./tasks/HMM-beads/Images/NewTrialWC.png","lowH","1","26","1","0","1","1","false","",""
"image-keyboard-response","215","224514","0.0-3.0-6.0-1.0-1.26","5b6545f19ed653000189a3a4","6662009ae78f21dd82fcd179","66620d404d066a268d713931","null","","null","","","","","","","","./tasks/HMM-beads/Images/WhiteBeadChoice.png","","","","","","","","","",""
"image-keyboard-response","216","225015","0.0-3.0-6.0-1.0-2.26","5b6545f19ed653000189a3a4","6662009ae78f21dd82fcd179","66620d404d066a268d713931","null","","null","","","","","","","","./tasks/HMM-beads/Images/WhiteBeadChoiceWrong.png","","","","","","","","","",""
"image-keyboard-response","217","225341","0.0-3.0-6.0-1.0-0.27","5b6545f19ed653000189a3a4","6662009ae78f21dd82fcd179","66620d404d066a268d713931","326","","j","","","","","","","","./tasks/HMM-beads/Images/NewTrialBC.png","lowH","1","27","1","1","0","1","true","",""
"image-keyboard-response","218","225643","0.0-3.0-6.0-1.0-1.27","5b6545f19ed653000189a3a4","6662009ae78f21dd82fcd179","66620d404d066a268d713931","null","","null","","","","","","","","./tasks/HMM-beads/Images/WhiteBeadChoice.png","","","","","","","","","",""
"image-keyboard-response","219","226144","0.0-3.0-6.0-1.0-2.27","5b6545f19ed653000189a3a4","6662009ae78f21dd82fcd179","66620d404d066a268d713931","null","","null","","","","","","","","./tasks/HMM-beads/Images/WhiteBeadChoiceCorrect.png","","","","","","","","","",""
"image-keyboard-response","220","226359","0.0-3.0-6.0-1.0-0.28","5b6545f19ed653000189a3a4","6662009ae78f21dd82fcd179","66620d404d066a268d713931","214","","j","","","","","","","","./tasks/HMM-beads/Images/NewTrialWC.png","lowH","1","28","1","1","1","1","true","",""
"image-keyboard-response","221","226660","0.0-3.0-6.0-1.0-1.28","5b6545f19ed653000189a3a4","6662009ae78f21dd82fcd179","66620d404d066a268d713931","null","","null","","","","","","","","./tasks/HMM-beads/Images/WhiteBeadChoice.png","","","","","","","","","",""
"image-keyboard-response","222","227161","0.0-3.0-6.0-1.0-2.28","5b6545f19ed653000189a3a4","6662009ae78f21dd82fcd179","66620d404d066a268d713931","null","","null","","","","","","","","./tasks/HMM-beads/Images/WhiteBeadChoiceCorrect.png","","","","","","","","","",""
"image-keyboard-response","223","227237","0.0-3.0-6.0-1.0-0.29","5b6545f19ed653000189a3a4","6662009ae78f21dd82fcd179","66620d404d066a268d713931","76","","j","","","","","","","","./tasks/HMM-beads/Images/NewTrialWC.png","lowH","1","29","1","1","1","1","true","",""
"image-keyboard-response","224","227538","0.0-3.0-6.0-1.0-1.29","5b6545f19ed653000189a3a4","6662009ae78f21dd82fcd179","66620d404d066a268d713931","null","","null","","","","","","","","./tasks/HMM-beads/Images/WhiteBeadChoice.png","","","","","","","","","",""
"image-keyboard-response","225","228039","0.0-3.0-6.0-1.0-2.29","5b6545f19ed653000189a3a4","6662009ae78f21dd82fcd179","66620d404d066a268d713931","null","","null","","","","","","","","./tasks/HMM-beads/Images/WhiteBeadChoiceCorrect.png","","","","","","","","","",""
"image-keyboard-response","226","228117","0.0-3.0-6.0-1.0-0.30","5b6545f19ed653000189a3a4","6662009ae78f21dd82fcd179","66620d404d066a268d713931","77","","j","","","","","","","","./tasks/HMM-beads/Images/NewTrialWC.png","lowH","1","30","1","1","1","1","true","",""
"image-keyboard-response","227","228418","0.0-3.0-6.0-1.0-1.30","5b6545f19ed653000189a3a4","6662009ae78f21dd82fcd179","66620d404d066a268d713931","null","","null","","","","","","","","./tasks/HMM-beads/Images/WhiteBeadChoice.png","","","","","","","","","",""
"image-keyboard-response","228","228920","0.0-3.0-6.0-1.0-2.30","5b6545f19ed653000189a3a4","6662009ae78f21dd82fcd179","66620d404d066a268d713931","null","","null","","","","","","","","./tasks/HMM-beads/Images/WhiteBeadChoiceCorrect.png","","","","","","","","","",""
"image-keyboard-response","229","229317","0.0-3.0-6.0-1.0-0.31","5b6545f19ed653000189a3a4","6662009ae78f21dd82fcd179","66620d404d066a268d713931","397","","j","","","","","","","","./tasks/HMM-beads/Images/NewTrialWC.png","lowH","1","31","1","1","1","1","true","",""
"image-keyboard-response","230","229619","0.0-3.0-6.0-1.0-1.31","5b6545f19ed653000189a3a4","6662009ae78f21dd82fcd179","66620d404d066a268d713931","null","","null","","","","","","","","./tasks/HMM-beads/Images/WhiteBeadChoice.png","","","","","","","","","",""
"image-keyboard-response","231","230120","0.0-3.0-6.0-1.0-2.31","5b6545f19ed653000189a3a4","6662009ae78f21dd82fcd179","66620d404d066a268d713931","null","","null","","","","","","","","./tasks/HMM-beads/Images/WhiteBeadChoiceCorrect.png","","","","","","","","","",""
"image-keyboard-response","232","230309","0.0-3.0-6.0-1.0-0.32","5b6545f19ed653000189a3a4","6662009ae78f21dd82fcd179","66620d404d066a268d713931","188","","j","","","","","","","","./tasks/HMM-beads/Images/NewTrialWC.png","lowH","1","32","1","1","1","1","true","",""
"image-keyboard-response","233","230610","0.0-3.0-6.0-1.0-1.32","5b6545f19ed653000189a3a4","6662009ae78f21dd82fcd179","66620d404d066a268d713931","null","","null","","","","","","","","./tasks/HMM-beads/Images/WhiteBeadChoice.png","","","","","","","","","",""
"image-keyboard-response","234","231111","0.0-3.0-6.0-1.0-2.32","5b6545f19ed653000189a3a4","6662009ae78f21dd82fcd179","66620d404d066a268d713931","null","","null","","","","","","","","./tasks/HMM-beads/Images/WhiteBeadChoiceCorrect.png","","","","","","","","","",""
"image-keyboard-response","235","231901","0.0-3.0-6.0-1.0-0.33","5b6545f19ed653000189a3a4","6662009ae78f21dd82fcd179","66620d404d066a268d713931","789","","j","","","","","","","","./tasks/HMM-beads/Images/NewTrialWC.png","lowH","1","33","1","1","1","1","true","",""
"image-keyboard-response","236","232203","0.0-3.0-6.0-1.0-1.33","5b6545f19ed653000189a3a4","6662009ae78f21dd82fcd179","66620d404d066a268d713931","null","","null","","","","","","","","./tasks/HMM-beads/Images/WhiteBeadChoice.png","","","","","","","","","",""
"image-keyboard-response","237","232705","0.0-3.0-6.0-1.0-2.33","5b6545f19ed653000189a3a4","6662009ae78f21dd82fcd179","66620d404d066a268d713931","null","","null","","","","","","","","./tasks/HMM-beads/Images/WhiteBeadChoiceCorrect.png","","","","","","","","","",""
"image-keyboard-response","238","233973","0.0-3.0-6.0-1.0-0.34","5b6545f19ed653000189a3a4","6662009ae78f21dd82fcd179","66620d404d066a268d713931","1268","","j","","","","","","","","./tasks/HMM-beads/Images/NewTrialWC.png","lowH","1","34","1","1","1","1","true","",""
"image-keyboard-response","239","234273","0.0-3.0-6.0-1.0-1.34","5b6545f19ed653000189a3a4","6662009ae78f21dd82fcd179","66620d404d066a268d713931","null","","null","","","","","","","","./tasks/HMM-beads/Images/WhiteBeadChoice.png","","","","","","","","","",""
"image-keyboard-response","240","234774","0.0-3.0-6.0-1.0-2.34","5b6545f19ed653000189a3a4","6662009ae78f21dd82fcd179","66620d404d066a268d713931","null","","null","","","","","","","","./tasks/HMM-beads/Images/WhiteBeadChoiceCorrect.png","","","","","","","","","",""
"image-keyboard-response","241","234965","0.0-3.0-6.0-1.0-0.35","5b6545f19ed653000189a3a4","6662009ae78f21dd82fcd179","66620d404d066a268d713931","190","","j","","","","","","","","./tasks/HMM-beads/Images/NewTrialWC.png","lowH","1","35","1","1","1","1","true","",""
"image-keyboard-response","242","235265","0.0-3.0-6.0-1.0-1.35","5b6545f19ed653000189a3a4","6662009ae78f21dd82fcd179","66620d404d066a268d713931","null","","null","","","","","","","","./tasks/HMM-beads/Images/WhiteBeadChoice.png","","","","","","","","","",""
"image-keyboard-response","243","235766","0.0-3.0-6.0-1.0-2.35","5b6545f19ed653000189a3a4","6662009ae78f21dd82fcd179","66620d404d066a268d713931","null","","null","","","","","","","","./tasks/HMM-beads/Images/WhiteBeadChoiceCorrect.png","","","","","","","","","",""
"image-keyboard-response","244","236253","0.0-3.0-6.0-1.0-0.36","5b6545f19ed653000189a3a4","6662009ae78f21dd82fcd179","66620d404d066a268d713931","486","","j","","","","","","","","./tasks/HMM-beads/Images/NewTrialWC.png","lowH","1","36","1","1","1","1","true","",""
"image-keyboard-response","245","236554","0.0-3.0-6.0-1.0-1.36","5b6545f19ed653000189a3a4","6662009ae78f21dd82fcd179","66620d404d066a268d713931","null","","null","","","","","","","","./tasks/HMM-beads/Images/WhiteBeadChoice.png","","","","","","","","","",""
"image-keyboard-response","246","237055","0.0-3.0-6.0-1.0-2.36","5b6545f19ed653000189a3a4","6662009ae78f21dd82fcd179","66620d404d066a268d713931","null","","null","","","","","","","","./tasks/HMM-beads/Images/WhiteBeadChoiceCorrect.png","","","","","","","","","",""
"image-keyboard-response","247","237229","0.0-3.0-6.0-1.0-0.37","5b6545f19ed653000189a3a4","6662009ae78f21dd82fcd179","66620d404d066a268d713931","173","","j","","","","","","","","./tasks/HMM-beads/Images/NewTrialWC.png","lowH","1","37","1","1","1","1","true","",""
"image-keyboard-response","248","237530","0.0-3.0-6.0-1.0-1.37","5b6545f19ed653000189a3a4","6662009ae78f21dd82fcd179","66620d404d066a268d713931","null","","null","","","","","","","","./tasks/HMM-beads/Images/WhiteBeadChoice.png","","","","","","","","","",""
"image-keyboard-response","249","238032","0.0-3.0-6.0-1.0-2.37","5b6545f19ed653000189a3a4","6662009ae78f21dd82fcd179","66620d404d066a268d713931","null","","null","","","","","","","","./tasks/HMM-beads/Images/WhiteBeadChoiceCorrect.png","","","","","","","","","",""
"image-keyboard-response","250","238238","0.0-3.0-6.0-1.0-0.38","5b6545f19ed653000189a3a4","6662009ae78f21dd82fcd179","66620d404d066a268d713931","205","","j","","","","","","","","./tasks/HMM-beads/Images/NewTrialWC.png","lowH","1","38","1","1","1","1","true","",""
"image-keyboard-response","251","238539","0.0-3.0-6.0-1.0-1.38","5b6545f19ed653000189a3a4","6662009ae78f21dd82fcd179","66620d404d066a268d713931","null","","null","","","","","","","","./tasks/HMM-beads/Images/WhiteBeadChoice.png","","","","","","","","","",""
"image-keyboard-response","252","239040","0.0-3.0-6.0-1.0-2.38","5b6545f19ed653000189a3a4","6662009ae78f21dd82fcd179","66620d404d066a268d713931","null","","null","","","","","","","","./tasks/HMM-beads/Images/WhiteBeadChoiceCorrect.png","","","","","","","","","",""
"image-keyboard-response","253","239309","0.0-3.0-6.0-1.0-0.39","5b6545f19ed653000189a3a4","6662009ae78f21dd82fcd179","66620d404d066a268d713931","268","","j","","","","","","","","./tasks/HMM-beads/Images/NewTrialWC.png","lowH","1","39","1","1","1","1","true","",""
"image-keyboard-response","254","239610","0.0-3.0-6.0-1.0-1.39","5b6545f19ed653000189a3a4","6662009ae78f21dd82fcd179","66620d404d066a268d713931","null","","null","","","","","","","","./tasks/HMM-beads/Images/WhiteBeadChoice.png","","","","","","","","","",""
"image-keyboard-response","255","240112","0.0-3.0-6.0-1.0-2.39","5b6545f19ed653000189a3a4","6662009ae78f21dd82fcd179","66620d404d066a268d713931","null","","null","","","","","","","","./tasks/HMM-beads/Images/WhiteBeadChoiceCorrect.png","","","","","","","","","",""
"image-keyboard-response","256","240501","0.0-3.0-6.0-1.0-0.40","5b6545f19ed653000189a3a4","6662009ae78f21dd82fcd179","66620d404d066a268d713931","389","","j","","","","","","","","./tasks/HMM-beads/Images/NewTrialWC.png","lowH","1","40","1","1","1","1","true","",""
"image-keyboard-response","257","240802","0.0-3.0-6.0-1.0-1.40","5b6545f19ed653000189a3a4","6662009ae78f21dd82fcd179","66620d404d066a268d713931","null","","null","","","","","","","","./tasks/HMM-beads/Images/WhiteBeadChoice.png","","","","","","","","","",""
"image-keyboard-response","258","241304","0.0-3.0-6.0-1.0-2.40","5b6545f19ed653000189a3a4","6662009ae78f21dd82fcd179","66620d404d066a268d713931","null","","null","","","","","","","","./tasks/HMM-beads/Images/WhiteBeadChoiceCorrect.png","","","","","","","","","",""
"image-keyboard-response","259","241470","0.0-3.0-6.0-1.0-0.41","5b6545f19ed653000189a3a4","6662009ae78f21dd82fcd179","66620d404d066a268d713931","165","","j","","","","","","","","./tasks/HMM-beads/Images/NewTrialWC.png","lowH","1","41","1","1","1","1","true","",""
"image-keyboard-response","260","241770","0.0-3.0-6.0-1.0-1.41","5b6545f19ed653000189a3a4","6662009ae78f21dd82fcd179","66620d404d066a268d713931","null","","null","","","","","","","","./tasks/HMM-beads/Images/WhiteBeadChoice.png","","","","","","","","","",""
"image-keyboard-response","261","242271","0.0-3.0-6.0-1.0-2.41","5b6545f19ed653000189a3a4","6662009ae78f21dd82fcd179","66620d404d066a268d713931","null","","null","","","","","","","","./tasks/HMM-beads/Images/WhiteBeadChoiceCorrect.png","","","","","","","","","",""
"image-keyboard-response","262","242293","0.0-3.0-6.0-1.0-0.42","5b6545f19ed653000189a3a4","6662009ae78f21dd82fcd179","66620d404d066a268d713931","21","","j","","","","","","","","./tasks/HMM-beads/Images/NewTrialWC.png","lowH","1","42","1","1","1","1","true","",""
"image-keyboard-response","263","242594","0.0-3.0-6.0-1.0-1.42","5b6545f19ed653000189a3a4","6662009ae78f21dd82fcd179","66620d404d066a268d713931","null","","null","","","","","","","","./tasks/HMM-beads/Images/WhiteBeadChoice.png","","","","","","","","","",""
"image-keyboard-response","264","243095","0.0-3.0-6.0-1.0-2.42","5b6545f19ed653000189a3a4","6662009ae78f21dd82fcd179","66620d404d066a268d713931","null","","null","","","","","","","","./tasks/HMM-beads/Images/WhiteBeadChoiceCorrect.png","","","","","","","","","",""
"image-keyboard-response","265","243190","0.0-3.0-6.0-1.0-0.43","5b6545f19ed653000189a3a4","6662009ae78f21dd82fcd179","66620d404d066a268d713931","94","","j","","","","","","","","./tasks/HMM-beads/Images/NewTrialWC.png","lowH","1","43","1","1","1","1","true","",""
"image-keyboard-response","266","243491","0.0-3.0-6.0-1.0-1.43","5b6545f19ed653000189a3a4","6662009ae78f21dd82fcd179","66620d404d066a268d713931","null","","null","","","","","","","","./tasks/HMM-beads/Images/WhiteBeadChoice.png","","","","","","","","","",""
"image-keyboard-response","267","243992","0.0-3.0-6.0-1.0-2.43","5b6545f19ed653000189a3a4","6662009ae78f21dd82fcd179","66620d404d066a268d713931","null","","null","","","","","","","","./tasks/HMM-beads/Images/WhiteBeadChoiceCorrect.png","","","","","","","","","",""
"image-keyboard-response","268","244197","0.0-3.0-6.0-1.0-0.44","5b6545f19ed653000189a3a4","6662009ae78f21dd82fcd179","66620d404d066a268d713931","204","","j","","","","","","","","./tasks/HMM-beads/Images/NewTrialWC.png","lowH","1","44","1","1","1","1","true","",""
"image-keyboard-response","269","244498","0.0-3.0-6.0-1.0-1.44","5b6545f19ed653000189a3a4","6662009ae78f21dd82fcd179","66620d404d066a268d713931","null","","null","","","","","","","","./tasks/HMM-beads/Images/WhiteBeadChoice.png","","","","","","","","","",""
"image-keyboard-response","270","245000","0.0-3.0-6.0-1.0-2.44","5b6545f19ed653000189a3a4","6662009ae78f21dd82fcd179","66620d404d066a268d713931","null","","null","","","","","","","","./tasks/HMM-beads/Images/WhiteBeadChoiceCorrect.png","","","","","","","","","",""
"image-keyboard-response","271","245118","0.0-3.0-6.0-1.0-0.45","5b6545f19ed653000189a3a4","6662009ae78f21dd82fcd179","66620d404d066a268d713931","118","","j","","","","","","","","./tasks/HMM-beads/Images/NewTrialWC.png","lowH","1","45","1","1","1","1","true","",""
"image-keyboard-response","272","245419","0.0-3.0-6.0-1.0-1.45","5b6545f19ed653000189a3a4","6662009ae78f21dd82fcd179","66620d404d066a268d713931","null","","null","","","","","","","","./tasks/HMM-beads/Images/WhiteBeadChoice.png","","","","","","","","","",""
"image-keyboard-response","273","245920","0.0-3.0-6.0-1.0-2.45","5b6545f19ed653000189a3a4","6662009ae78f21dd82fcd179","66620d404d066a268d713931","null","","null","","","","","","","","./tasks/HMM-beads/Images/WhiteBeadChoiceCorrect.png","","","","","","","","","",""
"image-keyboard-response","274","246046","0.0-3.0-6.0-1.0-0.46","5b6545f19ed653000189a3a4","6662009ae78f21dd82fcd179","66620d404d066a268d713931","125","","j","","","","","","","","./tasks/HMM-beads/Images/NewTrialWC.png","lowH","1","46","1","1","1","1","true","",""
"image-keyboard-response","275","246348","0.0-3.0-6.0-1.0-1.46","5b6545f19ed653000189a3a4","6662009ae78f21dd82fcd179","66620d404d066a268d713931","null","","null","","","","","","","","./tasks/HMM-beads/Images/WhiteBeadChoice.png","","","","","","","","","",""
"image-keyboard-response","276","246849","0.0-3.0-6.0-1.0-2.46","5b6545f19ed653000189a3a4","6662009ae78f21dd82fcd179","66620d404d066a268d713931","null","","null","","","","","","","","./tasks/HMM-beads/Images/WhiteBeadChoiceCorrect.png","","","","","","","","","",""
"image-keyboard-response","277","246917","0.0-3.0-6.0-1.0-0.47","5b6545f19ed653000189a3a4","6662009ae78f21dd82fcd179","66620d404d066a268d713931","68","","j","","","","","","","","./tasks/HMM-beads/Images/NewTrialWC.png","lowH","1","47","1","0","1","1","false","",""
"image-keyboard-response","278","247217","0.0-3.0-6.0-1.0-1.47","5b6545f19ed653000189a3a4","6662009ae78f21dd82fcd179","66620d404d066a268d713931","null","","null","","","","","","","","./tasks/HMM-beads/Images/WhiteBeadChoice.png","","","","","","","","","",""
"image-keyboard-response","279","247719","0.0-3.0-6.0-1.0-2.47","5b6545f19ed653000189a3a4","6662009ae78f21dd82fcd179","66620d404d066a268d713931","null","","null","","","","","","","","./tasks/HMM-beads/Images/WhiteBeadChoiceWrong.png","","","","","","","","","",""
"image-keyboard-response","280","247933","0.0-3.0-6.0-1.0-0.48","5b6545f19ed653000189a3a4","6662009ae78f21dd82fcd179","66620d404d066a268d713931","214","","j","","","","","","","","./tasks/HMM-beads/Images/NewTrialBC.png","lowH","1","48","1","0","0","1","false","",""
"image-keyboard-response","281","248234","0.0-3.0-6.0-1.0-1.48","5b6545f19ed653000189a3a4","6662009ae78f21dd82fcd179","66620d404d066a268d713931","null","","null","","","","","","","","./tasks/HMM-beads/Images/WhiteBeadChoice.png","","","","","","","","","",""
"image-keyboard-response","282","248736","0.0-3.0-6.0-1.0-2.48","5b6545f19ed653000189a3a4","6662009ae78f21dd82fcd179","66620d404d066a268d713931","null","","null","","","","","","","","./tasks/HMM-beads/Images/WhiteBeadChoiceWrong.png","","","","","","","","","",""
"image-keyboard-response","283","248917","0.0-3.0-6.0-1.0-0.49","5b6545f19ed653000189a3a4","6662009ae78f21dd82fcd179","66620d404d066a268d713931","181","","f","","","","","","","","./tasks/HMM-beads/Images/NewTrialBC.png","lowH","1","49","1","0","0","0","true","",""
"image-keyboard-response","284","249219","0.0-3.0-6.0-1.0-1.49","5b6545f19ed653000189a3a4","6662009ae78f21dd82fcd179","66620d404d066a268d713931","null","","null","","","","","","","","./tasks/HMM-beads/Images/BlackBeadChoice.png","","","","","","","","","",""
"image-keyboard-response","285","249720","0.0-3.0-6.0-1.0-2.49","5b6545f19ed653000189a3a4","6662009ae78f21dd82fcd179","66620d404d066a268d713931","null","","null","","","","","","","","./tasks/HMM-beads/Images/BlackBeadChoiceCorrect.png","","","","","","","","","",""
"image-keyboard-response","286","249958","0.0-3.0-6.0-1.0-0.50","5b6545f19ed653000189a3a4","6662009ae78f21dd82fcd179","66620d404d066a268d713931","237","","f","","","","","","","","./tasks/HMM-beads/Images/NewTrialBC.png","lowH","1","50","1","1","0","0","false","",""
"image-keyboard-response","287","250259","0.0-3.0-6.0-1.0-1.50","5b6545f19ed653000189a3a4","6662009ae78f21dd82fcd179","66620d404d066a268d713931","null","","null","","","","","","","","./tasks/HMM-beads/Images/BlackBeadChoice.png","","","","","","","","","",""
"image-keyboard-response","288","250762","0.0-3.0-6.0-1.0-2.50","5b6545f19ed653000189a3a4","6662009ae78f21dd82fcd179","66620d404d066a268d713931","null","","null","","","","","","","","./tasks/HMM-beads/Images/BlackBeadChoiceWrong.png","","","","","","","","","",""
"image-keyboard-response","289","250982","0.0-3.0-6.0-1.0-0.51","5b6545f19ed653000189a3a4","6662009ae78f21dd82fcd179","66620d404d066a268d713931","220","","j","","","","","","","","./tasks/HMM-beads/Images/NewTrialWC.png","lowH","1","51","1","1","1","1","true","",""
"image-keyboard-response","290","251284","0.0-3.0-6.0-1.0-1.51","5b6545f19ed653000189a3a4","6662009ae78f21dd82fcd179","66620d404d066a268d713931","null","","null","","","","","","","","./tasks/HMM-beads/Images/WhiteBeadChoice.png","","","","","","","","","",""
"image-keyboard-response","291","251785","0.0-3.0-6.0-1.0-2.51","5b6545f19ed653000189a3a4","6662009ae78f21dd82fcd179","66620d404d066a268d713931","null","","null","","","","","","","","./tasks/HMM-beads/Images/WhiteBeadChoiceCorrect.png","","","","","","","","","",""
"image-keyboard-response","292","252030","0.0-3.0-6.0-1.0-0.52","5b6545f19ed653000189a3a4","6662009ae78f21dd82fcd179","66620d404d066a268d713931","244","","j","","","","","","","","./tasks/HMM-beads/Images/NewTrialWC.png","lowH","1","52","1","1","1","1","true","",""
"image-keyboard-response","293","252331","0.0-3.0-6.0-1.0-1.52","5b6545f19ed653000189a3a4","6662009ae78f21dd82fcd179","66620d404d066a268d713931","null","","null","","","","","","","","./tasks/HMM-beads/Images/WhiteBeadChoice.png","","","","","","","","","",""
"image-keyboard-response","294","252832","0.0-3.0-6.0-1.0-2.52","5b6545f19ed653000189a3a4","6662009ae78f21dd82fcd179","66620d404d066a268d713931","null","","null","","","","","","","","./tasks/HMM-beads/Images/WhiteBeadChoiceCorrect.png","","","","","","","","","",""
"image-keyboard-response","295","253085","0.0-3.0-6.0-1.0-0.53","5b6545f19ed653000189a3a4","6662009ae78f21dd82fcd179","66620d404d066a268d713931","253","","j","","","","","","","","./tasks/HMM-beads/Images/NewTrialWC.png","lowH","1","53","1","1","1","1","true","",""
"image-keyboard-response","296","253386","0.0-3.0-6.0-1.0-1.53","5b6545f19ed653000189a3a4","6662009ae78f21dd82fcd179","66620d404d066a268d713931","null","","null","","","","","","","","./tasks/HMM-beads/Images/WhiteBeadChoice.png","","","","","","","","","",""
"image-keyboard-response","297","253888","0.0-3.0-6.0-1.0-2.53","5b6545f19ed653000189a3a4","6662009ae78f21dd82fcd179","66620d404d066a268d713931","null","","null","","","","","","","","./tasks/HMM-beads/Images/WhiteBeadChoiceCorrect.png","","","","","","","","","",""
"image-keyboard-response","298","254077","0.0-3.0-6.0-1.0-0.54","5b6545f19ed653000189a3a4","6662009ae78f21dd82fcd179","66620d404d066a268d713931","189","","j","","","","","","","","./tasks/HMM-beads/Images/NewTrialWC.png","lowH","1","54","1","1","1","1","true","",""
"image-keyboard-response","299","254378","0.0-3.0-6.0-1.0-1.54","5b6545f19ed653000189a3a4","6662009ae78f21dd82fcd179","66620d404d066a268d713931","null","","null","","","","","","","","./tasks/HMM-beads/Images/WhiteBeadChoice.png","","","","","","","","","",""
"image-keyboard-response","300","254880","0.0-3.0-6.0-1.0-2.54","5b6545f19ed653000189a3a4","6662009ae78f21dd82fcd179","66620d404d066a268d713931","null","","null","","","","","","","","./tasks/HMM-beads/Images/WhiteBeadChoiceCorrect.png","","","","","","","","","",""
"image-keyboard-response","301","255117","0.0-3.0-6.0-1.0-0.55","5b6545f19ed653000189a3a4","6662009ae78f21dd82fcd179","66620d404d066a268d713931","237","","j","","","","","","","","./tasks/HMM-beads/Images/NewTrialWC.png","lowH","1","55","1","1","1","1","true","",""
"image-keyboard-response","302","255419","0.0-3.0-6.0-1.0-1.55","5b6545f19ed653000189a3a4","6662009ae78f21dd82fcd179","66620d404d066a268d713931","null","","null","","","","","","","","./tasks/HMM-beads/Images/WhiteBeadChoice.png","","","","","","","","","",""
"image-keyboard-response","303","255919","0.0-3.0-6.0-1.0-2.55","5b6545f19ed653000189a3a4","6662009ae78f21dd82fcd179","66620d404d066a268d713931","null","","null","","","","","","","","./tasks/HMM-beads/Images/WhiteBeadChoiceCorrect.png","","","","","","","","","",""
"image-keyboard-response","304","256117","0.0-3.0-6.0-1.0-0.56","5b6545f19ed653000189a3a4","6662009ae78f21dd82fcd179","66620d404d066a268d713931","197","","j","","","","","","","","./tasks/HMM-beads/Images/NewTrialWC.png","lowH","1","56","1","1","1","1","true","",""
"image-keyboard-response","305","256419","0.0-3.0-6.0-1.0-1.56","5b6545f19ed653000189a3a4","6662009ae78f21dd82fcd179","66620d404d066a268d713931","null","","null","","","","","","","","./tasks/HMM-beads/Images/WhiteBeadChoice.png","","","","","","","","","",""
"image-keyboard-response","306","256921","0.0-3.0-6.0-1.0-2.56","5b6545f19ed653000189a3a4","6662009ae78f21dd82fcd179","66620d404d066a268d713931","null","","null","","","","","","","","./tasks/HMM-beads/Images/WhiteBeadChoiceCorrect.png","","","","","","","","","",""
"image-keyboard-response","307","257117","0.0-3.0-6.0-1.0-0.57","5b6545f19ed653000189a3a4","6662009ae78f21dd82fcd179","66620d404d066a268d713931","196","","j","","","","","","","","./tasks/HMM-beads/Images/NewTrialWC.png","lowH","1","57","1","1","1","1","true","",""
"image-keyboard-response","308","257419","0.0-3.0-6.0-1.0-1.57","5b6545f19ed653000189a3a4","6662009ae78f21dd82fcd179","66620d404d066a268d713931","null","","null","","","","","","","","./tasks/HMM-beads/Images/WhiteBeadChoice.png","","","","","","","","","",""
"image-keyboard-response","309","257920","0.0-3.0-6.0-1.0-2.57","5b6545f19ed653000189a3a4","6662009ae78f21dd82fcd179","66620d404d066a268d713931","null","","null","","","","","","","","./tasks/HMM-beads/Images/WhiteBeadChoiceCorrect.png","","","","","","","","","",""
"image-keyboard-response","310","258054","0.0-3.0-6.0-1.0-0.58","5b6545f19ed653000189a3a4","6662009ae78f21dd82fcd179","66620d404d066a268d713931","133","","j","","","","","","","","./tasks/HMM-beads/Images/NewTrialWC.png","lowH","1","58","1","1","1","1","true","",""
"image-keyboard-response","311","258355","0.0-3.0-6.0-1.0-1.58","5b6545f19ed653000189a3a4","6662009ae78f21dd82fcd179","66620d404d066a268d713931","null","","null","","","","","","","","./tasks/HMM-beads/Images/WhiteBeadChoice.png","","","","","","","","","",""
"image-keyboard-response","312","258855","0.0-3.0-6.0-1.0-2.58","5b6545f19ed653000189a3a4","6662009ae78f21dd82fcd179","66620d404d066a268d713931","null","","null","","","","","","","","./tasks/HMM-beads/Images/WhiteBeadChoiceCorrect.png","","","","","","","","","",""
"image-keyboard-response","313","258998","0.0-3.0-6.0-1.0-0.59","5b6545f19ed653000189a3a4","6662009ae78f21dd82fcd179","66620d404d066a268d713931","142","","j","","","","","","","","./tasks/HMM-beads/Images/NewTrialWC.png","lowH","1","59","1","0","1","1","false","",""
"image-keyboard-response","314","259300","0.0-3.0-6.0-1.0-1.59","5b6545f19ed653000189a3a4","6662009ae78f21dd82fcd179","66620d404d066a268d713931","null","","null","","","","","","","","./tasks/HMM-beads/Images/WhiteBeadChoice.png","","","","","","","","","",""
"image-keyboard-response","315","259801","0.0-3.0-6.0-1.0-2.59","5b6545f19ed653000189a3a4","6662009ae78f21dd82fcd179","66620d404d066a268d713931","null","","null","","","","","","","","./tasks/HMM-beads/Images/WhiteBeadChoiceWrong.png","","","","","","","","","",""
"image-keyboard-response","316","260029","0.0-3.0-6.0-1.0-0.60","5b6545f19ed653000189a3a4","6662009ae78f21dd82fcd179","66620d404d066a268d713931","228","","f","","","","","","","","./tasks/HMM-beads/Images/NewTrialBC.png","lowH","1","60","1","1","0","0","false","",""
"image-keyboard-response","317","260331","0.0-3.0-6.0-1.0-1.60","5b6545f19ed653000189a3a4","6662009ae78f21dd82fcd179","66620d404d066a268d713931","null","","null","","","","","","","","./tasks/HMM-beads/Images/BlackBeadChoice.png","","","","","","","","","",""
"image-keyboard-response","318","260832","0.0-3.0-6.0-1.0-2.60","5b6545f19ed653000189a3a4","6662009ae78f21dd82fcd179","66620d404d066a268d713931","null","","null","","","","","","","","./tasks/HMM-beads/Images/BlackBeadChoiceWrong.png","","","","","","","","","",""
"image-keyboard-response","319","261030","0.0-3.0-6.0-1.0-0.61","5b6545f19ed653000189a3a4","6662009ae78f21dd82fcd179","66620d404d066a268d713931","198","","j","","","","","","","","./tasks/HMM-beads/Images/NewTrialWC.png","lowH","1","61","1","1","1","1","true","",""
"image-keyboard-response","320","261332","0.0-3.0-6.0-1.0-1.61","5b6545f19ed653000189a3a4","6662009ae78f21dd82fcd179","66620d404d066a268d713931","null","","null","","","","","","","","./tasks/HMM-beads/Images/WhiteBeadChoice.png","","","","","","","","","",""
"image-keyboard-response","321","261833","0.0-3.0-6.0-1.0-2.61","5b6545f19ed653000189a3a4","6662009ae78f21dd82fcd179","66620d404d066a268d713931","null","","null","","","","","","","","./tasks/HMM-beads/Images/WhiteBeadChoiceCorrect.png","","","","","","","","","",""
"image-keyboard-response","322","261989","0.0-3.0-6.0-1.0-0.62","5b6545f19ed653000189a3a4","6662009ae78f21dd82fcd179","66620d404d066a268d713931","156","","j","","","","","","","","./tasks/HMM-beads/Images/NewTrialWC.png","lowH","1","62","1","0","1","1","false","",""
"image-keyboard-response","323","262291","0.0-3.0-6.0-1.0-1.62","5b6545f19ed653000189a3a4","6662009ae78f21dd82fcd179","66620d404d066a268d713931","null","","null","","","","","","","","./tasks/HMM-beads/Images/WhiteBeadChoice.png","","","","","","","","","",""
"image-keyboard-response","324","262792","0.0-3.0-6.0-1.0-2.62","5b6545f19ed653000189a3a4","6662009ae78f21dd82fcd179","66620d404d066a268d713931","null","","null","","","","","","","","./tasks/HMM-beads/Images/WhiteBeadChoiceWrong.png","","","","","","","","","",""
"image-keyboard-response","325","262973","0.0-3.0-6.0-1.0-0.63","5b6545f19ed653000189a3a4","6662009ae78f21dd82fcd179","66620d404d066a268d713931","180","","j","","","","","","","","./tasks/HMM-beads/Images/NewTrialBC.png","lowH","1","63","1","1","0","1","true","",""
"image-keyboard-response","326","263275","0.0-3.0-6.0-1.0-1.63","5b6545f19ed653000189a3a4","6662009ae78f21dd82fcd179","66620d404d066a268d713931","null","","null","","","","","","","","./tasks/HMM-beads/Images/WhiteBeadChoice.png","","","","","","","","","",""
"image-keyboard-response","327","263778","0.0-3.0-6.0-1.0-2.63","5b6545f19ed653000189a3a4","6662009ae78f21dd82fcd179","66620d404d066a268d713931","null","","null","","","","","","","","./tasks/HMM-beads/Images/WhiteBeadChoiceCorrect.png","","","","","","","","","",""
"image-keyboard-response","328","263901","0.0-3.0-6.0-1.0-0.64","5b6545f19ed653000189a3a4","6662009ae78f21dd82fcd179","66620d404d066a268d713931","123","","j","","","","","","","","./tasks/HMM-beads/Images/NewTrialWC.png","lowH","1","64","1","1","1","1","true","",""
"image-keyboard-response","329","264203","0.0-3.0-6.0-1.0-1.64","5b6545f19ed653000189a3a4","6662009ae78f21dd82fcd179","66620d404d066a268d713931","null","","null","","","","","","","","./tasks/HMM-beads/Images/WhiteBeadChoice.png","","","","","","","","","",""
"image-keyboard-response","330","264703","0.0-3.0-6.0-1.0-2.64","5b6545f19ed653000189a3a4","6662009ae78f21dd82fcd179","66620d404d066a268d713931","null","","null","","","","","","","","./tasks/HMM-beads/Images/WhiteBeadChoiceCorrect.png","","","","","","","","","",""
"image-keyboard-response","331","264878","0.0-3.0-6.0-1.0-0.65","5b6545f19ed653000189a3a4","6662009ae78f21dd82fcd179","66620d404d066a268d713931","174","","j","","","","","","","","./tasks/HMM-beads/Images/NewTrialWC.png","lowH","1","65","1","1","1","1","true","",""
"image-keyboard-response","332","265179","0.0-3.0-6.0-1.0-1.65","5b6545f19ed653000189a3a4","6662009ae78f21dd82fcd179","66620d404d066a268d713931","null","","null","","","","","","","","./tasks/HMM-beads/Images/WhiteBeadChoice.png","","","","","","","","","",""
"image-keyboard-response","333","265681","0.0-3.0-6.0-1.0-2.65","5b6545f19ed653000189a3a4","6662009ae78f21dd82fcd179","66620d404d066a268d713931","null","","null","","","","","","","","./tasks/HMM-beads/Images/WhiteBeadChoiceCorrect.png","","","","","","","","","",""
"image-keyboard-response","334","265798","0.0-3.0-6.0-1.0-0.66","5b6545f19ed653000189a3a4","6662009ae78f21dd82fcd179","66620d404d066a268d713931","117","","j","","","","","","","","./tasks/HMM-beads/Images/NewTrialWC.png","lowH","1","66","1","1","1","1","true","",""
"image-keyboard-response","335","266099","0.0-3.0-6.0-1.0-1.66","5b6545f19ed653000189a3a4","6662009ae78f21dd82fcd179","66620d404d066a268d713931","null","","null","","","","","","","","./tasks/HMM-beads/Images/WhiteBeadChoice.png","","","","","","","","","",""
"image-keyboard-response","336","266600","0.0-3.0-6.0-1.0-2.66","5b6545f19ed653000189a3a4","6662009ae78f21dd82fcd179","66620d404d066a268d713931","null","","null","","","","","","","","./tasks/HMM-beads/Images/WhiteBeadChoiceCorrect.png","","","","","","","","","",""
"image-keyboard-response","337","266749","0.0-3.0-6.0-1.0-0.67","5b6545f19ed653000189a3a4","6662009ae78f21dd82fcd179","66620d404d066a268d713931","149","","j","","","","","","","","./tasks/HMM-beads/Images/NewTrialWC.png","lowH","1","67","1","0","1","1","false","",""
"image-keyboard-response","338","267051","0.0-3.0-6.0-1.0-1.67","5b6545f19ed653000189a3a4","6662009ae78f21dd82fcd179","66620d404d066a268d713931","null","","null","","","","","","","","./tasks/HMM-beads/Images/WhiteBeadChoice.png","","","","","","","","","",""
"image-keyboard-response","339","267552","0.0-3.0-6.0-1.0-2.67","5b6545f19ed653000189a3a4","6662009ae78f21dd82fcd179","66620d404d066a268d713931","null","","null","","","","","","","","./tasks/HMM-beads/Images/WhiteBeadChoiceWrong.png","","","","","","","","","",""
"image-keyboard-response","340","267605","0.0-3.0-6.0-1.0-0.68","5b6545f19ed653000189a3a4","6662009ae78f21dd82fcd179","66620d404d066a268d713931","52","","j","","","","","","","","./tasks/HMM-beads/Images/NewTrialBC.png","lowH","1","68","1","1","0","1","true","",""
"image-keyboard-response","341","267906","0.0-3.0-6.0-1.0-1.68","5b6545f19ed653000189a3a4","6662009ae78f21dd82fcd179","66620d404d066a268d713931","null","","null","","","","","","","","./tasks/HMM-beads/Images/WhiteBeadChoice.png","","","","","","","","","",""
"image-keyboard-response","342","268407","0.0-3.0-6.0-1.0-2.68","5b6545f19ed653000189a3a4","6662009ae78f21dd82fcd179","66620d404d066a268d713931","null","","null","","","","","","","","./tasks/HMM-beads/Images/WhiteBeadChoiceCorrect.png","","","","","","","","","",""
"image-keyboard-response","343","268517","0.0-3.0-6.0-1.0-0.69","5b6545f19ed653000189a3a4","6662009ae78f21dd82fcd179","66620d404d066a268d713931","110","","j","","","","","","","","./tasks/HMM-beads/Images/NewTrialWC.png","lowH","1","69","0","1","1","1","true","",""
"image-keyboard-response","344","268818","0.0-3.0-6.0-1.0-1.69","5b6545f19ed653000189a3a4","6662009ae78f21dd82fcd179","66620d404d066a268d713931","null","","null","","","","","","","","./tasks/HMM-beads/Images/WhiteBeadChoice.png","","","","","","","","","",""
"image-keyboard-response","345","269319","0.0-3.0-6.0-1.0-2.69","5b6545f19ed653000189a3a4","6662009ae78f21dd82fcd179","66620d404d066a268d713931","null","","null","","","","","","","","./tasks/HMM-beads/Images/WhiteBeadChoiceCorrect.png","","","","","","","","","",""
"image-keyboard-response","346","269518","0.0-3.0-6.0-1.0-0.70","5b6545f19ed653000189a3a4","6662009ae78f21dd82fcd179","66620d404d066a268d713931","198","","j","","","","","","","","./tasks/HMM-beads/Images/NewTrialWC.png","lowH","1","70","0","1","1","1","true","",""
"image-keyboard-response","347","269819","0.0-3.0-6.0-1.0-1.70","5b6545f19ed653000189a3a4","6662009ae78f21dd82fcd179","66620d404d066a268d713931","null","","null","","","","","","","","./tasks/HMM-beads/Images/WhiteBeadChoice.png","","","","","","","","","",""
"image-keyboard-response","348","270321","0.0-3.0-6.0-1.0-2.70","5b6545f19ed653000189a3a4","6662009ae78f21dd82fcd179","66620d404d066a268d713931","null","","null","","","","","","","","./tasks/HMM-beads/Images/WhiteBeadChoiceCorrect.png","","","","","","","","","",""
"image-keyboard-response","349","270429","0.0-3.0-6.0-1.0-0.71","5b6545f19ed653000189a3a4","6662009ae78f21dd82fcd179","66620d404d066a268d713931","108","","j","","","","","","","","./tasks/HMM-beads/Images/NewTrialWC.png","lowH","1","71","0","0","1","1","false","",""
"image-keyboard-response","350","270731","0.0-3.0-6.0-1.0-1.71","5b6545f19ed653000189a3a4","6662009ae78f21dd82fcd179","66620d404d066a268d713931","null","","null","","","","","","","","./tasks/HMM-beads/Images/WhiteBeadChoice.png","","","","","","","","","",""
"image-keyboard-response","351","271232","0.0-3.0-6.0-1.0-2.71","5b6545f19ed653000189a3a4","6662009ae78f21dd82fcd179","66620d404d066a268d713931","null","","null","","","","","","","","./tasks/HMM-beads/Images/WhiteBeadChoiceWrong.png","","","","","","","","","",""
"image-keyboard-response","352","271270","0.0-3.0-6.0-1.0-0.72","5b6545f19ed653000189a3a4","6662009ae78f21dd82fcd179","66620d404d066a268d713931","37","","j","","","","","","","","./tasks/HMM-beads/Images/NewTrialBC.png","lowH","1","72","0","0","0","1","false","",""
"image-keyboard-response","353","271571","0.0-3.0-6.0-1.0-1.72","5b6545f19ed653000189a3a4","6662009ae78f21dd82fcd179","66620d404d066a268d713931","null","","null","","","","","","","","./tasks/HMM-beads/Images/WhiteBeadChoice.png","","","","","","","","","",""
"image-keyboard-response","354","272073","0.0-3.0-6.0-1.0-2.72","5b6545f19ed653000189a3a4","6662009ae78f21dd82fcd179","66620d404d066a268d713931","null","","null","","","","","","","","./tasks/HMM-beads/Images/WhiteBeadChoiceWrong.png","","","","","","","","","",""
"image-keyboard-response","355","272245","0.0-3.0-6.0-1.0-0.73","5b6545f19ed653000189a3a4","6662009ae78f21dd82fcd179","66620d404d066a268d713931","172","","f","","","","","","","","./tasks/HMM-beads/Images/NewTrialBC.png","lowH","1","73","0","1","0","0","false","",""
"image-keyboard-response","356","272546","0.0-3.0-6.0-1.0-1.73","5b6545f19ed653000189a3a4","6662009ae78f21dd82fcd179","66620d404d066a268d713931","null","","null","","","","","","","","./tasks/HMM-beads/Images/BlackBeadChoice.png","","","","","","","","","",""
"image-keyboard-response","357","273047","0.0-3.0-6.0-1.0-2.73","5b6545f19ed653000189a3a4","6662009ae78f21dd82fcd179","66620d404d066a268d713931","null","","null","","","","","","","","./tasks/HMM-beads/Images/BlackBeadChoiceWrong.png","","","","","","","","","",""
"image-keyboard-response","358","273125","0.0-3.0-6.0-1.0-0.74","5b6545f19ed653000189a3a4","6662009ae78f21dd82fcd179","66620d404d066a268d713931","78","","j","","","","","","","","./tasks/HMM-beads/Images/NewTrialWC.png","lowH","1","74","0","0","1","1","false","",""
"image-keyboard-response","359","273427","0.0-3.0-6.0-1.0-1.74","5b6545f19ed653000189a3a4","6662009ae78f21dd82fcd179","66620d404d066a268d713931","null","","null","","","","","","","","./tasks/HMM-beads/Images/WhiteBeadChoice.png","","","","","","","","","",""
"image-keyboard-response","360","273928","0.0-3.0-6.0-1.0-2.74","5b6545f19ed653000189a3a4","6662009ae78f21dd82fcd179","66620d404d066a268d713931","null","","null","","","","","","","","./tasks/HMM-beads/Images/WhiteBeadChoiceWrong.png","","","","","","","","","",""
"image-keyboard-response","361","274133","0.0-3.0-6.0-1.0-0.75","5b6545f19ed653000189a3a4","6662009ae78f21dd82fcd179","66620d404d066a268d713931","205","","f","","","","","","","","./tasks/HMM-beads/Images/NewTrialBC.png","lowH","1","75","0","1","0","0","false","",""
"image-keyboard-response","362","274434","0.0-3.0-6.0-1.0-1.75","5b6545f19ed653000189a3a4","6662009ae78f21dd82fcd179","66620d404d066a268d713931","null","","null","","","","","","","","./tasks/HMM-beads/Images/BlackBeadChoice.png","","","","","","","","","",""
"image-keyboard-response","363","274935","0.0-3.0-6.0-1.0-2.75","5b6545f19ed653000189a3a4","6662009ae78f21dd82fcd179","66620d404d066a268d713931","null","","null","","","","","","","","./tasks/HMM-beads/Images/BlackBeadChoiceWrong.png","","","","","","","","","",""
"image-keyboard-response","364","275261","0.0-3.0-6.0-1.0-0.76","5b6545f19ed653000189a3a4","6662009ae78f21dd82fcd179","66620d404d066a268d713931","326","","j","","","","","","","","./tasks/HMM-beads/Images/NewTrialWC.png","lowH","1","76","0","1","1","1","true","",""
"image-keyboard-response","365","275562","0.0-3.0-6.0-1.0-1.76","5b6545f19ed653000189a3a4","6662009ae78f21dd82fcd179","66620d404d066a268d713931","null","","null","","","","","","","","./tasks/HMM-beads/Images/WhiteBeadChoice.png","","","","","","","","","",""
"image-keyboard-response","366","276064","0.0-3.0-6.0-1.0-2.76","5b6545f19ed653000189a3a4","6662009ae78f21dd82fcd179","66620d404d066a268d713931","null","","null","","","","","","","","./tasks/HMM-beads/Images/WhiteBeadChoiceCorrect.png","","","","","","","","","",""
"image-keyboard-response","367","276189","0.0-3.0-6.0-1.0-0.77","5b6545f19ed653000189a3a4","6662009ae78f21dd82fcd179","66620d404d066a268d713931","126","","j","","","","","","","","./tasks/HMM-beads/Images/NewTrialWC.png","lowH","1","77","0","0","1","1","false","",""
"image-keyboard-response","368","276491","0.0-3.0-6.0-1.0-1.77","5b6545f19ed653000189a3a4","6662009ae78f21dd82fcd179","66620d404d066a268d713931","null","","null","","","","","","","","./tasks/HMM-beads/Images/WhiteBeadChoice.png","","","","","","","","","",""
"image-keyboard-response","369","276993","0.0-3.0-6.0-1.0-2.77","5b6545f19ed653000189a3a4","6662009ae78f21dd82fcd179","66620d404d066a268d713931","null","","null","","","","","","","","./tasks/HMM-beads/Images/WhiteBeadChoiceWrong.png","","","","","","","","","",""
"image-keyboard-response","370","277173","0.0-3.0-6.0-1.0-0.78","5b6545f19ed653000189a3a4","6662009ae78f21dd82fcd179","66620d404d066a268d713931","180","","j","","","","","","","","./tasks/HMM-beads/Images/NewTrialBC.png","lowH","1","78","0","0","0","1","false","",""
"image-keyboard-response","371","277474","0.0-3.0-6.0-1.0-1.78","5b6545f19ed653000189a3a4","6662009ae78f21dd82fcd179","66620d404d066a268d713931","null","","null","","","","","","","","./tasks/HMM-beads/Images/WhiteBeadChoice.png","","","","","","","","","",""
"image-keyboard-response","372","277975","0.0-3.0-6.0-1.0-2.78","5b6545f19ed653000189a3a4","6662009ae78f21dd82fcd179","66620d404d066a268d713931","null","","null","","","","","","","","./tasks/HMM-beads/Images/WhiteBeadChoiceWrong.png","","","","","","","","","",""
"image-keyboard-response","373","278046","0.0-3.0-6.0-1.0-0.79","5b6545f19ed653000189a3a4","6662009ae78f21dd82fcd179","66620d404d066a268d713931","71","","f","","","","","","","","./tasks/HMM-beads/Images/NewTrialBC.png","lowH","1","79","0","0","0","0","true","",""
"image-keyboard-response","374","278347","0.0-3.0-6.0-1.0-1.79","5b6545f19ed653000189a3a4","6662009ae78f21dd82fcd179","66620d404d066a268d713931","null","","null","","","","","","","","./tasks/HMM-beads/Images/BlackBeadChoice.png","","","","","","","","","",""
