"trial_type","trial_index","time_elapsed","internal_node_id","subject_id","study_id","session_id","rt","url","response","question_order","view_history","success","timeout","failed_images","failed_audio","failed_video","stimulus","block","block_rep","trial_number","jar","bead","previous_bead","choice","correct","lowH_score","total_bonus"
"pavlovia","0","1111","0.0-0.0","5a08663b3b6dfc0001445abe","6662009ae78f21dd82fcd179","66620c13fcaa40d33955df42","","","","","","","","","","","","","","","","","","","","",""
"external-html","1","1345398","0.0-1.0-0.0","5a08663b3b6dfc0001445abe","6662009ae78f21dd82fcd179","66620c13fcaa40d33955df42","1344155","new_consent.html","","","","","","","","","","","","","","","","","","",""
"survey-multi-choice","2","1350429","0.0-1.0-1.0","5a08663b3b6dfc0001445abe","6662009ae78f21dd82fcd179","66620c13fcaa40d33955df42","5029","","{""Q0"":""Female"",""Q1"":""White""}","[0,1]","","","","","","","","","","","","","","","","",""
"survey-text","3","1355987","0.0-1.0-2.0","5a08663b3b6dfc0001445abe","6662009ae78f21dd82fcd179","66620c13fcaa40d33955df42","5554","","{""Q0"":""25""}","","","","","","","","","","","","","","","","","",""
"instructions","4","1357971","0.0-2.0","5a08663b3b6dfc0001445abe","6662009ae78f21dd82fcd179","66620c13fcaa40d33955df42","1867","","","","[{""page_index"":0,""viewing_time"":1867}]","","","","","","","","","","","","","","","",""
"preload","5","1359468","0.0-3.0-0.0","5a08663b3b6dfc0001445abe","6662009ae78f21dd82fcd179","66620c13fcaa40d33955df42","","","","","","true","false","[]","[]","[]","","","","","","","","","","",""
"instructions","6","1510402","0.0-3.0-1.0","5a08663b3b6dfc0001445abe","6662009ae78f21dd82fcd179","66620c13fcaa40d33955df42","150934","","","","[{""page_index"":0,""viewing_time"":32200},{""page_index"":1,""viewing_time"":10904},{""page_index"":2,""viewing_time"":8930},{""page_index"":3,""viewing_time"":5668},{""page_index"":4,""viewing_time"":8514},{""page_index"":5,""viewing_time"":42848},{""page_index"":6,""viewing_time"":5690},{""page_index"":7,""viewing_time"":5266},{""page_index"":8,""viewing_time"":7328},{""page_index"":9,""viewing_time"":5674},{""page_index"":10,""viewing_time"":16266},{""page_index"":11,""viewing_time"":1646}]","","","","","","","","","","","","","","","",""
"html-button-response","7","1521539","0.0-3.0-2.0-0.0-0.0","5a08663b3b6dfc0001445abe","6662009ae78f21dd82fcd179","66620c13fcaa40d33955df42","11135","","2","","","","","","","","<div align=center>Your goal is to predict…?<br><br></div>","","","","","","","","","",""
"html-button-response","8","1531702","0.0-3.0-2.0-0.1-0.1","5a08663b3b6dfc0001445abe","6662009ae78f21dd82fcd179","66620c13fcaa40d33955df42","5813","","1","","","","","","","","<div align=center>Your goal is to predict…?<br><br></div>","","","","","","","","","",""
"html-button-response","9","1540692","0.0-3.0-2.0-1.0-0.0","5a08663b3b6dfc0001445abe","6662009ae78f21dd82fcd179","66620c13fcaa40d33955df42","7846","","2","","","","","","","","<div align=center>In the jar with mostly white beads, there are ___% white beads and ___% black beads?<br><br></div>","","","","","","","","","",""
"html-button-response","10","1553498","0.0-3.0-2.0-2.0-0.0","5a08663b3b6dfc0001445abe","6662009ae78f21dd82fcd179","66620c13fcaa40d33955df42","11729","","0","","","","","","","","<div align=center>When there is a 1% probability that the jars will switch, the next bead will most likely be drawn from the…<br><br></div>","","","","","","","","","",""
"html-button-response","11","1559548","0.0-3.0-2.0-3.0-0.0","5a08663b3b6dfc0001445abe","6662009ae78f21dd82fcd179","66620c13fcaa40d33955df42","4950","","1","","","","","","","","<div align=center>When there is a 99% probability that the jars will switch, the next bead will most likely be drawn from the…<br><br></div>","","","","","","","","","",""
"instructions","12","1590288","0.0-3.0-3.0","5a08663b3b6dfc0001445abe","6662009ae78f21dd82fcd179","66620c13fcaa40d33955df42","29689","","","","[{""page_index"":0,""viewing_time"":29689}]","","","","","","","","","","","","","","","",""
"html-keyboard-response","13","1599612","0.0-3.0-4.0-0.0","5a08663b3b6dfc0001445abe","6662009ae78f21dd82fcd179","66620c13fcaa40d33955df42","9323",""," ","","","","","","","","<div align=center>In this practice block, there will be a <b>1% chance</b> that the jar on the next trial will be different from the jar on the current trial.<br><br></div>","","","","","","","","","",""
"image-keyboard-response","14","1606579","0.0-3.0-4.0-1.0-0.0","5a08663b3b6dfc0001445abe","6662009ae78f21dd82fcd179","66620c13fcaa40d33955df42","6948","","f","","","","","","","","./tasks/HMM-beads/Images/NoChoice.png","practice","0","0","0","0","9","0","true","",""
"image-keyboard-response","15","1606886","0.0-3.0-4.0-1.0-1.0","5a08663b3b6dfc0001445abe","6662009ae78f21dd82fcd179","66620c13fcaa40d33955df42","null","","null","","","","","","","","./tasks/HMM-beads/Images/BlackBeadChoice.png","","","","","","","","","",""
"image-keyboard-response","16","1607401","0.0-3.0-4.0-1.0-2.0","5a08663b3b6dfc0001445abe","6662009ae78f21dd82fcd179","66620c13fcaa40d33955df42","null","","null","","","","","","","","./tasks/HMM-beads/Images/BlackBeadChoiceCorrect.png","","","","","","","","","",""
"image-keyboard-response","17","1609312","0.0-3.0-4.0-1.0-0.1","5a08663b3b6dfc0001445abe","6662009ae78f21dd82fcd179","66620c13fcaa40d33955df42","1909","","f","","","","","","","","./tasks/HMM-beads/Images/NewTrialBC.png","practice","0","1","0","0","0","0","true","",""
"image-keyboard-response","18","1609630","0.0-3.0-4.0-1.0-1.1","5a08663b3b6dfc0001445abe","6662009ae78f21dd82fcd179","66620c13fcaa40d33955df42","null","","null","","","","","","","","./tasks/HMM-beads/Images/BlackBeadChoice.png","","","","","","","","","",""
"image-keyboard-response","19","1610143","0.0-3.0-4.0-1.0-2.1","5a08663b3b6dfc0001445abe","6662009ae78f21dd82fcd179","66620c13fcaa40d33955df42","null","","null","","","","","","","","./tasks/HMM-beads/Images/BlackBeadChoiceCorrect.png","","","","","","","","","",""
"image-keyboard-response","20","1611289","0.0-3.0-4.0-1.0-0.2","5a08663b3b6dfc0001445abe","6662009ae78f21dd82fcd179","66620c13fcaa40d33955df42","1144","","f","","","","","","","","./tasks/HMM-beads/Images/NewTrialBC.png","practice","0","2","0","1","0","0","false","",""
"image-keyboard-response","21","1611593","0.0-3.0-4.0-1.0-1.2","5a08663b3b6dfc0001445abe","6662009ae78f21dd82fcd179","66620c13fcaa40d33955df42","null","","null","","","","","","","","./tasks/HMM-beads/Images/BlackBeadChoice.png","","","","","","","","","",""
"image-keyboard-response","22","1612107","0.0-3.0-4.0-1.0-2.2","5a08663b3b6dfc0001445abe","6662009ae78f21dd82fcd179","66620c13fcaa40d33955df42","null","","null","","","","","","","","./tasks/HMM-beads/Images/BlackBeadChoiceWrong.png","","","","","","","","","",""
"image-keyboard-response","23","1613728","0.0-3.0-4.0-1.0-0.3","5a08663b3b6dfc0001445abe","6662009ae78f21dd82fcd179","66620c13fcaa40d33955df42","1620","","f","","","","","","","","./tasks/HMM-beads/Images/NewTrialWC.png","practice","0","3","0","0","1","0","true","",""
"image-keyboard-response","24","1614043","0.0-3.0-4.0-1.0-1.3","5a08663b3b6dfc0001445abe","6662009ae78f21dd82fcd179","66620c13fcaa40d33955df42","null","","null","","","","","","","","./tasks/HMM-beads/Images/BlackBeadChoice.png","","","","","","","","","",""
"image-keyboard-response","25","1614557","0.0-3.0-4.0-1.0-2.3","5a08663b3b6dfc0001445abe","6662009ae78f21dd82fcd179","66620c13fcaa40d33955df42","null","","null","","","","","","","","./tasks/HMM-beads/Images/BlackBeadChoiceCorrect.png","","","","","","","","","",""
"image-keyboard-response","26","1615647","0.0-3.0-4.0-1.0-0.4","5a08663b3b6dfc0001445abe","6662009ae78f21dd82fcd179","66620c13fcaa40d33955df42","1088","","f","","","","","","","","./tasks/HMM-beads/Images/NewTrialBC.png","practice","0","4","0","0","0","0","true","",""
"image-keyboard-response","27","1615959","0.0-3.0-4.0-1.0-1.4","5a08663b3b6dfc0001445abe","6662009ae78f21dd82fcd179","66620c13fcaa40d33955df42","null","","null","","","","","","","","./tasks/HMM-beads/Images/BlackBeadChoice.png","","","","","","","","","",""
"image-keyboard-response","28","1616474","0.0-3.0-4.0-1.0-2.4","5a08663b3b6dfc0001445abe","6662009ae78f21dd82fcd179","66620c13fcaa40d33955df42","null","","null","","","","","","","","./tasks/HMM-beads/Images/BlackBeadChoiceCorrect.png","","","","","","","","","",""
"image-keyboard-response","29","1617401","0.0-3.0-4.0-1.0-0.5","5a08663b3b6dfc0001445abe","6662009ae78f21dd82fcd179","66620c13fcaa40d33955df42","926","","f","","","","","","","","./tasks/HMM-beads/Images/NewTrialBC.png","practice","0","5","0","1","0","0","false","",""
"image-keyboard-response","30","1617705","0.0-3.0-4.0-1.0-1.5","5a08663b3b6dfc0001445abe","6662009ae78f21dd82fcd179","66620c13fcaa40d33955df42","null","","null","","","","","","","","./tasks/HMM-beads/Images/BlackBeadChoice.png","","","","","","","","","",""
"image-keyboard-response","31","1618219","0.0-3.0-4.0-1.0-2.5","5a08663b3b6dfc0001445abe","6662009ae78f21dd82fcd179","66620c13fcaa40d33955df42","null","","null","","","","","","","","./tasks/HMM-beads/Images/BlackBeadChoiceWrong.png","","","","","","","","","",""
"image-keyboard-response","32","1619404","0.0-3.0-4.0-1.0-0.6","5a08663b3b6dfc0001445abe","6662009ae78f21dd82fcd179","66620c13fcaa40d33955df42","1183","","f","","","","","","","","./tasks/HMM-beads/Images/NewTrialWC.png","practice","0","6","0","0","1","0","true","",""
"image-keyboard-response","33","1619718","0.0-3.0-4.0-1.0-1.6","5a08663b3b6dfc0001445abe","6662009ae78f21dd82fcd179","66620c13fcaa40d33955df42","null","","null","","","","","","","","./tasks/HMM-beads/Images/BlackBeadChoice.png","","","","","","","","","",""
"image-keyboard-response","34","1620231","0.0-3.0-4.0-1.0-2.6","5a08663b3b6dfc0001445abe","6662009ae78f21dd82fcd179","66620c13fcaa40d33955df42","null","","null","","","","","","","","./tasks/HMM-beads/Images/BlackBeadChoiceCorrect.png","","","","","","","","","",""
"image-keyboard-response","35","1621115","0.0-3.0-4.0-1.0-0.7","5a08663b3b6dfc0001445abe","6662009ae78f21dd82fcd179","66620c13fcaa40d33955df42","882","","f","","","","","","","","./tasks/HMM-beads/Images/NewTrialBC.png","practice","0","7","0","0","0","0","true","",""
"image-keyboard-response","36","1621424","0.0-3.0-4.0-1.0-1.7","5a08663b3b6dfc0001445abe","6662009ae78f21dd82fcd179","66620c13fcaa40d33955df42","null","","null","","","","","","","","./tasks/HMM-beads/Images/BlackBeadChoice.png","","","","","","","","","",""
"image-keyboard-response","37","1621928","0.0-3.0-4.0-1.0-2.7","5a08663b3b6dfc0001445abe","6662009ae78f21dd82fcd179","66620c13fcaa40d33955df42","null","","null","","","","","","","","./tasks/HMM-beads/Images/BlackBeadChoiceCorrect.png","","","","","","","","","",""
"image-keyboard-response","38","1622937","0.0-3.0-4.0-1.0-0.8","5a08663b3b6dfc0001445abe","6662009ae78f21dd82fcd179","66620c13fcaa40d33955df42","1008","","f","","","","","","","","./tasks/HMM-beads/Images/NewTrialBC.png","practice","0","8","0","0","0","0","true","",""
"image-keyboard-response","39","1623253","0.0-3.0-4.0-1.0-1.8","5a08663b3b6dfc0001445abe","6662009ae78f21dd82fcd179","66620c13fcaa40d33955df42","null","","null","","","","","","","","./tasks/HMM-beads/Images/BlackBeadChoice.png","","","","","","","","","",""
"image-keyboard-response","40","1623760","0.0-3.0-4.0-1.0-2.8","5a08663b3b6dfc0001445abe","6662009ae78f21dd82fcd179","66620c13fcaa40d33955df42","null","","null","","","","","","","","./tasks/HMM-beads/Images/BlackBeadChoiceCorrect.png","","","","","","","","","",""
"image-keyboard-response","41","1624992","0.0-3.0-4.0-1.0-0.9","5a08663b3b6dfc0001445abe","6662009ae78f21dd82fcd179","66620c13fcaa40d33955df42","1231","","f","","","","","","","","./tasks/HMM-beads/Images/NewTrialBC.png","practice","0","9","0","1","0","0","false","",""
"image-keyboard-response","42","1625295","0.0-3.0-4.0-1.0-1.9","5a08663b3b6dfc0001445abe","6662009ae78f21dd82fcd179","66620c13fcaa40d33955df42","null","","null","","","","","","","","./tasks/HMM-beads/Images/BlackBeadChoice.png","","","","","","","","","",""
"image-keyboard-response","43","1625807","0.0-3.0-4.0-1.0-2.9","5a08663b3b6dfc0001445abe","6662009ae78f21dd82fcd179","66620c13fcaa40d33955df42","null","","null","","","","","","","","./tasks/HMM-beads/Images/BlackBeadChoiceWrong.png","","","","","","","","","",""
"image-keyboard-response","44","1627408","0.0-3.0-4.0-1.0-0.10","5a08663b3b6dfc0001445abe","6662009ae78f21dd82fcd179","66620c13fcaa40d33955df42","1599","","f","","","","","","","","./tasks/HMM-beads/Images/NewTrialWC.png","practice","0","10","0","0","1","0","true","",""
"image-keyboard-response","45","1627721","0.0-3.0-4.0-1.0-1.10","5a08663b3b6dfc0001445abe","6662009ae78f21dd82fcd179","66620c13fcaa40d33955df42","null","","null","","","","","","","","./tasks/HMM-beads/Images/BlackBeadChoice.png","","","","","","","","","",""
"image-keyboard-response","46","1628237","0.0-3.0-4.0-1.0-2.10","5a08663b3b6dfc0001445abe","6662009ae78f21dd82fcd179","66620c13fcaa40d33955df42","null","","null","","","","","","","","./tasks/HMM-beads/Images/BlackBeadChoiceCorrect.png","","","","","","","","","",""
"image-keyboard-response","47","1629083","0.0-3.0-4.0-1.0-0.11","5a08663b3b6dfc0001445abe","6662009ae78f21dd82fcd179","66620c13fcaa40d33955df42","844","","f","","","","","","","","./tasks/HMM-beads/Images/NewTrialBC.png","practice","0","11","0","1","0","0","false","",""
"image-keyboard-response","48","1629390","0.0-3.0-4.0-1.0-1.11","5a08663b3b6dfc0001445abe","6662009ae78f21dd82fcd179","66620c13fcaa40d33955df42","null","","null","","","","","","","","./tasks/HMM-beads/Images/BlackBeadChoice.png","","","","","","","","","",""
"image-keyboard-response","49","1629903","0.0-3.0-4.0-1.0-2.11","5a08663b3b6dfc0001445abe","6662009ae78f21dd82fcd179","66620c13fcaa40d33955df42","null","","null","","","","","","","","./tasks/HMM-beads/Images/BlackBeadChoiceWrong.png","","","","","","","","","",""
"image-keyboard-response","50","1632305","0.0-3.0-4.0-1.0-0.12","5a08663b3b6dfc0001445abe","6662009ae78f21dd82fcd179","66620c13fcaa40d33955df42","2401","","j","","","","","","","","./tasks/HMM-beads/Images/NewTrialWC.png","practice","0","12","0","0","1","1","false","",""
"image-keyboard-response","51","1632614","0.0-3.0-4.0-1.0-1.12","5a08663b3b6dfc0001445abe","6662009ae78f21dd82fcd179","66620c13fcaa40d33955df42","null","","null","","","","","","","","./tasks/HMM-beads/Images/WhiteBeadChoice.png","","","","","","","","","",""
"image-keyboard-response","52","1633128","0.0-3.0-4.0-1.0-2.12","5a08663b3b6dfc0001445abe","6662009ae78f21dd82fcd179","66620c13fcaa40d33955df42","null","","null","","","","","","","","./tasks/HMM-beads/Images/WhiteBeadChoiceWrong.png","","","","","","","","","",""
"image-keyboard-response","53","1634998","0.0-3.0-4.0-1.0-0.13","5a08663b3b6dfc0001445abe","6662009ae78f21dd82fcd179","66620c13fcaa40d33955df42","1869","","f","","","","","","","","./tasks/HMM-beads/Images/NewTrialBC.png","practice","0","13","0","0","0","0","true","",""
"image-keyboard-response","54","1635306","0.0-3.0-4.0-1.0-1.13","5a08663b3b6dfc0001445abe","6662009ae78f21dd82fcd179","66620c13fcaa40d33955df42","null","","null","","","","","","","","./tasks/HMM-beads/Images/BlackBeadChoice.png","","","","","","","","","",""
"image-keyboard-response","55","1635820","0.0-3.0-4.0-1.0-2.13","5a08663b3b6dfc0001445abe","6662009ae78f21dd82fcd179","66620c13fcaa40d33955df42","null","","null","","","","","","","","./tasks/HMM-beads/Images/BlackBeadChoiceCorrect.png","","","","","","","","","",""
"image-keyboard-response","56","1636666","0.0-3.0-4.0-1.0-0.14","5a08663b3b6dfc0001445abe","6662009ae78f21dd82fcd179","66620c13fcaa40d33955df42","845","","f","","","","","","","","./tasks/HMM-beads/Images/NewTrialBC.png","practice","0","14","0","0","0","0","true","",""
"image-keyboard-response","57","1636973","0.0-3.0-4.0-1.0-1.14","5a08663b3b6dfc0001445abe","6662009ae78f21dd82fcd179","66620c13fcaa40d33955df42","null","","null","","","","","","","","./tasks/HMM-beads/Images/BlackBeadChoice.png","","","","","","","","","",""
"image-keyboard-response","58","1637488","0.0-3.0-4.0-1.0-2.14","5a08663b3b6dfc0001445abe","6662009ae78f21dd82fcd179","66620c13fcaa40d33955df42","null","","null","","","","","","","","./tasks/HMM-beads/Images/BlackBeadChoiceCorrect.png","","","","","","","","","",""
"image-keyboard-response","59","1638675","0.0-3.0-4.0-1.0-0.15","5a08663b3b6dfc0001445abe","6662009ae78f21dd82fcd179","66620c13fcaa40d33955df42","1186","","f","","","","","","","","./tasks/HMM-beads/Images/NewTrialBC.png","practice","0","15","0","0","0","0","true","",""
"image-keyboard-response","60","1638985","0.0-3.0-4.0-1.0-1.15","5a08663b3b6dfc0001445abe","6662009ae78f21dd82fcd179","66620c13fcaa40d33955df42","null","","null","","","","","","","","./tasks/HMM-beads/Images/BlackBeadChoice.png","","","","","","","","","",""
"image-keyboard-response","61","1639496","0.0-3.0-4.0-1.0-2.15","5a08663b3b6dfc0001445abe","6662009ae78f21dd82fcd179","66620c13fcaa40d33955df42","null","","null","","","","","","","","./tasks/HMM-beads/Images/BlackBeadChoiceCorrect.png","","","","","","","","","",""
"image-keyboard-response","62","1640409","0.0-3.0-4.0-1.0-0.16","5a08663b3b6dfc0001445abe","6662009ae78f21dd82fcd179","66620c13fcaa40d33955df42","912","","f","","","","","","","","./tasks/HMM-beads/Images/NewTrialBC.png","practice","0","16","0","0","0","0","true","",""
"image-keyboard-response","63","1640714","0.0-3.0-4.0-1.0-1.16","5a08663b3b6dfc0001445abe","6662009ae78f21dd82fcd179","66620c13fcaa40d33955df42","null","","null","","","","","","","","./tasks/HMM-beads/Images/BlackBeadChoice.png","","","","","","","","","",""
"image-keyboard-response","64","1641227","0.0-3.0-4.0-1.0-2.16","5a08663b3b6dfc0001445abe","6662009ae78f21dd82fcd179","66620c13fcaa40d33955df42","null","","null","","","","","","","","./tasks/HMM-beads/Images/BlackBeadChoiceCorrect.png","","","","","","","","","",""
"image-keyboard-response","65","1641938","0.0-3.0-4.0-1.0-0.17","5a08663b3b6dfc0001445abe","6662009ae78f21dd82fcd179","66620c13fcaa40d33955df42","709","","f","","","","","","","","./tasks/HMM-beads/Images/NewTrialBC.png","practice","0","17","0","0","0","0","true","",""
"image-keyboard-response","66","1642242","0.0-3.0-4.0-1.0-1.17","5a08663b3b6dfc0001445abe","6662009ae78f21dd82fcd179","66620c13fcaa40d33955df42","null","","null","","","","","","","","./tasks/HMM-beads/Images/BlackBeadChoice.png","","","","","","","","","",""
"image-keyboard-response","67","1642755","0.0-3.0-4.0-1.0-2.17","5a08663b3b6dfc0001445abe","6662009ae78f21dd82fcd179","66620c13fcaa40d33955df42","null","","null","","","","","","","","./tasks/HMM-beads/Images/BlackBeadChoiceCorrect.png","","","","","","","","","",""
"image-keyboard-response","68","1643441","0.0-3.0-4.0-1.0-0.18","5a08663b3b6dfc0001445abe","6662009ae78f21dd82fcd179","66620c13fcaa40d33955df42","685","","f","","","","","","","","./tasks/HMM-beads/Images/NewTrialBC.png","practice","0","18","0","1","0","0","false","",""
"image-keyboard-response","69","1643760","0.0-3.0-4.0-1.0-1.18","5a08663b3b6dfc0001445abe","6662009ae78f21dd82fcd179","66620c13fcaa40d33955df42","null","","null","","","","","","","","./tasks/HMM-beads/Images/BlackBeadChoice.png","","","","","","","","","",""
"image-keyboard-response","70","1644276","0.0-3.0-4.0-1.0-2.18","5a08663b3b6dfc0001445abe","6662009ae78f21dd82fcd179","66620c13fcaa40d33955df42","null","","null","","","","","","","","./tasks/HMM-beads/Images/BlackBeadChoiceWrong.png","","","","","","","","","",""
"image-keyboard-response","71","1645370","0.0-3.0-4.0-1.0-0.19","5a08663b3b6dfc0001445abe","6662009ae78f21dd82fcd179","66620c13fcaa40d33955df42","1093","","f","","","","","","","","./tasks/HMM-beads/Images/NewTrialWC.png","practice","0","19","0","0","1","0","true","",""
"image-keyboard-response","72","1645677","0.0-3.0-4.0-1.0-1.19","5a08663b3b6dfc0001445abe","6662009ae78f21dd82fcd179","66620c13fcaa40d33955df42","null","","null","","","","","","","","./tasks/HMM-beads/Images/BlackBeadChoice.png","","","","","","","","","",""
"image-keyboard-response","73","1646191","0.0-3.0-4.0-1.0-2.19","5a08663b3b6dfc0001445abe","6662009ae78f21dd82fcd179","66620c13fcaa40d33955df42","null","","null","","","","","","","","./tasks/HMM-beads/Images/BlackBeadChoiceCorrect.png","","","","","","","","","",""
"image-keyboard-response","74","1647185","0.0-3.0-4.0-1.0-0.20","5a08663b3b6dfc0001445abe","6662009ae78f21dd82fcd179","66620c13fcaa40d33955df42","992","","f","","","","","","","","./tasks/HMM-beads/Images/NewTrialBC.png","practice","0","20","0","0","0","0","true","",""
"image-keyboard-response","75","1647497","0.0-3.0-4.0-1.0-1.20","5a08663b3b6dfc0001445abe","6662009ae78f21dd82fcd179","66620c13fcaa40d33955df42","null","","null","","","","","","","","./tasks/HMM-beads/Images/BlackBeadChoice.png","","","","","","","","","",""
"image-keyboard-response","76","1648012","0.0-3.0-4.0-1.0-2.20","5a08663b3b6dfc0001445abe","6662009ae78f21dd82fcd179","66620c13fcaa40d33955df42","null","","null","","","","","","","","./tasks/HMM-beads/Images/BlackBeadChoiceCorrect.png","","","","","","","","","",""
"image-keyboard-response","77","1648584","0.0-3.0-4.0-1.0-0.21","5a08663b3b6dfc0001445abe","6662009ae78f21dd82fcd179","66620c13fcaa40d33955df42","571","","f","","","","","","","","./tasks/HMM-beads/Images/NewTrialBC.png","practice","0","21","0","1","0","0","false","",""
"image-keyboard-response","78","1648887","0.0-3.0-4.0-1.0-1.21","5a08663b3b6dfc0001445abe","6662009ae78f21dd82fcd179","66620c13fcaa40d33955df42","null","","null","","","","","","","","./tasks/HMM-beads/Images/BlackBeadChoice.png","","","","","","","","","",""
"image-keyboard-response","79","1649401","0.0-3.0-4.0-1.0-2.21","5a08663b3b6dfc0001445abe","6662009ae78f21dd82fcd179","66620c13fcaa40d33955df42","null","","null","","","","","","","","./tasks/HMM-beads/Images/BlackBeadChoiceWrong.png","","","","","","","","","",""
"image-keyboard-response","80","1651958","0.0-3.0-4.0-1.0-0.22","5a08663b3b6dfc0001445abe","6662009ae78f21dd82fcd179","66620c13fcaa40d33955df42","2555","","j","","","","","","","","./tasks/HMM-beads/Images/NewTrialWC.png","practice","0","22","1","1","1","1","true","",""
"image-keyboard-response","81","1652269","0.0-3.0-4.0-1.0-1.22","5a08663b3b6dfc0001445abe","6662009ae78f21dd82fcd179","66620c13fcaa40d33955df42","null","","null","","","","","","","","./tasks/HMM-beads/Images/WhiteBeadChoice.png","","","","","","","","","",""
"image-keyboard-response","82","1652783","0.0-3.0-4.0-1.0-2.22","5a08663b3b6dfc0001445abe","6662009ae78f21dd82fcd179","66620c13fcaa40d33955df42","null","","null","","","","","","","","./tasks/HMM-beads/Images/WhiteBeadChoiceCorrect.png","","","","","","","","","",""
"image-keyboard-response","83","1653360","0.0-3.0-4.0-1.0-0.23","5a08663b3b6dfc0001445abe","6662009ae78f21dd82fcd179","66620c13fcaa40d33955df42","575","","j","","","","","","","","./tasks/HMM-beads/Images/NewTrialWC.png","practice","0","23","1","0","1","1","false","",""
"image-keyboard-response","84","1653674","0.0-3.0-4.0-1.0-1.23","5a08663b3b6dfc0001445abe","6662009ae78f21dd82fcd179","66620c13fcaa40d33955df42","null","","null","","","","","","","","./tasks/HMM-beads/Images/WhiteBeadChoice.png","","","","","","","","","",""
"image-keyboard-response","85","1654187","0.0-3.0-4.0-1.0-2.23","5a08663b3b6dfc0001445abe","6662009ae78f21dd82fcd179","66620c13fcaa40d33955df42","null","","null","","","","","","","","./tasks/HMM-beads/Images/WhiteBeadChoiceWrong.png","","","","","","","","","",""
"image-keyboard-response","86","1655655","0.0-3.0-4.0-1.0-0.24","5a08663b3b6dfc0001445abe","6662009ae78f21dd82fcd179","66620c13fcaa40d33955df42","1466","","j","","","","","","","","./tasks/HMM-beads/Images/NewTrialBC.png","practice","0","24","1","1","0","1","true","",""
"image-keyboard-response","87","1655964","0.0-3.0-4.0-1.0-1.24","5a08663b3b6dfc0001445abe","6662009ae78f21dd82fcd179","66620c13fcaa40d33955df42","null","","null","","","","","","","","./tasks/HMM-beads/Images/WhiteBeadChoice.png","","","","","","","","","",""
"image-keyboard-response","88","1656479","0.0-3.0-4.0-1.0-2.24","5a08663b3b6dfc0001445abe","6662009ae78f21dd82fcd179","66620c13fcaa40d33955df42","null","","null","","","","","","","","./tasks/HMM-beads/Images/WhiteBeadChoiceCorrect.png","","","","","","","","","",""
"image-keyboard-response","89","1657123","0.0-3.0-4.0-1.0-0.25","5a08663b3b6dfc0001445abe","6662009ae78f21dd82fcd179","66620c13fcaa40d33955df42","642","","j","","","","","","","","./tasks/HMM-beads/Images/NewTrialWC.png","practice","0","25","1","1","1","1","true","",""
"image-keyboard-response","90","1657428","0.0-3.0-4.0-1.0-1.25","5a08663b3b6dfc0001445abe","6662009ae78f21dd82fcd179","66620c13fcaa40d33955df42","null","","null","","","","","","","","./tasks/HMM-beads/Images/WhiteBeadChoice.png","","","","","","","","","",""
"image-keyboard-response","91","1657943","0.0-3.0-4.0-1.0-2.25","5a08663b3b6dfc0001445abe","6662009ae78f21dd82fcd179","66620c13fcaa40d33955df42","null","","null","","","","","","","","./tasks/HMM-beads/Images/WhiteBeadChoiceCorrect.png","","","","","","","","","",""
"image-keyboard-response","92","1658651","0.0-3.0-4.0-1.0-0.26","5a08663b3b6dfc0001445abe","6662009ae78f21dd82fcd179","66620c13fcaa40d33955df42","707","","j","","","","","","","","./tasks/HMM-beads/Images/NewTrialWC.png","practice","0","26","1","1","1","1","true","",""
"image-keyboard-response","93","1658959","0.0-3.0-4.0-1.0-1.26","5a08663b3b6dfc0001445abe","6662009ae78f21dd82fcd179","66620c13fcaa40d33955df42","null","","null","","","","","","","","./tasks/HMM-beads/Images/WhiteBeadChoice.png","","","","","","","","","",""
"image-keyboard-response","94","1659471","0.0-3.0-4.0-1.0-2.26","5a08663b3b6dfc0001445abe","6662009ae78f21dd82fcd179","66620c13fcaa40d33955df42","null","","null","","","","","","","","./tasks/HMM-beads/Images/WhiteBeadChoiceCorrect.png","","","","","","","","","",""
"image-keyboard-response","95","1660078","0.0-3.0-4.0-1.0-0.27","5a08663b3b6dfc0001445abe","6662009ae78f21dd82fcd179","66620c13fcaa40d33955df42","605","","j","","","","","","","","./tasks/HMM-beads/Images/NewTrialWC.png","practice","0","27","1","1","1","1","true","",""
"image-keyboard-response","96","1660389","0.0-3.0-4.0-1.0-1.27","5a08663b3b6dfc0001445abe","6662009ae78f21dd82fcd179","66620c13fcaa40d33955df42","null","","null","","","","","","","","./tasks/HMM-beads/Images/WhiteBeadChoice.png","","","","","","","","","",""
"image-keyboard-response","97","1660906","0.0-3.0-4.0-1.0-2.27","5a08663b3b6dfc0001445abe","6662009ae78f21dd82fcd179","66620c13fcaa40d33955df42","null","","null","","","","","","","","./tasks/HMM-beads/Images/WhiteBeadChoiceCorrect.png","","","","","","","","","",""
"image-keyboard-response","98","1661296","0.0-3.0-4.0-1.0-0.28","5a08663b3b6dfc0001445abe","6662009ae78f21dd82fcd179","66620c13fcaa40d33955df42","389","","j","","","","","","","","./tasks/HMM-beads/Images/NewTrialWC.png","practice","0","28","1","0","1","1","false","",""
"image-keyboard-response","99","1661604","0.0-3.0-4.0-1.0-1.28","5a08663b3b6dfc0001445abe","6662009ae78f21dd82fcd179","66620c13fcaa40d33955df42","null","","null","","","","","","","","./tasks/HMM-beads/Images/WhiteBeadChoice.png","","","","","","","","","",""
"image-keyboard-response","100","1662118","0.0-3.0-4.0-1.0-2.28","5a08663b3b6dfc0001445abe","6662009ae78f21dd82fcd179","66620c13fcaa40d33955df42","null","","null","","","","","","","","./tasks/HMM-beads/Images/WhiteBeadChoiceWrong.png","","","","","","","","","",""
"image-keyboard-response","101","1663888","0.0-3.0-4.0-1.0-0.29","5a08663b3b6dfc0001445abe","6662009ae78f21dd82fcd179","66620c13fcaa40d33955df42","1768","","j","","","","","","","","./tasks/HMM-beads/Images/NewTrialBC.png","practice","0","29","1","1","0","1","true","",""
"image-keyboard-response","102","1664205","0.0-3.0-4.0-1.0-1.29","5a08663b3b6dfc0001445abe","6662009ae78f21dd82fcd179","66620c13fcaa40d33955df42","null","","null","","","","","","","","./tasks/HMM-beads/Images/WhiteBeadChoice.png","","","","","","","","","",""
"image-keyboard-response","103","1664719","0.0-3.0-4.0-1.0-2.29","5a08663b3b6dfc0001445abe","6662009ae78f21dd82fcd179","66620c13fcaa40d33955df42","null","","null","","","","","","","","./tasks/HMM-beads/Images/WhiteBeadChoiceCorrect.png","","","","","","","","","",""
"image-keyboard-response","104","1665418","0.0-3.0-4.0-1.0-0.30","5a08663b3b6dfc0001445abe","6662009ae78f21dd82fcd179","66620c13fcaa40d33955df42","697","","j","","","","","","","","./tasks/HMM-beads/Images/NewTrialWC.png","practice","0","30","1","0","1","1","false","",""
"image-keyboard-response","105","1665732","0.0-3.0-4.0-1.0-1.30","5a08663b3b6dfc0001445abe","6662009ae78f21dd82fcd179","66620c13fcaa40d33955df42","null","","null","","","","","","","","./tasks/HMM-beads/Images/WhiteBeadChoice.png","","","","","","","","","",""
"image-keyboard-response","106","1666246","0.0-3.0-4.0-1.0-2.30","5a08663b3b6dfc0001445abe","6662009ae78f21dd82fcd179","66620c13fcaa40d33955df42","null","","null","","","","","","","","./tasks/HMM-beads/Images/WhiteBeadChoiceWrong.png","","","","","","","","","",""
"image-keyboard-response","107","1667660","0.0-3.0-4.0-1.0-0.31","5a08663b3b6dfc0001445abe","6662009ae78f21dd82fcd179","66620c13fcaa40d33955df42","1412","","f","","","","","","","","./tasks/HMM-beads/Images/NewTrialBC.png","practice","0","31","1","1","0","0","false","",""
"image-keyboard-response","108","1667975","0.0-3.0-4.0-1.0-1.31","5a08663b3b6dfc0001445abe","6662009ae78f21dd82fcd179","66620c13fcaa40d33955df42","null","","null","","","","","","","","./tasks/HMM-beads/Images/BlackBeadChoice.png","","","","","","","","","",""
"image-keyboard-response","109","1668492","0.0-3.0-4.0-1.0-2.31","5a08663b3b6dfc0001445abe","6662009ae78f21dd82fcd179","66620c13fcaa40d33955df42","null","","null","","","","","","","","./tasks/HMM-beads/Images/BlackBeadChoiceWrong.png","","","","","","","","","",""
"image-keyboard-response","110","1669429","0.0-3.0-4.0-1.0-0.32","5a08663b3b6dfc0001445abe","6662009ae78f21dd82fcd179","66620c13fcaa40d33955df42","935","","f","","","","","","","","./tasks/HMM-beads/Images/NewTrialWC.png","practice","0","32","1","1","1","0","false","",""
"image-keyboard-response","111","1669733","0.0-3.0-4.0-1.0-1.32","5a08663b3b6dfc0001445abe","6662009ae78f21dd82fcd179","66620c13fcaa40d33955df42","null","","null","","","","","","","","./tasks/HMM-beads/Images/BlackBeadChoice.png","","","","","","","","","",""
"image-keyboard-response","112","1670248","0.0-3.0-4.0-1.0-2.32","5a08663b3b6dfc0001445abe","6662009ae78f21dd82fcd179","66620c13fcaa40d33955df42","null","","null","","","","","","","","./tasks/HMM-beads/Images/BlackBeadChoiceWrong.png","","","","","","","","","",""
"image-keyboard-response","113","1670643","0.0-3.0-4.0-1.0-0.33","5a08663b3b6dfc0001445abe","6662009ae78f21dd82fcd179","66620c13fcaa40d33955df42","394","","j","","","","","","","","./tasks/HMM-beads/Images/NewTrialWC.png","practice","0","33","1","1","1","1","true","",""
"image-keyboard-response","114","1670948","0.0-3.0-4.0-1.0-1.33","5a08663b3b6dfc0001445abe","6662009ae78f21dd82fcd179","66620c13fcaa40d33955df42","null","","null","","","","","","","","./tasks/HMM-beads/Images/WhiteBeadChoice.png","","","","","","","","","",""
"image-keyboard-response","115","1671463","0.0-3.0-4.0-1.0-2.33","5a08663b3b6dfc0001445abe","6662009ae78f21dd82fcd179","66620c13fcaa40d33955df42","null","","null","","","","","","","","./tasks/HMM-beads/Images/WhiteBeadChoiceCorrect.png","","","","","","","","","",""
"image-keyboard-response","116","1671809","0.0-3.0-4.0-1.0-0.34","5a08663b3b6dfc0001445abe","6662009ae78f21dd82fcd179","66620c13fcaa40d33955df42","345","","j","","","","","","","","./tasks/HMM-beads/Images/NewTrialWC.png","practice","0","34","1","1","1","1","true","",""
"image-keyboard-response","117","1672116","0.0-3.0-4.0-1.0-1.34","5a08663b3b6dfc0001445abe","6662009ae78f21dd82fcd179","66620c13fcaa40d33955df42","null","","null","","","","","","","","./tasks/HMM-beads/Images/WhiteBeadChoice.png","","","","","","","","","",""
"image-keyboard-response","118","1672630","0.0-3.0-4.0-1.0-2.34","5a08663b3b6dfc0001445abe","6662009ae78f21dd82fcd179","66620c13fcaa40d33955df42","null","","null","","","","","","","","./tasks/HMM-beads/Images/WhiteBeadChoiceCorrect.png","","","","","","","","","",""
"image-keyboard-response","119","1673035","0.0-3.0-4.0-1.0-0.35","5a08663b3b6dfc0001445abe","6662009ae78f21dd82fcd179","66620c13fcaa40d33955df42","404","","j","","","","","","","","./tasks/HMM-beads/Images/NewTrialWC.png","practice","0","35","1","1","1","1","true","",""
"image-keyboard-response","120","1673346","0.0-3.0-4.0-1.0-1.35","5a08663b3b6dfc0001445abe","6662009ae78f21dd82fcd179","66620c13fcaa40d33955df42","null","","null","","","","","","","","./tasks/HMM-beads/Images/WhiteBeadChoice.png","","","","","","","","","",""
"image-keyboard-response","121","1673856","0.0-3.0-4.0-1.0-2.35","5a08663b3b6dfc0001445abe","6662009ae78f21dd82fcd179","66620c13fcaa40d33955df42","null","","null","","","","","","","","./tasks/HMM-beads/Images/WhiteBeadChoiceCorrect.png","","","","","","","","","",""
"image-keyboard-response","122","1674286","0.0-3.0-4.0-1.0-0.36","5a08663b3b6dfc0001445abe","6662009ae78f21dd82fcd179","66620c13fcaa40d33955df42","429","","j","","","","","","","","./tasks/HMM-beads/Images/NewTrialWC.png","practice","0","36","1","0","1","1","false","",""
"image-keyboard-response","123","1674603","0.0-3.0-4.0-1.0-1.36","5a08663b3b6dfc0001445abe","6662009ae78f21dd82fcd179","66620c13fcaa40d33955df42","null","","null","","","","","","","","./tasks/HMM-beads/Images/WhiteBeadChoice.png","","","","","","","","","",""
"image-keyboard-response","124","1675117","0.0-3.0-4.0-1.0-2.36","5a08663b3b6dfc0001445abe","6662009ae78f21dd82fcd179","66620c13fcaa40d33955df42","null","","null","","","","","","","","./tasks/HMM-beads/Images/WhiteBeadChoiceWrong.png","","","","","","","","","",""
"image-keyboard-response","125","1675895","0.0-3.0-4.0-1.0-0.37","5a08663b3b6dfc0001445abe","6662009ae78f21dd82fcd179","66620c13fcaa40d33955df42","776","","j","","","","","","","","./tasks/HMM-beads/Images/NewTrialBC.png","practice","0","37","1","1","0","1","true","",""
"image-keyboard-response","126","1676207","0.0-3.0-4.0-1.0-1.37","5a08663b3b6dfc0001445abe","6662009ae78f21dd82fcd179","66620c13fcaa40d33955df42","null","","null","","","","","","","","./tasks/HMM-beads/Images/WhiteBeadChoice.png","","","","","","","","","",""
"image-keyboard-response","127","1676723","0.0-3.0-4.0-1.0-2.37","5a08663b3b6dfc0001445abe","6662009ae78f21dd82fcd179","66620c13fcaa40d33955df42","null","","null","","","","","","","","./tasks/HMM-beads/Images/WhiteBeadChoiceCorrect.png","","","","","","","","","",""
"image-keyboard-response","128","1677374","0.0-3.0-4.0-1.0-0.38","5a08663b3b6dfc0001445abe","6662009ae78f21dd82fcd179","66620c13fcaa40d33955df42","651","","j","","","","","","","","./tasks/HMM-beads/Images/NewTrialWC.png","practice","0","38","1","1","1","1","true","",""
"image-keyboard-response","129","1677689","0.0-3.0-4.0-1.0-1.38","5a08663b3b6dfc0001445abe","6662009ae78f21dd82fcd179","66620c13fcaa40d33955df42","null","","null","","","","","","","","./tasks/HMM-beads/Images/WhiteBeadChoice.png","","","","","","","","","",""
"image-keyboard-response","130","1678203","0.0-3.0-4.0-1.0-2.38","5a08663b3b6dfc0001445abe","6662009ae78f21dd82fcd179","66620c13fcaa40d33955df42","null","","null","","","","","","","","./tasks/HMM-beads/Images/WhiteBeadChoiceCorrect.png","","","","","","","","","",""
"image-keyboard-response","131","1678698","0.0-3.0-4.0-1.0-0.39","5a08663b3b6dfc0001445abe","6662009ae78f21dd82fcd179","66620c13fcaa40d33955df42","494","","j","","","","","","","","./tasks/HMM-beads/Images/NewTrialWC.png","practice","0","39","1","1","1","1","true","",""
"image-keyboard-response","132","1679002","0.0-3.0-4.0-1.0-1.39","5a08663b3b6dfc0001445abe","6662009ae78f21dd82fcd179","66620c13fcaa40d33955df42","null","","null","","","","","","","","./tasks/HMM-beads/Images/WhiteBeadChoice.png","","","","","","","","","",""
"image-keyboard-response","133","1679513","0.0-3.0-4.0-1.0-2.39","5a08663b3b6dfc0001445abe","6662009ae78f21dd82fcd179","66620c13fcaa40d33955df42","null","","null","","","","","","","","./tasks/HMM-beads/Images/WhiteBeadChoiceCorrect.png","","","","","","","","","",""
"html-keyboard-response","134","1696085","0.0-3.0-4.0-2.0","5a08663b3b6dfc0001445abe","6662009ae78f21dd82fcd179","66620c13fcaa40d33955df42","16570",""," ","","","","","","","","","","","","","","","","","",""
"instructions","135","1740339","0.0-3.0-5.0","5a08663b3b6dfc0001445abe","6662009ae78f21dd82fcd179","66620c13fcaa40d33955df42","44252","","","","[{""page_index"":0,""viewing_time"":40694},{""page_index"":1,""viewing_time"":3558}]","","","","","","","","","","","","","","","",""
"html-keyboard-response","136","1743443","0.0-3.0-6.0-0.0","5a08663b3b6dfc0001445abe","6662009ae78f21dd82fcd179","66620c13fcaa40d33955df42","3104",""," ","","","","","","","","<div align=center>In this block, there will be a <b>1% chance</b> that the jar on the next trial will be different from the jar on the current trial.<br><br></div>","","","","","","","","","",""
"image-keyboard-response","137","1746687","0.0-3.0-6.0-1.0-0.0","5a08663b3b6dfc0001445abe","6662009ae78f21dd82fcd179","66620c13fcaa40d33955df42","3242","","f","","","","","","","","./tasks/HMM-beads/Images/NoChoice.png","lowH","1","0","1","0","9","0","true","",""
"image-keyboard-response","138","1747004","0.0-3.0-6.0-1.0-1.0","5a08663b3b6dfc0001445abe","6662009ae78f21dd82fcd179","66620c13fcaa40d33955df42","null","","null","","","","","","","","./tasks/HMM-beads/Images/BlackBeadChoice.png","","","","","","","","","",""
"image-keyboard-response","139","1747517","0.0-3.0-6.0-1.0-2.0","5a08663b3b6dfc0001445abe","6662009ae78f21dd82fcd179","66620c13fcaa40d33955df42","null","","null","","","","","","","","./tasks/HMM-beads/Images/BlackBeadChoiceCorrect.png","","","","","","","","","",""
"image-keyboard-response","140","1748126","0.0-3.0-6.0-1.0-0.1","5a08663b3b6dfc0001445abe","6662009ae78f21dd82fcd179","66620c13fcaa40d33955df42","607","","f","","","","","","","","./tasks/HMM-beads/Images/NewTrialBC.png","lowH","1","1","1","1","0","0","false","",""
"image-keyboard-response","141","1748438","0.0-3.0-6.0-1.0-1.1","5a08663b3b6dfc0001445abe","6662009ae78f21dd82fcd179","66620c13fcaa40d33955df42","null","","null","","","","","","","","./tasks/HMM-beads/Images/BlackBeadChoice.png","","","","","","","","","",""
"image-keyboard-response","142","1748940","0.0-3.0-6.0-1.0-2.1","5a08663b3b6dfc0001445abe","6662009ae78f21dd82fcd179","66620c13fcaa40d33955df42","null","","null","","","","","","","","./tasks/HMM-beads/Images/BlackBeadChoiceWrong.png","","","","","","","","","",""
"image-keyboard-response","143","1750225","0.0-3.0-6.0-1.0-0.2","5a08663b3b6dfc0001445abe","6662009ae78f21dd82fcd179","66620c13fcaa40d33955df42","1284","","j","","","","","","","","./tasks/HMM-beads/Images/NewTrialWC.png","lowH","1","2","1","1","1","1","true","",""
"image-keyboard-response","144","1750529","0.0-3.0-6.0-1.0-1.2","5a08663b3b6dfc0001445abe","6662009ae78f21dd82fcd179","66620c13fcaa40d33955df42","null","","null","","","","","","","","./tasks/HMM-beads/Images/WhiteBeadChoice.png","","","","","","","","","",""
"image-keyboard-response","145","1751041","0.0-3.0-6.0-1.0-2.2","5a08663b3b6dfc0001445abe","6662009ae78f21dd82fcd179","66620c13fcaa40d33955df42","null","","null","","","","","","","","./tasks/HMM-beads/Images/WhiteBeadChoiceCorrect.png","","","","","","","","","",""
"image-keyboard-response","146","1751271","0.0-3.0-6.0-1.0-0.3","5a08663b3b6dfc0001445abe","6662009ae78f21dd82fcd179","66620c13fcaa40d33955df42","229","","j","","","","","","","","./tasks/HMM-beads/Images/NewTrialWC.png","lowH","1","3","1","1","1","1","true","",""
"image-keyboard-response","147","1751585","0.0-3.0-6.0-1.0-1.3","5a08663b3b6dfc0001445abe","6662009ae78f21dd82fcd179","66620c13fcaa40d33955df42","null","","null","","","","","","","","./tasks/HMM-beads/Images/WhiteBeadChoice.png","","","","","","","","","",""
"image-keyboard-response","148","1752099","0.0-3.0-6.0-1.0-2.3","5a08663b3b6dfc0001445abe","6662009ae78f21dd82fcd179","66620c13fcaa40d33955df42","null","","null","","","","","","","","./tasks/HMM-beads/Images/WhiteBeadChoiceCorrect.png","","","","","","","","","",""
"image-keyboard-response","149","1752478","0.0-3.0-6.0-1.0-0.4","5a08663b3b6dfc0001445abe","6662009ae78f21dd82fcd179","66620c13fcaa40d33955df42","378","","j","","","","","","","","./tasks/HMM-beads/Images/NewTrialWC.png","lowH","1","4","1","1","1","1","true","",""
"image-keyboard-response","150","1752782","0.0-3.0-6.0-1.0-1.4","5a08663b3b6dfc0001445abe","6662009ae78f21dd82fcd179","66620c13fcaa40d33955df42","null","","null","","","","","","","","./tasks/HMM-beads/Images/WhiteBeadChoice.png","","","","","","","","","",""
"image-keyboard-response","151","1753295","0.0-3.0-6.0-1.0-2.4","5a08663b3b6dfc0001445abe","6662009ae78f21dd82fcd179","66620c13fcaa40d33955df42","null","","null","","","","","","","","./tasks/HMM-beads/Images/WhiteBeadChoiceCorrect.png","","","","","","","","","",""
"image-keyboard-response","152","1753583","0.0-3.0-6.0-1.0-0.5","5a08663b3b6dfc0001445abe","6662009ae78f21dd82fcd179","66620c13fcaa40d33955df42","286","","j","","","","","","","","./tasks/HMM-beads/Images/NewTrialWC.png","lowH","1","5","1","1","1","1","true","",""
"image-keyboard-response","153","1753889","0.0-3.0-6.0-1.0-1.5","5a08663b3b6dfc0001445abe","6662009ae78f21dd82fcd179","66620c13fcaa40d33955df42","null","","null","","","","","","","","./tasks/HMM-beads/Images/WhiteBeadChoice.png","","","","","","","","","",""
"image-keyboard-response","154","1754392","0.0-3.0-6.0-1.0-2.5","5a08663b3b6dfc0001445abe","6662009ae78f21dd82fcd179","66620c13fcaa40d33955df42","null","","null","","","","","","","","./tasks/HMM-beads/Images/WhiteBeadChoiceCorrect.png","","","","","","","","","",""
"image-keyboard-response","155","1755016","0.0-3.0-6.0-1.0-0.6","5a08663b3b6dfc0001445abe","6662009ae78f21dd82fcd179","66620c13fcaa40d33955df42","623","","j","","","","","","","","./tasks/HMM-beads/Images/NewTrialWC.png","lowH","1","6","1","0","1","1","false","",""
"image-keyboard-response","156","1755322","0.0-3.0-6.0-1.0-1.6","5a08663b3b6dfc0001445abe","6662009ae78f21dd82fcd179","66620c13fcaa40d33955df42","null","","null","","","","","","","","./tasks/HMM-beads/Images/WhiteBeadChoice.png","","","","","","","","","",""
"image-keyboard-response","157","1755839","0.0-3.0-6.0-1.0-2.6","5a08663b3b6dfc0001445abe","6662009ae78f21dd82fcd179","66620c13fcaa40d33955df42","null","","null","","","","","","","","./tasks/HMM-beads/Images/WhiteBeadChoiceWrong.png","","","","","","","","","",""
"image-keyboard-response","158","1756880","0.0-3.0-6.0-1.0-0.7","5a08663b3b6dfc0001445abe","6662009ae78f21dd82fcd179","66620c13fcaa40d33955df42","1040","","j","","","","","","","","./tasks/HMM-beads/Images/NewTrialBC.png","lowH","1","7","1","1","0","1","true","",""
"image-keyboard-response","159","1757193","0.0-3.0-6.0-1.0-1.7","5a08663b3b6dfc0001445abe","6662009ae78f21dd82fcd179","66620c13fcaa40d33955df42","null","","null","","","","","","","","./tasks/HMM-beads/Images/WhiteBeadChoice.png","","","","","","","","","",""
"image-keyboard-response","160","1757709","0.0-3.0-6.0-1.0-2.7","5a08663b3b6dfc0001445abe","6662009ae78f21dd82fcd179","66620c13fcaa40d33955df42","null","","null","","","","","","","","./tasks/HMM-beads/Images/WhiteBeadChoiceCorrect.png","","","","","","","","","",""
"image-keyboard-response","161","1758130","0.0-3.0-6.0-1.0-0.8","5a08663b3b6dfc0001445abe","6662009ae78f21dd82fcd179","66620c13fcaa40d33955df42","419","","j","","","","","","","","./tasks/HMM-beads/Images/NewTrialWC.png","lowH","1","8","1","1","1","1","true","",""
"image-keyboard-response","162","1758441","0.0-3.0-6.0-1.0-1.8","5a08663b3b6dfc0001445abe","6662009ae78f21dd82fcd179","66620c13fcaa40d33955df42","null","","null","","","","","","","","./tasks/HMM-beads/Images/WhiteBeadChoice.png","","","","","","","","","",""
"image-keyboard-response","163","1758952","0.0-3.0-6.0-1.0-2.8","5a08663b3b6dfc0001445abe","6662009ae78f21dd82fcd179","66620c13fcaa40d33955df42","null","","null","","","","","","","","./tasks/HMM-beads/Images/WhiteBeadChoiceCorrect.png","","","","","","","","","",""
"image-keyboard-response","164","1760219","0.0-3.0-6.0-1.0-0.9","5a08663b3b6dfc0001445abe","6662009ae78f21dd82fcd179","66620c13fcaa40d33955df42","1265","","j","","","","","","","","./tasks/HMM-beads/Images/NewTrialWC.png","lowH","1","9","1","1","1","1","true","",""
"image-keyboard-response","165","1760529","0.0-3.0-6.0-1.0-1.9","5a08663b3b6dfc0001445abe","6662009ae78f21dd82fcd179","66620c13fcaa40d33955df42","null","","null","","","","","","","","./tasks/HMM-beads/Images/WhiteBeadChoice.png","","","","","","","","","",""
"image-keyboard-response","166","1761044","0.0-3.0-6.0-1.0-2.9","5a08663b3b6dfc0001445abe","6662009ae78f21dd82fcd179","66620c13fcaa40d33955df42","null","","null","","","","","","","","./tasks/HMM-beads/Images/WhiteBeadChoiceCorrect.png","","","","","","","","","",""
"image-keyboard-response","167","1761797","0.0-3.0-6.0-1.0-0.10","5a08663b3b6dfc0001445abe","6662009ae78f21dd82fcd179","66620c13fcaa40d33955df42","751","","j","","","","","","","","./tasks/HMM-beads/Images/NewTrialWC.png","lowH","1","10","1","1","1","1","true","",""
"image-keyboard-response","168","1762102","0.0-3.0-6.0-1.0-1.10","5a08663b3b6dfc0001445abe","6662009ae78f21dd82fcd179","66620c13fcaa40d33955df42","null","","null","","","","","","","","./tasks/HMM-beads/Images/WhiteBeadChoice.png","","","","","","","","","",""
"image-keyboard-response","169","1762618","0.0-3.0-6.0-1.0-2.10","5a08663b3b6dfc0001445abe","6662009ae78f21dd82fcd179","66620c13fcaa40d33955df42","null","","null","","","","","","","","./tasks/HMM-beads/Images/WhiteBeadChoiceCorrect.png","","","","","","","","","",""
"image-keyboard-response","170","1763121","0.0-3.0-6.0-1.0-0.11","5a08663b3b6dfc0001445abe","6662009ae78f21dd82fcd179","66620c13fcaa40d33955df42","502","","j","","","","","","","","./tasks/HMM-beads/Images/NewTrialWC.png","lowH","1","11","1","1","1","1","true","",""
"image-keyboard-response","171","1763429","0.0-3.0-6.0-1.0-1.11","5a08663b3b6dfc0001445abe","6662009ae78f21dd82fcd179","66620c13fcaa40d33955df42","null","","null","","","","","","","","./tasks/HMM-beads/Images/WhiteBeadChoice.png","","","","","","","","","",""
"image-keyboard-response","172","1763942","0.0-3.0-6.0-1.0-2.11","5a08663b3b6dfc0001445abe","6662009ae78f21dd82fcd179","66620c13fcaa40d33955df42","null","","null","","","","","","","","./tasks/HMM-beads/Images/WhiteBeadChoiceCorrect.png","","","","","","","","","",""
"image-keyboard-response","173","1764325","0.0-3.0-6.0-1.0-0.12","5a08663b3b6dfc0001445abe","6662009ae78f21dd82fcd179","66620c13fcaa40d33955df42","382","","j","","","","","","","","./tasks/HMM-beads/Images/NewTrialWC.png","lowH","1","12","1","1","1","1","true","",""
"image-keyboard-response","174","1764629","0.0-3.0-6.0-1.0-1.12","5a08663b3b6dfc0001445abe","6662009ae78f21dd82fcd179","66620c13fcaa40d33955df42","null","","null","","","","","","","","./tasks/HMM-beads/Images/WhiteBeadChoice.png","","","","","","","","","",""
"image-keyboard-response","175","1765132","0.0-3.0-6.0-1.0-2.12","5a08663b3b6dfc0001445abe","6662009ae78f21dd82fcd179","66620c13fcaa40d33955df42","null","","null","","","","","","","","./tasks/HMM-beads/Images/WhiteBeadChoiceCorrect.png","","","","","","","","","",""
"image-keyboard-response","176","1765499","0.0-3.0-6.0-1.0-0.13","5a08663b3b6dfc0001445abe","6662009ae78f21dd82fcd179","66620c13fcaa40d33955df42","366","","j","","","","","","","","./tasks/HMM-beads/Images/NewTrialWC.png","lowH","1","13","1","0","1","1","false","",""
"image-keyboard-response","177","1765806","0.0-3.0-6.0-1.0-1.13","5a08663b3b6dfc0001445abe","6662009ae78f21dd82fcd179","66620c13fcaa40d33955df42","null","","null","","","","","","","","./tasks/HMM-beads/Images/WhiteBeadChoice.png","","","","","","","","","",""
"image-keyboard-response","178","1766321","0.0-3.0-6.0-1.0-2.13","5a08663b3b6dfc0001445abe","6662009ae78f21dd82fcd179","66620c13fcaa40d33955df42","null","","null","","","","","","","","./tasks/HMM-beads/Images/WhiteBeadChoiceWrong.png","","","","","","","","","",""
"image-keyboard-response","179","1766719","0.0-3.0-6.0-1.0-0.14","5a08663b3b6dfc0001445abe","6662009ae78f21dd82fcd179","66620c13fcaa40d33955df42","397","","j","","","","","","","","./tasks/HMM-beads/Images/NewTrialBC.png","lowH","1","14","1","0","0","1","false","",""
"image-keyboard-response","180","1767035","0.0-3.0-6.0-1.0-1.14","5a08663b3b6dfc0001445abe","6662009ae78f21dd82fcd179","66620c13fcaa40d33955df42","null","","null","","","","","","","","./tasks/HMM-beads/Images/WhiteBeadChoice.png","","","","","","","","","",""
"image-keyboard-response","181","1767550","0.0-3.0-6.0-1.0-2.14","5a08663b3b6dfc0001445abe","6662009ae78f21dd82fcd179","66620c13fcaa40d33955df42","null","","null","","","","","","","","./tasks/HMM-beads/Images/WhiteBeadChoiceWrong.png","","","","","","","","","",""
"image-keyboard-response","182","1767838","0.0-3.0-6.0-1.0-0.15","5a08663b3b6dfc0001445abe","6662009ae78f21dd82fcd179","66620c13fcaa40d33955df42","287","","f","","","","","","","","./tasks/HMM-beads/Images/NewTrialBC.png","lowH","1","15","1","1","0","0","false","",""
"image-keyboard-response","183","1768144","0.0-3.0-6.0-1.0-1.15","5a08663b3b6dfc0001445abe","6662009ae78f21dd82fcd179","66620c13fcaa40d33955df42","null","","null","","","","","","","","./tasks/HMM-beads/Images/BlackBeadChoice.png","","","","","","","","","",""
"image-keyboard-response","184","1768661","0.0-3.0-6.0-1.0-2.15","5a08663b3b6dfc0001445abe","6662009ae78f21dd82fcd179","66620c13fcaa40d33955df42","null","","null","","","","","","","","./tasks/HMM-beads/Images/BlackBeadChoiceWrong.png","","","","","","","","","",""
"image-keyboard-response","185","1769123","0.0-3.0-6.0-1.0-0.16","5a08663b3b6dfc0001445abe","6662009ae78f21dd82fcd179","66620c13fcaa40d33955df42","460","","f","","","","","","","","./tasks/HMM-beads/Images/NewTrialWC.png","lowH","1","16","1","1","1","0","false","",""
"image-keyboard-response","186","1769425","0.0-3.0-6.0-1.0-1.16","5a08663b3b6dfc0001445abe","6662009ae78f21dd82fcd179","66620c13fcaa40d33955df42","null","","null","","","","","","","","./tasks/HMM-beads/Images/BlackBeadChoice.png","","","","","","","","","",""
"image-keyboard-response","187","1769936","0.0-3.0-6.0-1.0-2.16","5a08663b3b6dfc0001445abe","6662009ae78f21dd82fcd179","66620c13fcaa40d33955df42","null","","null","","","","","","","","./tasks/HMM-beads/Images/BlackBeadChoiceWrong.png","","","","","","","","","",""
"image-keyboard-response","188","1770048","0.0-3.0-6.0-1.0-0.17","5a08663b3b6dfc0001445abe","6662009ae78f21dd82fcd179","66620c13fcaa40d33955df42","111","","j","","","","","","","","./tasks/HMM-beads/Images/NewTrialWC.png","lowH","1","17","1","1","1","1","true","",""
"image-keyboard-response","189","1770357","0.0-3.0-6.0-1.0-1.17","5a08663b3b6dfc0001445abe","6662009ae78f21dd82fcd179","66620c13fcaa40d33955df42","null","","null","","","","","","","","./tasks/HMM-beads/Images/WhiteBeadChoice.png","","","","","","","","","",""
"image-keyboard-response","190","1770870","0.0-3.0-6.0-1.0-2.17","5a08663b3b6dfc0001445abe","6662009ae78f21dd82fcd179","66620c13fcaa40d33955df42","null","","null","","","","","","","","./tasks/HMM-beads/Images/WhiteBeadChoiceCorrect.png","","","","","","","","","",""
"image-keyboard-response","191","1771166","0.0-3.0-6.0-1.0-0.18","5a08663b3b6dfc0001445abe","6662009ae78f21dd82fcd179","66620c13fcaa40d33955df42","294","","j","","","","","","","","./tasks/HMM-beads/Images/NewTrialWC.png","lowH","1","18","1","1","1","1","true","",""
"image-keyboard-response","192","1771477","0.0-3.0-6.0-1.0-1.18","5a08663b3b6dfc0001445abe","6662009ae78f21dd82fcd179","66620c13fcaa40d33955df42","null","","null","","","","","","","","./tasks/HMM-beads/Images/WhiteBeadChoice.png","","","","","","","","","",""
"image-keyboard-response","193","1771990","0.0-3.0-6.0-1.0-2.18","5a08663b3b6dfc0001445abe","6662009ae78f21dd82fcd179","66620c13fcaa40d33955df42","null","","null","","","","","","","","./tasks/HMM-beads/Images/WhiteBeadChoiceCorrect.png","","","","","","","","","",""
"image-keyboard-response","194","1772207","0.0-3.0-6.0-1.0-0.19","5a08663b3b6dfc0001445abe","6662009ae78f21dd82fcd179","66620c13fcaa40d33955df42","215","","j","","","","","","","","./tasks/HMM-beads/Images/NewTrialWC.png","lowH","1","19","1","1","1","1","true","",""
"image-keyboard-response","195","1772518","0.0-3.0-6.0-1.0-1.19","5a08663b3b6dfc0001445abe","6662009ae78f21dd82fcd179","66620c13fcaa40d33955df42","null","","null","","","","","","","","./tasks/HMM-beads/Images/WhiteBeadChoice.png","","","","","","","","","",""
"image-keyboard-response","196","1773032","0.0-3.0-6.0-1.0-2.19","5a08663b3b6dfc0001445abe","6662009ae78f21dd82fcd179","66620c13fcaa40d33955df42","null","","null","","","","","","","","./tasks/HMM-beads/Images/WhiteBeadChoiceCorrect.png","","","","","","","","","",""
"image-keyboard-response","197","1773370","0.0-3.0-6.0-1.0-0.20","5a08663b3b6dfc0001445abe","6662009ae78f21dd82fcd179","66620c13fcaa40d33955df42","337","","j","","","","","","","","./tasks/HMM-beads/Images/NewTrialWC.png","lowH","1","20","1","1","1","1","true","",""
"image-keyboard-response","198","1773683","0.0-3.0-6.0-1.0-1.20","5a08663b3b6dfc0001445abe","6662009ae78f21dd82fcd179","66620c13fcaa40d33955df42","null","","null","","","","","","","","./tasks/HMM-beads/Images/WhiteBeadChoice.png","","","","","","","","","",""
"image-keyboard-response","199","1774198","0.0-3.0-6.0-1.0-2.20","5a08663b3b6dfc0001445abe","6662009ae78f21dd82fcd179","66620c13fcaa40d33955df42","null","","null","","","","","","","","./tasks/HMM-beads/Images/WhiteBeadChoiceCorrect.png","","","","","","","","","",""
"image-keyboard-response","200","1774699","0.0-3.0-6.0-1.0-0.21","5a08663b3b6dfc0001445abe","6662009ae78f21dd82fcd179","66620c13fcaa40d33955df42","500","","j","","","","","","","","./tasks/HMM-beads/Images/NewTrialWC.png","lowH","1","21","1","1","1","1","true","",""
"image-keyboard-response","201","1775009","0.0-3.0-6.0-1.0-1.21","5a08663b3b6dfc0001445abe","6662009ae78f21dd82fcd179","66620c13fcaa40d33955df42","null","","null","","","","","","","","./tasks/HMM-beads/Images/WhiteBeadChoice.png","","","","","","","","","",""
"image-keyboard-response","202","1775523","0.0-3.0-6.0-1.0-2.21","5a08663b3b6dfc0001445abe","6662009ae78f21dd82fcd179","66620c13fcaa40d33955df42","null","","null","","","","","","","","./tasks/HMM-beads/Images/WhiteBeadChoiceCorrect.png","","","","","","","","","",""
"image-keyboard-response","203","1775863","0.0-3.0-6.0-1.0-0.22","5a08663b3b6dfc0001445abe","6662009ae78f21dd82fcd179","66620c13fcaa40d33955df42","339","","j","","","","","","","","./tasks/HMM-beads/Images/NewTrialWC.png","lowH","1","22","1","1","1","1","true","",""
"image-keyboard-response","204","1776178","0.0-3.0-6.0-1.0-1.22","5a08663b3b6dfc0001445abe","6662009ae78f21dd82fcd179","66620c13fcaa40d33955df42","null","","null","","","","","","","","./tasks/HMM-beads/Images/WhiteBeadChoice.png","","","","","","","","","",""
"image-keyboard-response","205","1776693","0.0-3.0-6.0-1.0-2.22","5a08663b3b6dfc0001445abe","6662009ae78f21dd82fcd179","66620c13fcaa40d33955df42","null","","null","","","","","","","","./tasks/HMM-beads/Images/WhiteBeadChoiceCorrect.png","","","","","","","","","",""
"image-keyboard-response","206","1777143","0.0-3.0-6.0-1.0-0.23","5a08663b3b6dfc0001445abe","6662009ae78f21dd82fcd179","66620c13fcaa40d33955df42","448","","j","","","","","","","","./tasks/HMM-beads/Images/NewTrialWC.png","lowH","1","23","1","1","1","1","true","",""
"image-keyboard-response","207","1777459","0.0-3.0-6.0-1.0-1.23","5a08663b3b6dfc0001445abe","6662009ae78f21dd82fcd179","66620c13fcaa40d33955df42","null","","null","","","","","","","","./tasks/HMM-beads/Images/WhiteBeadChoice.png","","","","","","","","","",""
"image-keyboard-response","208","1777974","0.0-3.0-6.0-1.0-2.23","5a08663b3b6dfc0001445abe","6662009ae78f21dd82fcd179","66620c13fcaa40d33955df42","null","","null","","","","","","","","./tasks/HMM-beads/Images/WhiteBeadChoiceCorrect.png","","","","","","","","","",""
"image-keyboard-response","209","1778548","0.0-3.0-6.0-1.0-0.24","5a08663b3b6dfc0001445abe","6662009ae78f21dd82fcd179","66620c13fcaa40d33955df42","573","","j","","","","","","","","./tasks/HMM-beads/Images/NewTrialWC.png","lowH","1","24","1","0","1","1","false","",""
"image-keyboard-response","210","1778861","0.0-3.0-6.0-1.0-1.24","5a08663b3b6dfc0001445abe","6662009ae78f21dd82fcd179","66620c13fcaa40d33955df42","null","","null","","","","","","","","./tasks/HMM-beads/Images/WhiteBeadChoice.png","","","","","","","","","",""
"image-keyboard-response","211","1779374","0.0-3.0-6.0-1.0-2.24","5a08663b3b6dfc0001445abe","6662009ae78f21dd82fcd179","66620c13fcaa40d33955df42","null","","null","","","","","","","","./tasks/HMM-beads/Images/WhiteBeadChoiceWrong.png","","","","","","","","","",""
"image-keyboard-response","212","1780137","0.0-3.0-6.0-1.0-0.25","5a08663b3b6dfc0001445abe","6662009ae78f21dd82fcd179","66620c13fcaa40d33955df42","761","","j","","","","","","","","./tasks/HMM-beads/Images/NewTrialBC.png","lowH","1","25","1","1","0","1","true","",""
"image-keyboard-response","213","1780447","0.0-3.0-6.0-1.0-1.25","5a08663b3b6dfc0001445abe","6662009ae78f21dd82fcd179","66620c13fcaa40d33955df42","null","","null","","","","","","","","./tasks/HMM-beads/Images/WhiteBeadChoice.png","","","","","","","","","",""
"image-keyboard-response","214","1780962","0.0-3.0-6.0-1.0-2.25","5a08663b3b6dfc0001445abe","6662009ae78f21dd82fcd179","66620c13fcaa40d33955df42","null","","null","","","","","","","","./tasks/HMM-beads/Images/WhiteBeadChoiceCorrect.png","","","","","","","","","",""
"image-keyboard-response","215","1781072","0.0-3.0-6.0-1.0-0.26","5a08663b3b6dfc0001445abe","6662009ae78f21dd82fcd179","66620c13fcaa40d33955df42","109","","j","","","","","","","","./tasks/HMM-beads/Images/NewTrialWC.png","lowH","1","26","1","0","1","1","false","",""
"image-keyboard-response","216","1781382","0.0-3.0-6.0-1.0-1.26","5a08663b3b6dfc0001445abe","6662009ae78f21dd82fcd179","66620c13fcaa40d33955df42","null","","null","","","","","","","","./tasks/HMM-beads/Images/WhiteBeadChoice.png","","","","","","","","","",""
"image-keyboard-response","217","1781896","0.0-3.0-6.0-1.0-2.26","5a08663b3b6dfc0001445abe","6662009ae78f21dd82fcd179","66620c13fcaa40d33955df42","null","","null","","","","","","","","./tasks/HMM-beads/Images/WhiteBeadChoiceWrong.png","","","","","","","","","",""
"image-keyboard-response","218","1782899","0.0-3.0-6.0-1.0-0.27","5a08663b3b6dfc0001445abe","6662009ae78f21dd82fcd179","66620c13fcaa40d33955df42","1001","","f","","","","","","","","./tasks/HMM-beads/Images/NewTrialBC.png","lowH","1","27","1","1","0","0","false","",""
"image-keyboard-response","219","1783203","0.0-3.0-6.0-1.0-1.27","5a08663b3b6dfc0001445abe","6662009ae78f21dd82fcd179","66620c13fcaa40d33955df42","null","","null","","","","","","","","./tasks/HMM-beads/Images/BlackBeadChoice.png","","","","","","","","","",""
"image-keyboard-response","220","1783719","0.0-3.0-6.0-1.0-2.27","5a08663b3b6dfc0001445abe","6662009ae78f21dd82fcd179","66620c13fcaa40d33955df42","null","","null","","","","","","","","./tasks/HMM-beads/Images/BlackBeadChoiceWrong.png","","","","","","","","","",""
"image-keyboard-response","221","1783989","0.0-3.0-6.0-1.0-0.28","5a08663b3b6dfc0001445abe","6662009ae78f21dd82fcd179","66620c13fcaa40d33955df42","268","","j","","","","","","","","./tasks/HMM-beads/Images/NewTrialWC.png","lowH","1","28","1","1","1","1","true","",""
"image-keyboard-response","222","1784292","0.0-3.0-6.0-1.0-1.28","5a08663b3b6dfc0001445abe","6662009ae78f21dd82fcd179","66620c13fcaa40d33955df42","null","","null","","","","","","","","./tasks/HMM-beads/Images/WhiteBeadChoice.png","","","","","","","","","",""
"image-keyboard-response","223","1784807","0.0-3.0-6.0-1.0-2.28","5a08663b3b6dfc0001445abe","6662009ae78f21dd82fcd179","66620c13fcaa40d33955df42","null","","null","","","","","","","","./tasks/HMM-beads/Images/WhiteBeadChoiceCorrect.png","","","","","","","","","",""
"image-keyboard-response","224","1784878","0.0-3.0-6.0-1.0-0.29","5a08663b3b6dfc0001445abe","6662009ae78f21dd82fcd179","66620c13fcaa40d33955df42","70","","j","","","","","","","","./tasks/HMM-beads/Images/NewTrialWC.png","lowH","1","29","1","1","1","1","true","",""
"image-keyboard-response","225","1785180","0.0-3.0-6.0-1.0-1.29","5a08663b3b6dfc0001445abe","6662009ae78f21dd82fcd179","66620c13fcaa40d33955df42","null","","null","","","","","","","","./tasks/HMM-beads/Images/WhiteBeadChoice.png","","","","","","","","","",""
"image-keyboard-response","226","1785694","0.0-3.0-6.0-1.0-2.29","5a08663b3b6dfc0001445abe","6662009ae78f21dd82fcd179","66620c13fcaa40d33955df42","null","","null","","","","","","","","./tasks/HMM-beads/Images/WhiteBeadChoiceCorrect.png","","","","","","","","","",""
"image-keyboard-response","227","1785798","0.0-3.0-6.0-1.0-0.30","5a08663b3b6dfc0001445abe","6662009ae78f21dd82fcd179","66620c13fcaa40d33955df42","102","","j","","","","","","","","./tasks/HMM-beads/Images/NewTrialWC.png","lowH","1","30","1","1","1","1","true","",""
"image-keyboard-response","228","1786113","0.0-3.0-6.0-1.0-1.30","5a08663b3b6dfc0001445abe","6662009ae78f21dd82fcd179","66620c13fcaa40d33955df42","null","","null","","","","","","","","./tasks/HMM-beads/Images/WhiteBeadChoice.png","","","","","","","","","",""
"image-keyboard-response","229","1786626","0.0-3.0-6.0-1.0-2.30","5a08663b3b6dfc0001445abe","6662009ae78f21dd82fcd179","66620c13fcaa40d33955df42","null","","null","","","","","","","","./tasks/HMM-beads/Images/WhiteBeadChoiceCorrect.png","","","","","","","","","",""
"image-keyboard-response","230","1786637","0.0-3.0-6.0-1.0-0.31","5a08663b3b6dfc0001445abe","6662009ae78f21dd82fcd179","66620c13fcaa40d33955df42","9","","j","","","","","","","","./tasks/HMM-beads/Images/NewTrialWC.png","lowH","1","31","1","1","1","1","true","",""
"image-keyboard-response","231","1786953","0.0-3.0-6.0-1.0-1.31","5a08663b3b6dfc0001445abe","6662009ae78f21dd82fcd179","66620c13fcaa40d33955df42","null","","null","","","","","","","","./tasks/HMM-beads/Images/WhiteBeadChoice.png","","","","","","","","","",""
"image-keyboard-response","232","1787467","0.0-3.0-6.0-1.0-2.31","5a08663b3b6dfc0001445abe","6662009ae78f21dd82fcd179","66620c13fcaa40d33955df42","null","","null","","","","","","","","./tasks/HMM-beads/Images/WhiteBeadChoiceCorrect.png","","","","","","","","","",""
"image-keyboard-response","233","1787552","0.0-3.0-6.0-1.0-0.32","5a08663b3b6dfc0001445abe","6662009ae78f21dd82fcd179","66620c13fcaa40d33955df42","83","","j","","","","","","","","./tasks/HMM-beads/Images/NewTrialWC.png","lowH","1","32","1","1","1","1","true","",""
"image-keyboard-response","234","1787856","0.0-3.0-6.0-1.0-1.32","5a08663b3b6dfc0001445abe","6662009ae78f21dd82fcd179","66620c13fcaa40d33955df42","null","","null","","","","","","","","./tasks/HMM-beads/Images/WhiteBeadChoice.png","","","","","","","","","",""
"image-keyboard-response","235","1788358","0.0-3.0-6.0-1.0-2.32","5a08663b3b6dfc0001445abe","6662009ae78f21dd82fcd179","66620c13fcaa40d33955df42","null","","null","","","","","","","","./tasks/HMM-beads/Images/WhiteBeadChoiceCorrect.png","","","","","","","","","",""
"image-keyboard-response","236","1788521","0.0-3.0-6.0-1.0-0.33","5a08663b3b6dfc0001445abe","6662009ae78f21dd82fcd179","66620c13fcaa40d33955df42","161","","j","","","","","","","","./tasks/HMM-beads/Images/NewTrialWC.png","lowH","1","33","1","1","1","1","true","",""
"image-keyboard-response","237","1788823","0.0-3.0-6.0-1.0-1.33","5a08663b3b6dfc0001445abe","6662009ae78f21dd82fcd179","66620c13fcaa40d33955df42","null","","null","","","","","","","","./tasks/HMM-beads/Images/WhiteBeadChoice.png","","","","","","","","","",""
"image-keyboard-response","238","1789337","0.0-3.0-6.0-1.0-2.33","5a08663b3b6dfc0001445abe","6662009ae78f21dd82fcd179","66620c13fcaa40d33955df42","null","","null","","","","","","","","./tasks/HMM-beads/Images/WhiteBeadChoiceCorrect.png","","","","","","","","","",""
"image-keyboard-response","239","1789661","0.0-3.0-6.0-1.0-0.34","5a08663b3b6dfc0001445abe","6662009ae78f21dd82fcd179","66620c13fcaa40d33955df42","323","","j","","","","","","","","./tasks/HMM-beads/Images/NewTrialWC.png","lowH","1","34","1","1","1","1","true","",""
"image-keyboard-response","240","1789974","0.0-3.0-6.0-1.0-1.34","5a08663b3b6dfc0001445abe","6662009ae78f21dd82fcd179","66620c13fcaa40d33955df42","null","","null","","","","","","","","./tasks/HMM-beads/Images/WhiteBeadChoice.png","","","","","","","","","",""
"image-keyboard-response","241","1790487","0.0-3.0-6.0-1.0-2.34","5a08663b3b6dfc0001445abe","6662009ae78f21dd82fcd179","66620c13fcaa40d33955df42","null","","null","","","","","","","","./tasks/HMM-beads/Images/WhiteBeadChoiceCorrect.png","","","","","","","","","",""
"image-keyboard-response","242","1790622","0.0-3.0-6.0-1.0-0.35","5a08663b3b6dfc0001445abe","6662009ae78f21dd82fcd179","66620c13fcaa40d33955df42","133","","j","","","","","","","","./tasks/HMM-beads/Images/NewTrialWC.png","lowH","1","35","1","1","1","1","true","",""
"image-keyboard-response","243","1790940","0.0-3.0-6.0-1.0-1.35","5a08663b3b6dfc0001445abe","6662009ae78f21dd82fcd179","66620c13fcaa40d33955df42","null","","null","","","","","","","","./tasks/HMM-beads/Images/WhiteBeadChoice.png","","","","","","","","","",""
"image-keyboard-response","244","1791450","0.0-3.0-6.0-1.0-2.35","5a08663b3b6dfc0001445abe","6662009ae78f21dd82fcd179","66620c13fcaa40d33955df42","null","","null","","","","","","","","./tasks/HMM-beads/Images/WhiteBeadChoiceCorrect.png","","","","","","","","","",""
"image-keyboard-response","245","1791659","0.0-3.0-6.0-1.0-0.36","5a08663b3b6dfc0001445abe","6662009ae78f21dd82fcd179","66620c13fcaa40d33955df42","207","","j","","","","","","","","./tasks/HMM-beads/Images/NewTrialWC.png","lowH","1","36","1","1","1","1","true","",""
"image-keyboard-response","246","1791963","0.0-3.0-6.0-1.0-1.36","5a08663b3b6dfc0001445abe","6662009ae78f21dd82fcd179","66620c13fcaa40d33955df42","null","","null","","","","","","","","./tasks/HMM-beads/Images/WhiteBeadChoice.png","","","","","","","","","",""
"image-keyboard-response","247","1792480","0.0-3.0-6.0-1.0-2.36","5a08663b3b6dfc0001445abe","6662009ae78f21dd82fcd179","66620c13fcaa40d33955df42","null","","null","","","","","","","","./tasks/HMM-beads/Images/WhiteBeadChoiceCorrect.png","","","","","","","","","",""
"image-keyboard-response","248","1792752","0.0-3.0-6.0-1.0-0.37","5a08663b3b6dfc0001445abe","6662009ae78f21dd82fcd179","66620c13fcaa40d33955df42","271","","j","","","","","","","","./tasks/HMM-beads/Images/NewTrialWC.png","lowH","1","37","1","1","1","1","true","",""
"image-keyboard-response","249","1793057","0.0-3.0-6.0-1.0-1.37","5a08663b3b6dfc0001445abe","6662009ae78f21dd82fcd179","66620c13fcaa40d33955df42","null","","null","","","","","","","","./tasks/HMM-beads/Images/WhiteBeadChoice.png","","","","","","","","","",""
"image-keyboard-response","250","1793570","0.0-3.0-6.0-1.0-2.37","5a08663b3b6dfc0001445abe","6662009ae78f21dd82fcd179","66620c13fcaa40d33955df42","null","","null","","","","","","","","./tasks/HMM-beads/Images/WhiteBeadChoiceCorrect.png","","","","","","","","","",""
"image-keyboard-response","251","1793898","0.0-3.0-6.0-1.0-0.38","5a08663b3b6dfc0001445abe","6662009ae78f21dd82fcd179","66620c13fcaa40d33955df42","326","","j","","","","","","","","./tasks/HMM-beads/Images/NewTrialWC.png","lowH","1","38","1","1","1","1","true","",""
"image-keyboard-response","252","1794210","0.0-3.0-6.0-1.0-1.38","5a08663b3b6dfc0001445abe","6662009ae78f21dd82fcd179","66620c13fcaa40d33955df42","null","","null","","","","","","","","./tasks/HMM-beads/Images/WhiteBeadChoice.png","","","","","","","","","",""
"image-keyboard-response","253","1794727","0.0-3.0-6.0-1.0-2.38","5a08663b3b6dfc0001445abe","6662009ae78f21dd82fcd179","66620c13fcaa40d33955df42","null","","null","","","","","","","","./tasks/HMM-beads/Images/WhiteBeadChoiceCorrect.png","","","","","","","","","",""
"image-keyboard-response","254","1794922","0.0-3.0-6.0-1.0-0.39","5a08663b3b6dfc0001445abe","6662009ae78f21dd82fcd179","66620c13fcaa40d33955df42","194","","j","","","","","","","","./tasks/HMM-beads/Images/NewTrialWC.png","lowH","1","39","1","1","1","1","true","",""
"image-keyboard-response","255","1795224","0.0-3.0-6.0-1.0-1.39","5a08663b3b6dfc0001445abe","6662009ae78f21dd82fcd179","66620c13fcaa40d33955df42","null","","null","","","","","","","","./tasks/HMM-beads/Images/WhiteBeadChoice.png","","","","","","","","","",""
"image-keyboard-response","256","1795738","0.0-3.0-6.0-1.0-2.39","5a08663b3b6dfc0001445abe","6662009ae78f21dd82fcd179","66620c13fcaa40d33955df42","null","","null","","","","","","","","./tasks/HMM-beads/Images/WhiteBeadChoiceCorrect.png","","","","","","","","","",""
"image-keyboard-response","257","1795951","0.0-3.0-6.0-1.0-0.40","5a08663b3b6dfc0001445abe","6662009ae78f21dd82fcd179","66620c13fcaa40d33955df42","212","","j","","","","","","","","./tasks/HMM-beads/Images/NewTrialWC.png","lowH","1","40","1","1","1","1","true","",""
"image-keyboard-response","258","1796268","0.0-3.0-6.0-1.0-1.40","5a08663b3b6dfc0001445abe","6662009ae78f21dd82fcd179","66620c13fcaa40d33955df42","null","","null","","","","","","","","./tasks/HMM-beads/Images/WhiteBeadChoice.png","","","","","","","","","",""
"image-keyboard-response","259","1796782","0.0-3.0-6.0-1.0-2.40","5a08663b3b6dfc0001445abe","6662009ae78f21dd82fcd179","66620c13fcaa40d33955df42","null","","null","","","","","","","","./tasks/HMM-beads/Images/WhiteBeadChoiceCorrect.png","","","","","","","","","",""
"image-keyboard-response","260","1796852","0.0-3.0-6.0-1.0-0.41","5a08663b3b6dfc0001445abe","6662009ae78f21dd82fcd179","66620c13fcaa40d33955df42","69","","j","","","","","","","","./tasks/HMM-beads/Images/NewTrialWC.png","lowH","1","41","1","1","1","1","true","",""
"image-keyboard-response","261","1797154","0.0-3.0-6.0-1.0-1.41","5a08663b3b6dfc0001445abe","6662009ae78f21dd82fcd179","66620c13fcaa40d33955df42","null","","null","","","","","","","","./tasks/HMM-beads/Images/WhiteBeadChoice.png","","","","","","","","","",""
"image-keyboard-response","262","1797668","0.0-3.0-6.0-1.0-2.41","5a08663b3b6dfc0001445abe","6662009ae78f21dd82fcd179","66620c13fcaa40d33955df42","null","","null","","","","","","","","./tasks/HMM-beads/Images/WhiteBeadChoiceCorrect.png","","","","","","","","","",""
"image-keyboard-response","263","1797857","0.0-3.0-6.0-1.0-0.42","5a08663b3b6dfc0001445abe","6662009ae78f21dd82fcd179","66620c13fcaa40d33955df42","187","","j","","","","","","","","./tasks/HMM-beads/Images/NewTrialWC.png","lowH","1","42","1","1","1","1","true","",""
"image-keyboard-response","264","1798166","0.0-3.0-6.0-1.0-1.42","5a08663b3b6dfc0001445abe","6662009ae78f21dd82fcd179","66620c13fcaa40d33955df42","null","","null","","","","","","","","./tasks/HMM-beads/Images/WhiteBeadChoice.png","","","","","","","","","",""
"image-keyboard-response","265","1798678","0.0-3.0-6.0-1.0-2.42","5a08663b3b6dfc0001445abe","6662009ae78f21dd82fcd179","66620c13fcaa40d33955df42","null","","null","","","","","","","","./tasks/HMM-beads/Images/WhiteBeadChoiceCorrect.png","","","","","","","","","",""
"image-keyboard-response","266","1798955","0.0-3.0-6.0-1.0-0.43","5a08663b3b6dfc0001445abe","6662009ae78f21dd82fcd179","66620c13fcaa40d33955df42","275","","j","","","","","","","","./tasks/HMM-beads/Images/NewTrialWC.png","lowH","1","43","1","1","1","1","true","",""
"image-keyboard-response","267","1799269","0.0-3.0-6.0-1.0-1.43","5a08663b3b6dfc0001445abe","6662009ae78f21dd82fcd179","66620c13fcaa40d33955df42","null","","null","","","","","","","","./tasks/HMM-beads/Images/WhiteBeadChoice.png","","","","","","","","","",""
"image-keyboard-response","268","1799784","0.0-3.0-6.0-1.0-2.43","5a08663b3b6dfc0001445abe","6662009ae78f21dd82fcd179","66620c13fcaa40d33955df42","null","","null","","","","","","","","./tasks/HMM-beads/Images/WhiteBeadChoiceCorrect.png","","","","","","","","","",""
"image-keyboard-response","269","1800090","0.0-3.0-6.0-1.0-0.44","5a08663b3b6dfc0001445abe","6662009ae78f21dd82fcd179","66620c13fcaa40d33955df42","305","","j","","","","","","","","./tasks/HMM-beads/Images/NewTrialWC.png","lowH","1","44","1","1","1","1","true","",""
"image-keyboard-response","270","1800406","0.0-3.0-6.0-1.0-1.44","5a08663b3b6dfc0001445abe","6662009ae78f21dd82fcd179","66620c13fcaa40d33955df42","null","","null","","","","","","","","./tasks/HMM-beads/Images/WhiteBeadChoice.png","","","","","","","","","",""
"image-keyboard-response","271","1800921","0.0-3.0-6.0-1.0-2.44","5a08663b3b6dfc0001445abe","6662009ae78f21dd82fcd179","66620c13fcaa40d33955df42","null","","null","","","","","","","","./tasks/HMM-beads/Images/WhiteBeadChoiceCorrect.png","","","","","","","","","",""
"image-keyboard-response","272","1801069","0.0-3.0-6.0-1.0-0.45","5a08663b3b6dfc0001445abe","6662009ae78f21dd82fcd179","66620c13fcaa40d33955df42","147","","j","","","","","","","","./tasks/HMM-beads/Images/NewTrialWC.png","lowH","1","45","1","1","1","1","true","",""
"image-keyboard-response","273","1801374","0.0-3.0-6.0-1.0-1.45","5a08663b3b6dfc0001445abe","6662009ae78f21dd82fcd179","66620c13fcaa40d33955df42","null","","null","","","","","","","","./tasks/HMM-beads/Images/WhiteBeadChoice.png","","","","","","","","","",""
"image-keyboard-response","274","1801887","0.0-3.0-6.0-1.0-2.45","5a08663b3b6dfc0001445abe","6662009ae78f21dd82fcd179","66620c13fcaa40d33955df42","null","","null","","","","","","","","./tasks/HMM-beads/Images/WhiteBeadChoiceCorrect.png","","","","","","","","","",""
"image-keyboard-response","275","1802392","0.0-3.0-6.0-1.0-0.46","5a08663b3b6dfc0001445abe","6662009ae78f21dd82fcd179","66620c13fcaa40d33955df42","503","","j","","","","","","","","./tasks/HMM-beads/Images/NewTrialWC.png","lowH","1","46","1","1","1","1","true","",""
"image-keyboard-response","276","1802707","0.0-3.0-6.0-1.0-1.46","5a08663b3b6dfc0001445abe","6662009ae78f21dd82fcd179","66620c13fcaa40d33955df42","null","","null","","","","","","","","./tasks/HMM-beads/Images/WhiteBeadChoice.png","","","","","","","","","",""
"image-keyboard-response","277","1803221","0.0-3.0-6.0-1.0-2.46","5a08663b3b6dfc0001445abe","6662009ae78f21dd82fcd179","66620c13fcaa40d33955df42","null","","null","","","","","","","","./tasks/HMM-beads/Images/WhiteBeadChoiceCorrect.png","","","","","","","","","",""
"image-keyboard-response","278","1803554","0.0-3.0-6.0-1.0-0.47","5a08663b3b6dfc0001445abe","6662009ae78f21dd82fcd179","66620c13fcaa40d33955df42","331","","j","","","","","","","","./tasks/HMM-beads/Images/NewTrialWC.png","lowH","1","47","1","0","1","1","false","",""
"image-keyboard-response","279","1803860","0.0-3.0-6.0-1.0-1.47","5a08663b3b6dfc0001445abe","6662009ae78f21dd82fcd179","66620c13fcaa40d33955df42","null","","null","","","","","","","","./tasks/HMM-beads/Images/WhiteBeadChoice.png","","","","","","","","","",""
"image-keyboard-response","280","1804374","0.0-3.0-6.0-1.0-2.47","5a08663b3b6dfc0001445abe","6662009ae78f21dd82fcd179","66620c13fcaa40d33955df42","null","","null","","","","","","","","./tasks/HMM-beads/Images/WhiteBeadChoiceWrong.png","","","","","","","","","",""
"image-keyboard-response","281","1804912","0.0-3.0-6.0-1.0-0.48","5a08663b3b6dfc0001445abe","6662009ae78f21dd82fcd179","66620c13fcaa40d33955df42","537","","j","","","","","","","","./tasks/HMM-beads/Images/NewTrialBC.png","lowH","1","48","1","0","0","1","false","",""
"image-keyboard-response","282","1805229","0.0-3.0-6.0-1.0-1.48","5a08663b3b6dfc0001445abe","6662009ae78f21dd82fcd179","66620c13fcaa40d33955df42","null","","null","","","","","","","","./tasks/HMM-beads/Images/WhiteBeadChoice.png","","","","","","","","","",""
"image-keyboard-response","283","1805744","0.0-3.0-6.0-1.0-2.48","5a08663b3b6dfc0001445abe","6662009ae78f21dd82fcd179","66620c13fcaa40d33955df42","null","","null","","","","","","","","./tasks/HMM-beads/Images/WhiteBeadChoiceWrong.png","","","","","","","","","",""
"image-keyboard-response","284","1806046","0.0-3.0-6.0-1.0-0.49","5a08663b3b6dfc0001445abe","6662009ae78f21dd82fcd179","66620c13fcaa40d33955df42","300","","j","","","","","","","","./tasks/HMM-beads/Images/NewTrialBC.png","lowH","1","49","1","0","0","1","false","",""
"image-keyboard-response","285","1806353","0.0-3.0-6.0-1.0-1.49","5a08663b3b6dfc0001445abe","6662009ae78f21dd82fcd179","66620c13fcaa40d33955df42","null","","null","","","","","","","","./tasks/HMM-beads/Images/WhiteBeadChoice.png","","","","","","","","","",""
"image-keyboard-response","286","1806867","0.0-3.0-6.0-1.0-2.49","5a08663b3b6dfc0001445abe","6662009ae78f21dd82fcd179","66620c13fcaa40d33955df42","null","","null","","","","","","","","./tasks/HMM-beads/Images/WhiteBeadChoiceWrong.png","","","","","","","","","",""
"image-keyboard-response","287","1807160","0.0-3.0-6.0-1.0-0.50","5a08663b3b6dfc0001445abe","6662009ae78f21dd82fcd179","66620c13fcaa40d33955df42","292","","f","","","","","","","","./tasks/HMM-beads/Images/NewTrialBC.png","lowH","1","50","1","1","0","0","false","",""
"image-keyboard-response","288","1807474","0.0-3.0-6.0-1.0-1.50","5a08663b3b6dfc0001445abe","6662009ae78f21dd82fcd179","66620c13fcaa40d33955df42","null","","null","","","","","","","","./tasks/HMM-beads/Images/BlackBeadChoice.png","","","","","","","","","",""
"image-keyboard-response","289","1807987","0.0-3.0-6.0-1.0-2.50","5a08663b3b6dfc0001445abe","6662009ae78f21dd82fcd179","66620c13fcaa40d33955df42","null","","null","","","","","","","","./tasks/HMM-beads/Images/BlackBeadChoiceWrong.png","","","","","","","","","",""
"image-keyboard-response","290","1808479","0.0-3.0-6.0-1.0-0.51","5a08663b3b6dfc0001445abe","6662009ae78f21dd82fcd179","66620c13fcaa40d33955df42","491","","f","","","","","","","","./tasks/HMM-beads/Images/NewTrialWC.png","lowH","1","51","1","1","1","0","false","",""
"image-keyboard-response","291","1808783","0.0-3.0-6.0-1.0-1.51","5a08663b3b6dfc0001445abe","6662009ae78f21dd82fcd179","66620c13fcaa40d33955df42","null","","null","","","","","","","","./tasks/HMM-beads/Images/BlackBeadChoice.png","","","","","","","","","",""
"image-keyboard-response","292","1809297","0.0-3.0-6.0-1.0-2.51","5a08663b3b6dfc0001445abe","6662009ae78f21dd82fcd179","66620c13fcaa40d33955df42","null","","null","","","","","","","","./tasks/HMM-beads/Images/BlackBeadChoiceWrong.png","","","","","","","","","",""
"image-keyboard-response","293","1809429","0.0-3.0-6.0-1.0-0.52","5a08663b3b6dfc0001445abe","6662009ae78f21dd82fcd179","66620c13fcaa40d33955df42","131","","j","","","","","","","","./tasks/HMM-beads/Images/NewTrialWC.png","lowH","1","52","1","1","1","1","true","",""
"image-keyboard-response","294","1809735","0.0-3.0-6.0-1.0-1.52","5a08663b3b6dfc0001445abe","6662009ae78f21dd82fcd179","66620c13fcaa40d33955df42","null","","null","","","","","","","","./tasks/HMM-beads/Images/WhiteBeadChoice.png","","","","","","","","","",""
"image-keyboard-response","295","1810249","0.0-3.0-6.0-1.0-2.52","5a08663b3b6dfc0001445abe","6662009ae78f21dd82fcd179","66620c13fcaa40d33955df42","null","","null","","","","","","","","./tasks/HMM-beads/Images/WhiteBeadChoiceCorrect.png","","","","","","","","","",""
"image-keyboard-response","296","1810525","0.0-3.0-6.0-1.0-0.53","5a08663b3b6dfc0001445abe","6662009ae78f21dd82fcd179","66620c13fcaa40d33955df42","275","","j","","","","","","","","./tasks/HMM-beads/Images/NewTrialWC.png","lowH","1","53","1","1","1","1","true","",""
"image-keyboard-response","297","1810840","0.0-3.0-6.0-1.0-1.53","5a08663b3b6dfc0001445abe","6662009ae78f21dd82fcd179","66620c13fcaa40d33955df42","null","","null","","","","","","","","./tasks/HMM-beads/Images/WhiteBeadChoice.png","","","","","","","","","",""
"image-keyboard-response","298","1811352","0.0-3.0-6.0-1.0-2.53","5a08663b3b6dfc0001445abe","6662009ae78f21dd82fcd179","66620c13fcaa40d33955df42","null","","null","","","","","","","","./tasks/HMM-beads/Images/WhiteBeadChoiceCorrect.png","","","","","","","","","",""
"image-keyboard-response","299","1811382","0.0-3.0-6.0-1.0-0.54","5a08663b3b6dfc0001445abe","6662009ae78f21dd82fcd179","66620c13fcaa40d33955df42","29","","j","","","","","","","","./tasks/HMM-beads/Images/NewTrialWC.png","lowH","1","54","1","1","1","1","true","",""
"image-keyboard-response","300","1811695","0.0-3.0-6.0-1.0-1.54","5a08663b3b6dfc0001445abe","6662009ae78f21dd82fcd179","66620c13fcaa40d33955df42","null","","null","","","","","","","","./tasks/HMM-beads/Images/WhiteBeadChoice.png","","","","","","","","","",""
"image-keyboard-response","301","1812210","0.0-3.0-6.0-1.0-2.54","5a08663b3b6dfc0001445abe","6662009ae78f21dd82fcd179","66620c13fcaa40d33955df42","null","","null","","","","","","","","./tasks/HMM-beads/Images/WhiteBeadChoiceCorrect.png","","","","","","","","","",""
"image-keyboard-response","302","1812312","0.0-3.0-6.0-1.0-0.55","5a08663b3b6dfc0001445abe","6662009ae78f21dd82fcd179","66620c13fcaa40d33955df42","101","","j","","","","","","","","./tasks/HMM-beads/Images/NewTrialWC.png","lowH","1","55","1","1","1","1","true","",""
"image-keyboard-response","303","1812614","0.0-3.0-6.0-1.0-1.55","5a08663b3b6dfc0001445abe","6662009ae78f21dd82fcd179","66620c13fcaa40d33955df42","null","","null","","","","","","","","./tasks/HMM-beads/Images/WhiteBeadChoice.png","","","","","","","","","",""
"image-keyboard-response","304","1813129","0.0-3.0-6.0-1.0-2.55","5a08663b3b6dfc0001445abe","6662009ae78f21dd82fcd179","66620c13fcaa40d33955df42","null","","null","","","","","","","","./tasks/HMM-beads/Images/WhiteBeadChoiceCorrect.png","","","","","","","","","",""
"image-keyboard-response","305","1813436","0.0-3.0-6.0-1.0-0.56","5a08663b3b6dfc0001445abe","6662009ae78f21dd82fcd179","66620c13fcaa40d33955df42","306","","j","","","","","","","","./tasks/HMM-beads/Images/NewTrialWC.png","lowH","1","56","1","1","1","1","true","",""
"image-keyboard-response","306","1813752","0.0-3.0-6.0-1.0-1.56","5a08663b3b6dfc0001445abe","6662009ae78f21dd82fcd179","66620c13fcaa40d33955df42","null","","null","","","","","","","","./tasks/HMM-beads/Images/WhiteBeadChoice.png","","","","","","","","","",""
"image-keyboard-response","307","1814267","0.0-3.0-6.0-1.0-2.56","5a08663b3b6dfc0001445abe","6662009ae78f21dd82fcd179","66620c13fcaa40d33955df42","null","","null","","","","","","","","./tasks/HMM-beads/Images/WhiteBeadChoiceCorrect.png","","","","","","","","","",""
"image-keyboard-response","308","1814547","0.0-3.0-6.0-1.0-0.57","5a08663b3b6dfc0001445abe","6662009ae78f21dd82fcd179","66620c13fcaa40d33955df42","278","","j","","","","","","","","./tasks/HMM-beads/Images/NewTrialWC.png","lowH","1","57","1","1","1","1","true","",""
"image-keyboard-response","309","1814856","0.0-3.0-6.0-1.0-1.57","5a08663b3b6dfc0001445abe","6662009ae78f21dd82fcd179","66620c13fcaa40d33955df42","null","","null","","","","","","","","./tasks/HMM-beads/Images/WhiteBeadChoice.png","","","","","","","","","",""
"image-keyboard-response","310","1815369","0.0-3.0-6.0-1.0-2.57","5a08663b3b6dfc0001445abe","6662009ae78f21dd82fcd179","66620c13fcaa40d33955df42","null","","null","","","","","","","","./tasks/HMM-beads/Images/WhiteBeadChoiceCorrect.png","","","","","","","","","",""
"image-keyboard-response","311","1815629","0.0-3.0-6.0-1.0-0.58","5a08663b3b6dfc0001445abe","6662009ae78f21dd82fcd179","66620c13fcaa40d33955df42","258","","j","","","","","","","","./tasks/HMM-beads/Images/NewTrialWC.png","lowH","1","58","1","1","1","1","true","",""
"image-keyboard-response","312","1815932","0.0-3.0-6.0-1.0-1.58","5a08663b3b6dfc0001445abe","6662009ae78f21dd82fcd179","66620c13fcaa40d33955df42","null","","null","","","","","","","","./tasks/HMM-beads/Images/WhiteBeadChoice.png","","","","","","","","","",""
"image-keyboard-response","313","1816444","0.0-3.0-6.0-1.0-2.58","5a08663b3b6dfc0001445abe","6662009ae78f21dd82fcd179","66620c13fcaa40d33955df42","null","","null","","","","","","","","./tasks/HMM-beads/Images/WhiteBeadChoiceCorrect.png","","","","","","","","","",""
"image-keyboard-response","314","1816515","0.0-3.0-6.0-1.0-0.59","5a08663b3b6dfc0001445abe","6662009ae78f21dd82fcd179","66620c13fcaa40d33955df42","70","","j","","","","","","","","./tasks/HMM-beads/Images/NewTrialWC.png","lowH","1","59","1","0","1","1","false","",""
"image-keyboard-response","315","1816831","0.0-3.0-6.0-1.0-1.59","5a08663b3b6dfc0001445abe","6662009ae78f21dd82fcd179","66620c13fcaa40d33955df42","null","","null","","","","","","","","./tasks/HMM-beads/Images/WhiteBeadChoice.png","","","","","","","","","",""
"image-keyboard-response","316","1817344","0.0-3.0-6.0-1.0-2.59","5a08663b3b6dfc0001445abe","6662009ae78f21dd82fcd179","66620c13fcaa40d33955df42","null","","null","","","","","","","","./tasks/HMM-beads/Images/WhiteBeadChoiceWrong.png","","","","","","","","","",""
"image-keyboard-response","317","1817733","0.0-3.0-6.0-1.0-0.60","5a08663b3b6dfc0001445abe","6662009ae78f21dd82fcd179","66620c13fcaa40d33955df42","388","","j","","","","","","","","./tasks/HMM-beads/Images/NewTrialBC.png","lowH","1","60","1","1","0","1","true","",""
"image-keyboard-response","318","1818045","0.0-3.0-6.0-1.0-1.60","5a08663b3b6dfc0001445abe","6662009ae78f21dd82fcd179","66620c13fcaa40d33955df42","null","","null","","","","","","","","./tasks/HMM-beads/Images/WhiteBeadChoice.png","","","","","","","","","",""
"image-keyboard-response","319","1818560","0.0-3.0-6.0-1.0-2.60","5a08663b3b6dfc0001445abe","6662009ae78f21dd82fcd179","66620c13fcaa40d33955df42","null","","null","","","","","","","","./tasks/HMM-beads/Images/WhiteBeadChoiceCorrect.png","","","","","","","","","",""
"image-keyboard-response","320","1818588","0.0-3.0-6.0-1.0-0.61","5a08663b3b6dfc0001445abe","6662009ae78f21dd82fcd179","66620c13fcaa40d33955df42","27","","j","","","","","","","","./tasks/HMM-beads/Images/NewTrialWC.png","lowH","1","61","1","1","1","1","true","",""
"image-keyboard-response","321","1818901","0.0-3.0-6.0-1.0-1.61","5a08663b3b6dfc0001445abe","6662009ae78f21dd82fcd179","66620c13fcaa40d33955df42","null","","null","","","","","","","","./tasks/HMM-beads/Images/WhiteBeadChoice.png","","","","","","","","","",""
"image-keyboard-response","322","1819416","0.0-3.0-6.0-1.0-2.61","5a08663b3b6dfc0001445abe","6662009ae78f21dd82fcd179","66620c13fcaa40d33955df42","null","","null","","","","","","","","./tasks/HMM-beads/Images/WhiteBeadChoiceCorrect.png","","","","","","","","","",""
"image-keyboard-response","323","1819597","0.0-3.0-6.0-1.0-0.62","5a08663b3b6dfc0001445abe","6662009ae78f21dd82fcd179","66620c13fcaa40d33955df42","180","","j","","","","","","","","./tasks/HMM-beads/Images/NewTrialWC.png","lowH","1","62","1","0","1","1","false","",""
"image-keyboard-response","324","1819899","0.0-3.0-6.0-1.0-1.62","5a08663b3b6dfc0001445abe","6662009ae78f21dd82fcd179","66620c13fcaa40d33955df42","null","","null","","","","","","","","./tasks/HMM-beads/Images/WhiteBeadChoice.png","","","","","","","","","",""
"image-keyboard-response","325","1820413","0.0-3.0-6.0-1.0-2.62","5a08663b3b6dfc0001445abe","6662009ae78f21dd82fcd179","66620c13fcaa40d33955df42","null","","null","","","","","","","","./tasks/HMM-beads/Images/WhiteBeadChoiceWrong.png","","","","","","","","","",""
"image-keyboard-response","326","1820747","0.0-3.0-6.0-1.0-0.63","5a08663b3b6dfc0001445abe","6662009ae78f21dd82fcd179","66620c13fcaa40d33955df42","332","","j","","","","","","","","./tasks/HMM-beads/Images/NewTrialBC.png","lowH","1","63","1","1","0","1","true","",""
"image-keyboard-response","327","1821051","0.0-3.0-6.0-1.0-1.63","5a08663b3b6dfc0001445abe","6662009ae78f21dd82fcd179","66620c13fcaa40d33955df42","null","","null","","","","","","","","./tasks/HMM-beads/Images/WhiteBeadChoice.png","","","","","","","","","",""
"image-keyboard-response","328","1821566","0.0-3.0-6.0-1.0-2.63","5a08663b3b6dfc0001445abe","6662009ae78f21dd82fcd179","66620c13fcaa40d33955df42","null","","null","","","","","","","","./tasks/HMM-beads/Images/WhiteBeadChoiceCorrect.png","","","","","","","","","",""
"image-keyboard-response","329","1821752","0.0-3.0-6.0-1.0-0.64","5a08663b3b6dfc0001445abe","6662009ae78f21dd82fcd179","66620c13fcaa40d33955df42","184","","j","","","","","","","","./tasks/HMM-beads/Images/NewTrialWC.png","lowH","1","64","1","1","1","1","true","",""
"image-keyboard-response","330","1822066","0.0-3.0-6.0-1.0-1.64","5a08663b3b6dfc0001445abe","6662009ae78f21dd82fcd179","66620c13fcaa40d33955df42","null","","null","","","","","","","","./tasks/HMM-beads/Images/WhiteBeadChoice.png","","","","","","","","","",""
"image-keyboard-response","331","1822578","0.0-3.0-6.0-1.0-2.64","5a08663b3b6dfc0001445abe","6662009ae78f21dd82fcd179","66620c13fcaa40d33955df42","null","","null","","","","","","","","./tasks/HMM-beads/Images/WhiteBeadChoiceCorrect.png","","","","","","","","","",""
"image-keyboard-response","332","1822585","0.0-3.0-6.0-1.0-0.65","5a08663b3b6dfc0001445abe","6662009ae78f21dd82fcd179","66620c13fcaa40d33955df42","6","","j","","","","","","","","./tasks/HMM-beads/Images/NewTrialWC.png","lowH","1","65","1","1","1","1","true","",""
"image-keyboard-response","333","1822890","0.0-3.0-6.0-1.0-1.65","5a08663b3b6dfc0001445abe","6662009ae78f21dd82fcd179","66620c13fcaa40d33955df42","null","","null","","","","","","","","./tasks/HMM-beads/Images/WhiteBeadChoice.png","","","","","","","","","",""
"image-keyboard-response","334","1823394","0.0-3.0-6.0-1.0-2.65","5a08663b3b6dfc0001445abe","6662009ae78f21dd82fcd179","66620c13fcaa40d33955df42","null","","null","","","","","","","","./tasks/HMM-beads/Images/WhiteBeadChoiceCorrect.png","","","","","","","","","",""
"image-keyboard-response","335","1823704","0.0-3.0-6.0-1.0-0.66","5a08663b3b6dfc0001445abe","6662009ae78f21dd82fcd179","66620c13fcaa40d33955df42","308","","j","","","","","","","","./tasks/HMM-beads/Images/NewTrialWC.png","lowH","1","66","1","1","1","1","true","",""
"image-keyboard-response","336","1824018","0.0-3.0-6.0-1.0-1.66","5a08663b3b6dfc0001445abe","6662009ae78f21dd82fcd179","66620c13fcaa40d33955df42","null","","null","","","","","","","","./tasks/HMM-beads/Images/WhiteBeadChoice.png","","","","","","","","","",""
"image-keyboard-response","337","1824533","0.0-3.0-6.0-1.0-2.66","5a08663b3b6dfc0001445abe","6662009ae78f21dd82fcd179","66620c13fcaa40d33955df42","null","","null","","","","","","","","./tasks/HMM-beads/Images/WhiteBeadChoiceCorrect.png","","","","","","","","","",""
"image-keyboard-response","338","1824780","0.0-3.0-6.0-1.0-0.67","5a08663b3b6dfc0001445abe","6662009ae78f21dd82fcd179","66620c13fcaa40d33955df42","245","","j","","","","","","","","./tasks/HMM-beads/Images/NewTrialWC.png","lowH","1","67","1","0","1","1","false","",""
"image-keyboard-response","339","1825091","0.0-3.0-6.0-1.0-1.67","5a08663b3b6dfc0001445abe","6662009ae78f21dd82fcd179","66620c13fcaa40d33955df42","null","","null","","","","","","","","./tasks/HMM-beads/Images/WhiteBeadChoice.png","","","","","","","","","",""
"image-keyboard-response","340","1825605","0.0-3.0-6.0-1.0-2.67","5a08663b3b6dfc0001445abe","6662009ae78f21dd82fcd179","66620c13fcaa40d33955df42","null","","null","","","","","","","","./tasks/HMM-beads/Images/WhiteBeadChoiceWrong.png","","","","","","","","","",""
"image-keyboard-response","341","1826105","0.0-3.0-6.0-1.0-0.68","5a08663b3b6dfc0001445abe","6662009ae78f21dd82fcd179","66620c13fcaa40d33955df42","499","","j","","","","","","","","./tasks/HMM-beads/Images/NewTrialBC.png","lowH","1","68","1","1","0","1","true","",""
"image-keyboard-response","342","1826416","0.0-3.0-6.0-1.0-1.68","5a08663b3b6dfc0001445abe","6662009ae78f21dd82fcd179","66620c13fcaa40d33955df42","null","","null","","","","","","","","./tasks/HMM-beads/Images/WhiteBeadChoice.png","","","","","","","","","",""
"image-keyboard-response","343","1826927","0.0-3.0-6.0-1.0-2.68","5a08663b3b6dfc0001445abe","6662009ae78f21dd82fcd179","66620c13fcaa40d33955df42","null","","null","","","","","","","","./tasks/HMM-beads/Images/WhiteBeadChoiceCorrect.png","","","","","","","","","",""
"image-keyboard-response","344","1827429","0.0-3.0-6.0-1.0-0.69","5a08663b3b6dfc0001445abe","6662009ae78f21dd82fcd179","66620c13fcaa40d33955df42","500","","j","","","","","","","","./tasks/HMM-beads/Images/NewTrialWC.png","lowH","1","69","0","1","1","1","true","",""
"image-keyboard-response","345","1827736","0.0-3.0-6.0-1.0-1.69","5a08663b3b6dfc0001445abe","6662009ae78f21dd82fcd179","66620c13fcaa40d33955df42","null","","null","","","","","","","","./tasks/HMM-beads/Images/WhiteBeadChoice.png","","","","","","","","","",""
"image-keyboard-response","346","1828251","0.0-3.0-6.0-1.0-2.69","5a08663b3b6dfc0001445abe","6662009ae78f21dd82fcd179","66620c13fcaa40d33955df42","null","","null","","","","","","","","./tasks/HMM-beads/Images/WhiteBeadChoiceCorrect.png","","","","","","","","","",""
"image-keyboard-response","347","1828628","0.0-3.0-6.0-1.0-0.70","5a08663b3b6dfc0001445abe","6662009ae78f21dd82fcd179","66620c13fcaa40d33955df42","375","","j","","","","","","","","./tasks/HMM-beads/Images/NewTrialWC.png","lowH","1","70","0","1","1","1","true","",""
"image-keyboard-response","348","1828937","0.0-3.0-6.0-1.0-1.70","5a08663b3b6dfc0001445abe","6662009ae78f21dd82fcd179","66620c13fcaa40d33955df42","null","","null","","","","","","","","./tasks/HMM-beads/Images/WhiteBeadChoice.png","","","","","","","","","",""
"image-keyboard-response","349","1829452","0.0-3.0-6.0-1.0-2.70","5a08663b3b6dfc0001445abe","6662009ae78f21dd82fcd179","66620c13fcaa40d33955df42","null","","null","","","","","","","","./tasks/HMM-beads/Images/WhiteBeadChoiceCorrect.png","","","","","","","","","",""
"image-keyboard-response","350","1829489","0.0-3.0-6.0-1.0-0.71","5a08663b3b6dfc0001445abe","6662009ae78f21dd82fcd179","66620c13fcaa40d33955df42","36","","j","","","","","","","","./tasks/HMM-beads/Images/NewTrialWC.png","lowH","1","71","0","0","1","1","false","",""
"image-keyboard-response","351","1829795","0.0-3.0-6.0-1.0-1.71","5a08663b3b6dfc0001445abe","6662009ae78f21dd82fcd179","66620c13fcaa40d33955df42","null","","null","","","","","","","","./tasks/HMM-beads/Images/WhiteBeadChoice.png","","","","","","","","","",""
"image-keyboard-response","352","1830308","0.0-3.0-6.0-1.0-2.71","5a08663b3b6dfc0001445abe","6662009ae78f21dd82fcd179","66620c13fcaa40d33955df42","null","","null","","","","","","","","./tasks/HMM-beads/Images/WhiteBeadChoiceWrong.png","","","","","","","","","",""
"image-keyboard-response","353","1830391","0.0-3.0-6.0-1.0-0.72","5a08663b3b6dfc0001445abe","6662009ae78f21dd82fcd179","66620c13fcaa40d33955df42","82","","j","","","","","","","","./tasks/HMM-beads/Images/NewTrialBC.png","lowH","1","72","0","0","0","1","false","",""
"image-keyboard-response","354","1830697","0.0-3.0-6.0-1.0-1.72","5a08663b3b6dfc0001445abe","6662009ae78f21dd82fcd179","66620c13fcaa40d33955df42","null","","null","","","","","","","","./tasks/HMM-beads/Images/WhiteBeadChoice.png","","","","","","","","","",""
"image-keyboard-response","355","1831211","0.0-3.0-6.0-1.0-2.72","5a08663b3b6dfc0001445abe","6662009ae78f21dd82fcd179","66620c13fcaa40d33955df42","null","","null","","","","","","","","./tasks/HMM-beads/Images/WhiteBeadChoiceWrong.png","","","","","","","","","",""
"image-keyboard-response","356","1831466","0.0-3.0-6.0-1.0-0.73","5a08663b3b6dfc0001445abe","6662009ae78f21dd82fcd179","66620c13fcaa40d33955df42","254","","j","","","","","","","","./tasks/HMM-beads/Images/NewTrialBC.png","lowH","1","73","0","1","0","1","true","",""
"image-keyboard-response","357","1831770","0.0-3.0-6.0-1.0-1.73","5a08663b3b6dfc0001445abe","6662009ae78f21dd82fcd179","66620c13fcaa40d33955df42","null","","null","","","","","","","","./tasks/HMM-beads/Images/WhiteBeadChoice.png","","","","","","","","","",""
"image-keyboard-response","358","1832284","0.0-3.0-6.0-1.0-2.73","5a08663b3b6dfc0001445abe","6662009ae78f21dd82fcd179","66620c13fcaa40d33955df42","null","","null","","","","","","","","./tasks/HMM-beads/Images/WhiteBeadChoiceCorrect.png","","","","","","","","","",""
"image-keyboard-response","359","1832301","0.0-3.0-6.0-1.0-0.74","5a08663b3b6dfc0001445abe","6662009ae78f21dd82fcd179","66620c13fcaa40d33955df42","15","","j","","","","","","","","./tasks/HMM-beads/Images/NewTrialWC.png","lowH","1","74","0","0","1","1","false","",""
"image-keyboard-response","360","1832612","0.0-3.0-6.0-1.0-1.74","5a08663b3b6dfc0001445abe","6662009ae78f21dd82fcd179","66620c13fcaa40d33955df42","null","","null","","","","","","","","./tasks/HMM-beads/Images/WhiteBeadChoice.png","","","","","","","","","",""
"image-keyboard-response","361","1833127","0.0-3.0-6.0-1.0-2.74","5a08663b3b6dfc0001445abe","6662009ae78f21dd82fcd179","66620c13fcaa40d33955df42","null","","null","","","","","","","","./tasks/HMM-beads/Images/WhiteBeadChoiceWrong.png","","","","","","","","","",""
"image-keyboard-response","362","1833805","0.0-3.0-6.0-1.0-0.75","5a08663b3b6dfc0001445abe","6662009ae78f21dd82fcd179","66620c13fcaa40d33955df42","677","","f","","","","","","","","./tasks/HMM-beads/Images/NewTrialBC.png","lowH","1","75","0","1","0","0","false","",""
"image-keyboard-response","363","1834108","0.0-3.0-6.0-1.0-1.75","5a08663b3b6dfc0001445abe","6662009ae78f21dd82fcd179","66620c13fcaa40d33955df42","null","","null","","","","","","","","./tasks/HMM-beads/Images/BlackBeadChoice.png","","","","","","","","","",""
"image-keyboard-response","364","1834623","0.0-3.0-6.0-1.0-2.75","5a08663b3b6dfc0001445abe","6662009ae78f21dd82fcd179","66620c13fcaa40d33955df42","null","","null","","","","","","","","./tasks/HMM-beads/Images/BlackBeadChoiceWrong.png","","","","","","","","","",""
"image-keyboard-response","365","1835169","0.0-3.0-6.0-1.0-0.76","5a08663b3b6dfc0001445abe","6662009ae78f21dd82fcd179","66620c13fcaa40d33955df42","544","","j","","","","","","","","./tasks/HMM-beads/Images/NewTrialWC.png","lowH","1","76","0","1","1","1","true","",""
"image-keyboard-response","366","1835481","0.0-3.0-6.0-1.0-1.76","5a08663b3b6dfc0001445abe","6662009ae78f21dd82fcd179","66620c13fcaa40d33955df42","null","","null","","","","","","","","./tasks/HMM-beads/Images/WhiteBeadChoice.png","","","","","","","","","",""
"image-keyboard-response","367","1835993","0.0-3.0-6.0-1.0-2.76","5a08663b3b6dfc0001445abe","6662009ae78f21dd82fcd179","66620c13fcaa40d33955df42","null","","null","","","","","","","","./tasks/HMM-beads/Images/WhiteBeadChoiceCorrect.png","","","","","","","","","",""
"image-keyboard-response","368","1836274","0.0-3.0-6.0-1.0-0.77","5a08663b3b6dfc0001445abe","6662009ae78f21dd82fcd179","66620c13fcaa40d33955df42","279","","j","","","","","","","","./tasks/HMM-beads/Images/NewTrialWC.png","lowH","1","77","0","0","1","1","false","",""
"image-keyboard-response","369","1836584","0.0-3.0-6.0-1.0-1.77","5a08663b3b6dfc0001445abe","6662009ae78f21dd82fcd179","66620c13fcaa40d33955df42","null","","null","","","","","","","","./tasks/HMM-beads/Images/WhiteBeadChoice.png","","","","","","","","","",""
"image-keyboard-response","370","1837098","0.0-3.0-6.0-1.0-2.77","5a08663b3b6dfc0001445abe","6662009ae78f21dd82fcd179","66620c13fcaa40d33955df42","null","","null","","","","","","","","./tasks/HMM-beads/Images/WhiteBeadChoiceWrong.png","","","","","","","","","",""
"image-keyboard-response","371","1837492","0.0-3.0-6.0-1.0-0.78","5a08663b3b6dfc0001445abe","6662009ae78f21dd82fcd179","66620c13fcaa40d33955df42","392","","j","","","","","","","","./tasks/HMM-beads/Images/NewTrialBC.png","lowH","1","78","0","0","0","1","false","",""
"image-keyboard-response","372","1837799","0.0-3.0-6.0-1.0-1.78","5a08663b3b6dfc0001445abe","6662009ae78f21dd82fcd179","66620c13fcaa40d33955df42","null","","null","","","","","","","","./tasks/HMM-beads/Images/WhiteBeadChoice.png","","","","","","","","","",""
