"trial_type","trial_index","time_elapsed","internal_node_id","subject_id","study_id","session_id","rt","url","response","question_order","view_history","success","timeout","failed_images","failed_audio","failed_video","stimulus","block","block_rep","trial_number","jar","bead","previous_bead","choice","correct","lowH_score","total_bonus"
"pavlovia","0","783","0.0-0.0","6605ca045eb1a7d83eac38a9","6662009ae78f21dd82fcd179","666207db29f6b2e5fd822ab5","","","","","","","","","","","","","","","","","","","","",""
"external-html","1","145702","0.0-1.0-0.0","6605ca045eb1a7d83eac38a9","6662009ae78f21dd82fcd179","666207db29f6b2e5fd822ab5","144789","new_consent.html","","","","","","","","","","","","","","","","","","",""
"survey-multi-choice","2","155311","0.0-1.0-1.0","6605ca045eb1a7d83eac38a9","6662009ae78f21dd82fcd179","666207db29f6b2e5fd822ab5","9606","","{""Q0"":""Female"",""Q1"":""White""}","[0,1]","","","","","","","","","","","","","","","","",""
"survey-text","3","159223","0.0-1.0-2.0","6605ca045eb1a7d83eac38a9","6662009ae78f21dd82fcd179","666207db29f6b2e5fd822ab5","3907","","{""Q0"":""54""}","","","","","","","","","","","","","","","","","",""
"instructions","4","162542","0.0-2.0","6605ca045eb1a7d83eac38a9","6662009ae78f21dd82fcd179","666207db29f6b2e5fd822ab5","3216","","","","[{""page_index"":0,""viewing_time"":3215}]","","","","","","","","","","","","","","","",""
"preload","5","163762","0.0-3.0-0.0","6605ca045eb1a7d83eac38a9","6662009ae78f21dd82fcd179","666207db29f6b2e5fd822ab5","","","","","","true","false","[]","[]","[]","","","","","","","","","","",""
"instructions","6","309661","0.0-3.0-1.0","6605ca045eb1a7d83eac38a9","6662009ae78f21dd82fcd179","666207db29f6b2e5fd822ab5","145899","","","","[{""page_index"":0,""viewing_time"":23021},{""page_index"":1,""viewing_time"":8048},{""page_index"":2,""viewing_time"":6186},{""page_index"":3,""viewing_time"":3450},{""page_index"":4,""viewing_time"":17404},{""page_index"":3,""viewing_time"":2842},{""page_index"":4,""viewing_time"":2743},{""page_index"":5,""viewing_time"":25388},{""page_index"":6,""viewing_time"":10680},{""page_index"":7,""viewing_time"":15340},{""page_index"":8,""viewing_time"":7408},{""page_index"":9,""viewing_time"":8912},{""page_index"":10,""viewing_time"":10796},{""page_index"":11,""viewing_time"":3682}]","","","","","","","","","","","","","","","",""
"html-button-response","7","314359","0.0-3.0-2.0-0.0-0.0","6605ca045eb1a7d83eac38a9","6662009ae78f21dd82fcd179","666207db29f6b2e5fd822ab5","4696","","1","","","","","","","","<div align=center>Your goal is to predict…?<br><br></div>","","","","","","","","","",""
"html-button-response","8","323225","0.0-3.0-2.0-1.0-0.0","6605ca045eb1a7d83eac38a9","6662009ae78f21dd82fcd179","666207db29f6b2e5fd822ab5","6631","","2","","","","","","","","<div align=center>In the jar with mostly white beads, there are ___% white beads and ___% black beads?<br><br></div>","","","","","","","","","",""
"html-button-response","9","335347","0.0-3.0-2.0-2.0-0.0","6605ca045eb1a7d83eac38a9","6662009ae78f21dd82fcd179","666207db29f6b2e5fd822ab5","10411","","1","","","","","","","","<div align=center>When there is a 1% probability that the jars will switch, the next bead will most likely be drawn from the…<br><br></div>","","","","","","","","","",""
"html-button-response","10","343149","0.0-3.0-2.0-2.1-0.1","6605ca045eb1a7d83eac38a9","6662009ae78f21dd82fcd179","666207db29f6b2e5fd822ab5","4911","","0","","","","","","","","<div align=center>When there is a 1% probability that the jars will switch, the next bead will most likely be drawn from the…<br><br></div>","","","","","","","","","",""
"html-button-response","11","351043","0.0-3.0-2.0-3.0-0.0","6605ca045eb1a7d83eac38a9","6662009ae78f21dd82fcd179","666207db29f6b2e5fd822ab5","6254","","1","","","","","","","","<div align=center>When there is a 99% probability that the jars will switch, the next bead will most likely be drawn from the…<br><br></div>","","","","","","","","","",""
"instructions","12","365421","0.0-3.0-3.0","6605ca045eb1a7d83eac38a9","6662009ae78f21dd82fcd179","666207db29f6b2e5fd822ab5","12476","","","","[{""page_index"":0,""viewing_time"":12476}]","","","","","","","","","","","","","","","",""
"html-keyboard-response","13","378557","0.0-3.0-4.0-0.0","6605ca045eb1a7d83eac38a9","6662009ae78f21dd82fcd179","666207db29f6b2e5fd822ab5","13134",""," ","","","","","","","","<div align=center>In this practice block, there will be a <b>1% chance</b> that the jar on the next trial will be different from the jar on the current trial.<br><br></div>","","","","","","","","","",""
"image-keyboard-response","14","390755","0.0-3.0-4.0-1.0-0.0","6605ca045eb1a7d83eac38a9","6662009ae78f21dd82fcd179","666207db29f6b2e5fd822ab5","12191","","f","","","","","","","","./tasks/HMM-beads/Images/NoChoice.png","practice","0","0","0","0","9","0","true","",""
"image-keyboard-response","15","391071","0.0-3.0-4.0-1.0-1.0","6605ca045eb1a7d83eac38a9","6662009ae78f21dd82fcd179","666207db29f6b2e5fd822ab5","null","","null","","","","","","","","./tasks/HMM-beads/Images/BlackBeadChoice.png","","","","","","","","","",""
"image-keyboard-response","16","391576","0.0-3.0-4.0-1.0-2.0","6605ca045eb1a7d83eac38a9","6662009ae78f21dd82fcd179","666207db29f6b2e5fd822ab5","null","","null","","","","","","","","./tasks/HMM-beads/Images/BlackBeadChoiceCorrect.png","","","","","","","","","",""
"image-keyboard-response","17","404214","0.0-3.0-4.0-1.0-0.1","6605ca045eb1a7d83eac38a9","6662009ae78f21dd82fcd179","666207db29f6b2e5fd822ab5","12635","","j","","","","","","","","./tasks/HMM-beads/Images/NewTrialBC.png","practice","0","1","0","0","0","1","false","",""
"image-keyboard-response","18","404520","0.0-3.0-4.0-1.0-1.1","6605ca045eb1a7d83eac38a9","6662009ae78f21dd82fcd179","666207db29f6b2e5fd822ab5","null","","null","","","","","","","","./tasks/HMM-beads/Images/WhiteBeadChoice.png","","","","","","","","","",""
"image-keyboard-response","19","405024","0.0-3.0-4.0-1.0-2.1","6605ca045eb1a7d83eac38a9","6662009ae78f21dd82fcd179","666207db29f6b2e5fd822ab5","null","","null","","","","","","","","./tasks/HMM-beads/Images/WhiteBeadChoiceWrong.png","","","","","","","","","",""
"image-keyboard-response","20","415946","0.0-3.0-4.0-1.0-0.2","6605ca045eb1a7d83eac38a9","6662009ae78f21dd82fcd179","666207db29f6b2e5fd822ab5","10919","","f","","","","","","","","./tasks/HMM-beads/Images/NewTrialBC.png","practice","0","2","0","1","0","0","false","",""
"image-keyboard-response","21","416255","0.0-3.0-4.0-1.0-1.2","6605ca045eb1a7d83eac38a9","6662009ae78f21dd82fcd179","666207db29f6b2e5fd822ab5","null","","null","","","","","","","","./tasks/HMM-beads/Images/BlackBeadChoice.png","","","","","","","","","",""
"image-keyboard-response","22","416771","0.0-3.0-4.0-1.0-2.2","6605ca045eb1a7d83eac38a9","6662009ae78f21dd82fcd179","666207db29f6b2e5fd822ab5","null","","null","","","","","","","","./tasks/HMM-beads/Images/BlackBeadChoiceWrong.png","","","","","","","","","",""
"image-keyboard-response","23","430285","0.0-3.0-4.0-1.0-0.3","6605ca045eb1a7d83eac38a9","6662009ae78f21dd82fcd179","666207db29f6b2e5fd822ab5","13510","","j","","","","","","","","./tasks/HMM-beads/Images/NewTrialWC.png","practice","0","3","0","0","1","1","false","",""
"image-keyboard-response","24","430602","0.0-3.0-4.0-1.0-1.3","6605ca045eb1a7d83eac38a9","6662009ae78f21dd82fcd179","666207db29f6b2e5fd822ab5","null","","null","","","","","","","","./tasks/HMM-beads/Images/WhiteBeadChoice.png","","","","","","","","","",""
"image-keyboard-response","25","431107","0.0-3.0-4.0-1.0-2.3","6605ca045eb1a7d83eac38a9","6662009ae78f21dd82fcd179","666207db29f6b2e5fd822ab5","null","","null","","","","","","","","./tasks/HMM-beads/Images/WhiteBeadChoiceWrong.png","","","","","","","","","",""
"image-keyboard-response","26","437021","0.0-3.0-4.0-1.0-0.4","6605ca045eb1a7d83eac38a9","6662009ae78f21dd82fcd179","666207db29f6b2e5fd822ab5","5911","","f","","","","","","","","./tasks/HMM-beads/Images/NewTrialBC.png","practice","0","4","0","0","0","0","true","",""
"image-keyboard-response","27","437337","0.0-3.0-4.0-1.0-1.4","6605ca045eb1a7d83eac38a9","6662009ae78f21dd82fcd179","666207db29f6b2e5fd822ab5","null","","null","","","","","","","","./tasks/HMM-beads/Images/BlackBeadChoice.png","","","","","","","","","",""
"image-keyboard-response","28","437842","0.0-3.0-4.0-1.0-2.4","6605ca045eb1a7d83eac38a9","6662009ae78f21dd82fcd179","666207db29f6b2e5fd822ab5","null","","null","","","","","","","","./tasks/HMM-beads/Images/BlackBeadChoiceCorrect.png","","","","","","","","","",""
"image-keyboard-response","29","441014","0.0-3.0-4.0-1.0-0.5","6605ca045eb1a7d83eac38a9","6662009ae78f21dd82fcd179","666207db29f6b2e5fd822ab5","3169","","f","","","","","","","","./tasks/HMM-beads/Images/NewTrialBC.png","practice","0","5","0","1","0","0","false","",""
"image-keyboard-response","30","441319","0.0-3.0-4.0-1.0-1.5","6605ca045eb1a7d83eac38a9","6662009ae78f21dd82fcd179","666207db29f6b2e5fd822ab5","null","","null","","","","","","","","./tasks/HMM-beads/Images/BlackBeadChoice.png","","","","","","","","","",""
"image-keyboard-response","31","441837","0.0-3.0-4.0-1.0-2.5","6605ca045eb1a7d83eac38a9","6662009ae78f21dd82fcd179","666207db29f6b2e5fd822ab5","null","","null","","","","","","","","./tasks/HMM-beads/Images/BlackBeadChoiceWrong.png","","","","","","","","","",""
"image-keyboard-response","32","446416","0.0-3.0-4.0-1.0-0.6","6605ca045eb1a7d83eac38a9","6662009ae78f21dd82fcd179","666207db29f6b2e5fd822ab5","4576","","j","","","","","","","","./tasks/HMM-beads/Images/NewTrialWC.png","practice","0","6","0","0","1","1","false","",""
"image-keyboard-response","33","446720","0.0-3.0-4.0-1.0-1.6","6605ca045eb1a7d83eac38a9","6662009ae78f21dd82fcd179","666207db29f6b2e5fd822ab5","null","","null","","","","","","","","./tasks/HMM-beads/Images/WhiteBeadChoice.png","","","","","","","","","",""
"image-keyboard-response","34","447236","0.0-3.0-4.0-1.0-2.6","6605ca045eb1a7d83eac38a9","6662009ae78f21dd82fcd179","666207db29f6b2e5fd822ab5","null","","null","","","","","","","","./tasks/HMM-beads/Images/WhiteBeadChoiceWrong.png","","","","","","","","","",""
"image-keyboard-response","35","453846","0.0-3.0-4.0-1.0-0.7","6605ca045eb1a7d83eac38a9","6662009ae78f21dd82fcd179","666207db29f6b2e5fd822ab5","6609","","j","","","","","","","","./tasks/HMM-beads/Images/NewTrialBC.png","practice","0","7","0","0","0","1","false","",""
"image-keyboard-response","36","454152","0.0-3.0-4.0-1.0-1.7","6605ca045eb1a7d83eac38a9","6662009ae78f21dd82fcd179","666207db29f6b2e5fd822ab5","null","","null","","","","","","","","./tasks/HMM-beads/Images/WhiteBeadChoice.png","","","","","","","","","",""
"image-keyboard-response","37","454655","0.0-3.0-4.0-1.0-2.7","6605ca045eb1a7d83eac38a9","6662009ae78f21dd82fcd179","666207db29f6b2e5fd822ab5","null","","null","","","","","","","","./tasks/HMM-beads/Images/WhiteBeadChoiceWrong.png","","","","","","","","","",""
"image-keyboard-response","38","459011","0.0-3.0-4.0-1.0-0.8","6605ca045eb1a7d83eac38a9","6662009ae78f21dd82fcd179","666207db29f6b2e5fd822ab5","4352","","f","","","","","","","","./tasks/HMM-beads/Images/NewTrialBC.png","practice","0","8","0","0","0","0","true","",""
"image-keyboard-response","39","459334","0.0-3.0-4.0-1.0-1.8","6605ca045eb1a7d83eac38a9","6662009ae78f21dd82fcd179","666207db29f6b2e5fd822ab5","null","","null","","","","","","","","./tasks/HMM-beads/Images/BlackBeadChoice.png","","","","","","","","","",""
"image-keyboard-response","40","459838","0.0-3.0-4.0-1.0-2.8","6605ca045eb1a7d83eac38a9","6662009ae78f21dd82fcd179","666207db29f6b2e5fd822ab5","null","","null","","","","","","","","./tasks/HMM-beads/Images/BlackBeadChoiceCorrect.png","","","","","","","","","",""
"image-keyboard-response","41","461798","0.0-3.0-4.0-1.0-0.9","6605ca045eb1a7d83eac38a9","6662009ae78f21dd82fcd179","666207db29f6b2e5fd822ab5","1957","","f","","","","","","","","./tasks/HMM-beads/Images/NewTrialBC.png","practice","0","9","0","1","0","0","false","",""
"image-keyboard-response","42","462117","0.0-3.0-4.0-1.0-1.9","6605ca045eb1a7d83eac38a9","6662009ae78f21dd82fcd179","666207db29f6b2e5fd822ab5","null","","null","","","","","","","","./tasks/HMM-beads/Images/BlackBeadChoice.png","","","","","","","","","",""
"image-keyboard-response","43","462621","0.0-3.0-4.0-1.0-2.9","6605ca045eb1a7d83eac38a9","6662009ae78f21dd82fcd179","666207db29f6b2e5fd822ab5","null","","null","","","","","","","","./tasks/HMM-beads/Images/BlackBeadChoiceWrong.png","","","","","","","","","",""
"image-keyboard-response","44","471669","0.0-3.0-4.0-1.0-0.10","6605ca045eb1a7d83eac38a9","6662009ae78f21dd82fcd179","666207db29f6b2e5fd822ab5","9045","","f","","","","","","","","./tasks/HMM-beads/Images/NewTrialWC.png","practice","0","10","0","0","1","0","true","",""
"image-keyboard-response","45","471984","0.0-3.0-4.0-1.0-1.10","6605ca045eb1a7d83eac38a9","6662009ae78f21dd82fcd179","666207db29f6b2e5fd822ab5","null","","null","","","","","","","","./tasks/HMM-beads/Images/BlackBeadChoice.png","","","","","","","","","",""
"image-keyboard-response","46","472488","0.0-3.0-4.0-1.0-2.10","6605ca045eb1a7d83eac38a9","6662009ae78f21dd82fcd179","666207db29f6b2e5fd822ab5","null","","null","","","","","","","","./tasks/HMM-beads/Images/BlackBeadChoiceCorrect.png","","","","","","","","","",""
"image-keyboard-response","47","476484","0.0-3.0-4.0-1.0-0.11","6605ca045eb1a7d83eac38a9","6662009ae78f21dd82fcd179","666207db29f6b2e5fd822ab5","3994","","f","","","","","","","","./tasks/HMM-beads/Images/NewTrialBC.png","practice","0","11","0","1","0","0","false","",""
"image-keyboard-response","48","476800","0.0-3.0-4.0-1.0-1.11","6605ca045eb1a7d83eac38a9","6662009ae78f21dd82fcd179","666207db29f6b2e5fd822ab5","null","","null","","","","","","","","./tasks/HMM-beads/Images/BlackBeadChoice.png","","","","","","","","","",""
"image-keyboard-response","49","477303","0.0-3.0-4.0-1.0-2.11","6605ca045eb1a7d83eac38a9","6662009ae78f21dd82fcd179","666207db29f6b2e5fd822ab5","null","","null","","","","","","","","./tasks/HMM-beads/Images/BlackBeadChoiceWrong.png","","","","","","","","","",""
"image-keyboard-response","50","485910","0.0-3.0-4.0-1.0-0.12","6605ca045eb1a7d83eac38a9","6662009ae78f21dd82fcd179","666207db29f6b2e5fd822ab5","8605","","j","","","","","","","","./tasks/HMM-beads/Images/NewTrialWC.png","practice","0","12","0","0","1","1","false","",""
"image-keyboard-response","51","486216","0.0-3.0-4.0-1.0-1.12","6605ca045eb1a7d83eac38a9","6662009ae78f21dd82fcd179","666207db29f6b2e5fd822ab5","null","","null","","","","","","","","./tasks/HMM-beads/Images/WhiteBeadChoice.png","","","","","","","","","",""
"image-keyboard-response","52","486736","0.0-3.0-4.0-1.0-2.12","6605ca045eb1a7d83eac38a9","6662009ae78f21dd82fcd179","666207db29f6b2e5fd822ab5","null","","null","","","","","","","","./tasks/HMM-beads/Images/WhiteBeadChoiceWrong.png","","","","","","","","","",""
"image-keyboard-response","53","487784","0.0-3.0-4.0-1.0-0.13","6605ca045eb1a7d83eac38a9","6662009ae78f21dd82fcd179","666207db29f6b2e5fd822ab5","1060","","f","","","","","","","","./tasks/HMM-beads/Images/NewTrialBC.png","practice","0","13","0","0","0","0","true","",""
"image-keyboard-response","54","488101","0.0-3.0-4.0-1.0-1.13","6605ca045eb1a7d83eac38a9","6662009ae78f21dd82fcd179","666207db29f6b2e5fd822ab5","null","","null","","","","","","","","./tasks/HMM-beads/Images/BlackBeadChoice.png","","","","","","","","","",""
"image-keyboard-response","55","488605","0.0-3.0-4.0-1.0-2.13","6605ca045eb1a7d83eac38a9","6662009ae78f21dd82fcd179","666207db29f6b2e5fd822ab5","null","","null","","","","","","","","./tasks/HMM-beads/Images/BlackBeadChoiceCorrect.png","","","","","","","","","",""
"image-keyboard-response","56","490847","0.0-3.0-4.0-1.0-0.14","6605ca045eb1a7d83eac38a9","6662009ae78f21dd82fcd179","666207db29f6b2e5fd822ab5","2239","","f","","","","","","","","./tasks/HMM-beads/Images/NewTrialBC.png","practice","0","14","0","0","0","0","true","",""
"image-keyboard-response","57","491152","0.0-3.0-4.0-1.0-1.14","6605ca045eb1a7d83eac38a9","6662009ae78f21dd82fcd179","666207db29f6b2e5fd822ab5","null","","null","","","","","","","","./tasks/HMM-beads/Images/BlackBeadChoice.png","","","","","","","","","",""
"image-keyboard-response","58","491655","0.0-3.0-4.0-1.0-2.14","6605ca045eb1a7d83eac38a9","6662009ae78f21dd82fcd179","666207db29f6b2e5fd822ab5","null","","null","","","","","","","","./tasks/HMM-beads/Images/BlackBeadChoiceCorrect.png","","","","","","","","","",""
"image-keyboard-response","59","492901","0.0-3.0-4.0-1.0-0.15","6605ca045eb1a7d83eac38a9","6662009ae78f21dd82fcd179","666207db29f6b2e5fd822ab5","1243","","f","","","","","","","","./tasks/HMM-beads/Images/NewTrialBC.png","practice","0","15","0","0","0","0","true","",""
"image-keyboard-response","60","493218","0.0-3.0-4.0-1.0-1.15","6605ca045eb1a7d83eac38a9","6662009ae78f21dd82fcd179","666207db29f6b2e5fd822ab5","null","","null","","","","","","","","./tasks/HMM-beads/Images/BlackBeadChoice.png","","","","","","","","","",""
"image-keyboard-response","61","493722","0.0-3.0-4.0-1.0-2.15","6605ca045eb1a7d83eac38a9","6662009ae78f21dd82fcd179","666207db29f6b2e5fd822ab5","null","","null","","","","","","","","./tasks/HMM-beads/Images/BlackBeadChoiceCorrect.png","","","","","","","","","",""
"image-keyboard-response","62","494883","0.0-3.0-4.0-1.0-0.16","6605ca045eb1a7d83eac38a9","6662009ae78f21dd82fcd179","666207db29f6b2e5fd822ab5","1157","","f","","","","","","","","./tasks/HMM-beads/Images/NewTrialBC.png","practice","0","16","0","0","0","0","true","",""
"image-keyboard-response","63","495187","0.0-3.0-4.0-1.0-1.16","6605ca045eb1a7d83eac38a9","6662009ae78f21dd82fcd179","666207db29f6b2e5fd822ab5","null","","null","","","","","","","","./tasks/HMM-beads/Images/BlackBeadChoice.png","","","","","","","","","",""
"image-keyboard-response","64","495702","0.0-3.0-4.0-1.0-2.16","6605ca045eb1a7d83eac38a9","6662009ae78f21dd82fcd179","666207db29f6b2e5fd822ab5","null","","null","","","","","","","","./tasks/HMM-beads/Images/BlackBeadChoiceCorrect.png","","","","","","","","","",""
"image-keyboard-response","65","496647","0.0-3.0-4.0-1.0-0.17","6605ca045eb1a7d83eac38a9","6662009ae78f21dd82fcd179","666207db29f6b2e5fd822ab5","937","","f","","","","","","","","./tasks/HMM-beads/Images/NewTrialBC.png","practice","0","17","0","0","0","0","true","",""
"image-keyboard-response","66","496954","0.0-3.0-4.0-1.0-1.17","6605ca045eb1a7d83eac38a9","6662009ae78f21dd82fcd179","666207db29f6b2e5fd822ab5","null","","null","","","","","","","","./tasks/HMM-beads/Images/BlackBeadChoice.png","","","","","","","","","",""
"image-keyboard-response","67","497460","0.0-3.0-4.0-1.0-2.17","6605ca045eb1a7d83eac38a9","6662009ae78f21dd82fcd179","666207db29f6b2e5fd822ab5","null","","null","","","","","","","","./tasks/HMM-beads/Images/BlackBeadChoiceCorrect.png","","","","","","","","","",""
"image-keyboard-response","68","498323","0.0-3.0-4.0-1.0-0.18","6605ca045eb1a7d83eac38a9","6662009ae78f21dd82fcd179","666207db29f6b2e5fd822ab5","860","","f","","","","","","","","./tasks/HMM-beads/Images/NewTrialBC.png","practice","0","18","0","1","0","0","false","",""
"image-keyboard-response","69","498634","0.0-3.0-4.0-1.0-1.18","6605ca045eb1a7d83eac38a9","6662009ae78f21dd82fcd179","666207db29f6b2e5fd822ab5","null","","null","","","","","","","","./tasks/HMM-beads/Images/BlackBeadChoice.png","","","","","","","","","",""
"image-keyboard-response","70","499138","0.0-3.0-4.0-1.0-2.18","6605ca045eb1a7d83eac38a9","6662009ae78f21dd82fcd179","666207db29f6b2e5fd822ab5","null","","null","","","","","","","","./tasks/HMM-beads/Images/BlackBeadChoiceWrong.png","","","","","","","","","",""
"image-keyboard-response","71","501918","0.0-3.0-4.0-1.0-0.19","6605ca045eb1a7d83eac38a9","6662009ae78f21dd82fcd179","666207db29f6b2e5fd822ab5","2777","","j","","","","","","","","./tasks/HMM-beads/Images/NewTrialWC.png","practice","0","19","0","0","1","1","false","",""
"image-keyboard-response","72","502234","0.0-3.0-4.0-1.0-1.19","6605ca045eb1a7d83eac38a9","6662009ae78f21dd82fcd179","666207db29f6b2e5fd822ab5","null","","null","","","","","","","","./tasks/HMM-beads/Images/WhiteBeadChoice.png","","","","","","","","","",""
"image-keyboard-response","73","502737","0.0-3.0-4.0-1.0-2.19","6605ca045eb1a7d83eac38a9","6662009ae78f21dd82fcd179","666207db29f6b2e5fd822ab5","null","","null","","","","","","","","./tasks/HMM-beads/Images/WhiteBeadChoiceWrong.png","","","","","","","","","",""
"image-keyboard-response","74","503136","0.0-3.0-4.0-1.0-0.20","6605ca045eb1a7d83eac38a9","6662009ae78f21dd82fcd179","666207db29f6b2e5fd822ab5","395","","f","","","","","","","","./tasks/HMM-beads/Images/NewTrialBC.png","practice","0","20","0","0","0","0","true","",""
"image-keyboard-response","75","503452","0.0-3.0-4.0-1.0-1.20","6605ca045eb1a7d83eac38a9","6662009ae78f21dd82fcd179","666207db29f6b2e5fd822ab5","null","","null","","","","","","","","./tasks/HMM-beads/Images/BlackBeadChoice.png","","","","","","","","","",""
"image-keyboard-response","76","503955","0.0-3.0-4.0-1.0-2.20","6605ca045eb1a7d83eac38a9","6662009ae78f21dd82fcd179","666207db29f6b2e5fd822ab5","null","","null","","","","","","","","./tasks/HMM-beads/Images/BlackBeadChoiceCorrect.png","","","","","","","","","",""
"image-keyboard-response","77","505023","0.0-3.0-4.0-1.0-0.21","6605ca045eb1a7d83eac38a9","6662009ae78f21dd82fcd179","666207db29f6b2e5fd822ab5","1066","","f","","","","","","","","./tasks/HMM-beads/Images/NewTrialBC.png","practice","0","21","0","1","0","0","false","",""
"image-keyboard-response","78","505333","0.0-3.0-4.0-1.0-1.21","6605ca045eb1a7d83eac38a9","6662009ae78f21dd82fcd179","666207db29f6b2e5fd822ab5","null","","null","","","","","","","","./tasks/HMM-beads/Images/BlackBeadChoice.png","","","","","","","","","",""
"image-keyboard-response","79","505838","0.0-3.0-4.0-1.0-2.21","6605ca045eb1a7d83eac38a9","6662009ae78f21dd82fcd179","666207db29f6b2e5fd822ab5","null","","null","","","","","","","","./tasks/HMM-beads/Images/BlackBeadChoiceWrong.png","","","","","","","","","",""
"image-keyboard-response","80","510763","0.0-3.0-4.0-1.0-0.22","6605ca045eb1a7d83eac38a9","6662009ae78f21dd82fcd179","666207db29f6b2e5fd822ab5","4923","","j","","","","","","","","./tasks/HMM-beads/Images/NewTrialWC.png","practice","0","22","1","1","1","1","true","",""
"image-keyboard-response","81","511068","0.0-3.0-4.0-1.0-1.22","6605ca045eb1a7d83eac38a9","6662009ae78f21dd82fcd179","666207db29f6b2e5fd822ab5","null","","null","","","","","","","","./tasks/HMM-beads/Images/WhiteBeadChoice.png","","","","","","","","","",""
"image-keyboard-response","82","511571","0.0-3.0-4.0-1.0-2.22","6605ca045eb1a7d83eac38a9","6662009ae78f21dd82fcd179","666207db29f6b2e5fd822ab5","null","","null","","","","","","","","./tasks/HMM-beads/Images/WhiteBeadChoiceCorrect.png","","","","","","","","","",""
"image-keyboard-response","83","512206","0.0-3.0-4.0-1.0-0.23","6605ca045eb1a7d83eac38a9","6662009ae78f21dd82fcd179","666207db29f6b2e5fd822ab5","632","","j","","","","","","","","./tasks/HMM-beads/Images/NewTrialWC.png","practice","0","23","1","0","1","1","false","",""
"image-keyboard-response","84","512515","0.0-3.0-4.0-1.0-1.23","6605ca045eb1a7d83eac38a9","6662009ae78f21dd82fcd179","666207db29f6b2e5fd822ab5","null","","null","","","","","","","","./tasks/HMM-beads/Images/WhiteBeadChoice.png","","","","","","","","","",""
"image-keyboard-response","85","513022","0.0-3.0-4.0-1.0-2.23","6605ca045eb1a7d83eac38a9","6662009ae78f21dd82fcd179","666207db29f6b2e5fd822ab5","null","","null","","","","","","","","./tasks/HMM-beads/Images/WhiteBeadChoiceWrong.png","","","","","","","","","",""
"image-keyboard-response","86","513471","0.0-3.0-4.0-1.0-0.24","6605ca045eb1a7d83eac38a9","6662009ae78f21dd82fcd179","666207db29f6b2e5fd822ab5","445","","f","","","","","","","","./tasks/HMM-beads/Images/NewTrialBC.png","practice","0","24","1","1","0","0","false","",""
"image-keyboard-response","87","513783","0.0-3.0-4.0-1.0-1.24","6605ca045eb1a7d83eac38a9","6662009ae78f21dd82fcd179","666207db29f6b2e5fd822ab5","null","","null","","","","","","","","./tasks/HMM-beads/Images/BlackBeadChoice.png","","","","","","","","","",""
"image-keyboard-response","88","514288","0.0-3.0-4.0-1.0-2.24","6605ca045eb1a7d83eac38a9","6662009ae78f21dd82fcd179","666207db29f6b2e5fd822ab5","null","","null","","","","","","","","./tasks/HMM-beads/Images/BlackBeadChoiceWrong.png","","","","","","","","","",""
"image-keyboard-response","89","519412","0.0-3.0-4.0-1.0-0.25","6605ca045eb1a7d83eac38a9","6662009ae78f21dd82fcd179","666207db29f6b2e5fd822ab5","5122","","f","","","","","","","","./tasks/HMM-beads/Images/NewTrialWC.png","practice","0","25","1","1","1","0","false","",""
"image-keyboard-response","90","519717","0.0-3.0-4.0-1.0-1.25","6605ca045eb1a7d83eac38a9","6662009ae78f21dd82fcd179","666207db29f6b2e5fd822ab5","null","","null","","","","","","","","./tasks/HMM-beads/Images/BlackBeadChoice.png","","","","","","","","","",""
"image-keyboard-response","91","520236","0.0-3.0-4.0-1.0-2.25","6605ca045eb1a7d83eac38a9","6662009ae78f21dd82fcd179","666207db29f6b2e5fd822ab5","null","","null","","","","","","","","./tasks/HMM-beads/Images/BlackBeadChoiceWrong.png","","","","","","","","","",""
"image-keyboard-response","92","522158","0.0-3.0-4.0-1.0-0.26","6605ca045eb1a7d83eac38a9","6662009ae78f21dd82fcd179","666207db29f6b2e5fd822ab5","1919","","j","","","","","","","","./tasks/HMM-beads/Images/NewTrialWC.png","practice","0","26","1","1","1","1","true","",""
"image-keyboard-response","93","522466","0.0-3.0-4.0-1.0-1.26","6605ca045eb1a7d83eac38a9","6662009ae78f21dd82fcd179","666207db29f6b2e5fd822ab5","null","","null","","","","","","","","./tasks/HMM-beads/Images/WhiteBeadChoice.png","","","","","","","","","",""
"image-keyboard-response","94","522970","0.0-3.0-4.0-1.0-2.26","6605ca045eb1a7d83eac38a9","6662009ae78f21dd82fcd179","666207db29f6b2e5fd822ab5","null","","null","","","","","","","","./tasks/HMM-beads/Images/WhiteBeadChoiceCorrect.png","","","","","","","","","",""
"image-keyboard-response","95","523818","0.0-3.0-4.0-1.0-0.27","6605ca045eb1a7d83eac38a9","6662009ae78f21dd82fcd179","666207db29f6b2e5fd822ab5","846","","j","","","","","","","","./tasks/HMM-beads/Images/NewTrialWC.png","practice","0","27","1","1","1","1","true","",""
"image-keyboard-response","96","524132","0.0-3.0-4.0-1.0-1.27","6605ca045eb1a7d83eac38a9","6662009ae78f21dd82fcd179","666207db29f6b2e5fd822ab5","null","","null","","","","","","","","./tasks/HMM-beads/Images/WhiteBeadChoice.png","","","","","","","","","",""
"image-keyboard-response","97","524637","0.0-3.0-4.0-1.0-2.27","6605ca045eb1a7d83eac38a9","6662009ae78f21dd82fcd179","666207db29f6b2e5fd822ab5","null","","null","","","","","","","","./tasks/HMM-beads/Images/WhiteBeadChoiceCorrect.png","","","","","","","","","",""
"image-keyboard-response","98","525289","0.0-3.0-4.0-1.0-0.28","6605ca045eb1a7d83eac38a9","6662009ae78f21dd82fcd179","666207db29f6b2e5fd822ab5","652","","j","","","","","","","","./tasks/HMM-beads/Images/NewTrialWC.png","practice","0","28","1","0","1","1","false","",""
"image-keyboard-response","99","525599","0.0-3.0-4.0-1.0-1.28","6605ca045eb1a7d83eac38a9","6662009ae78f21dd82fcd179","666207db29f6b2e5fd822ab5","null","","null","","","","","","","","./tasks/HMM-beads/Images/WhiteBeadChoice.png","","","","","","","","","",""
"image-keyboard-response","100","526104","0.0-3.0-4.0-1.0-2.28","6605ca045eb1a7d83eac38a9","6662009ae78f21dd82fcd179","666207db29f6b2e5fd822ab5","null","","null","","","","","","","","./tasks/HMM-beads/Images/WhiteBeadChoiceWrong.png","","","","","","","","","",""
"image-keyboard-response","101","527365","0.0-3.0-4.0-1.0-0.29","6605ca045eb1a7d83eac38a9","6662009ae78f21dd82fcd179","666207db29f6b2e5fd822ab5","1259","","f","","","","","","","","./tasks/HMM-beads/Images/NewTrialBC.png","practice","0","29","1","1","0","0","false","",""
"image-keyboard-response","102","527668","0.0-3.0-4.0-1.0-1.29","6605ca045eb1a7d83eac38a9","6662009ae78f21dd82fcd179","666207db29f6b2e5fd822ab5","null","","null","","","","","","","","./tasks/HMM-beads/Images/BlackBeadChoice.png","","","","","","","","","",""
"image-keyboard-response","103","528186","0.0-3.0-4.0-1.0-2.29","6605ca045eb1a7d83eac38a9","6662009ae78f21dd82fcd179","666207db29f6b2e5fd822ab5","null","","null","","","","","","","","./tasks/HMM-beads/Images/BlackBeadChoiceWrong.png","","","","","","","","","",""
"image-keyboard-response","104","530450","0.0-3.0-4.0-1.0-0.30","6605ca045eb1a7d83eac38a9","6662009ae78f21dd82fcd179","666207db29f6b2e5fd822ab5","2256","","j","","","","","","","","./tasks/HMM-beads/Images/NewTrialWC.png","practice","0","30","1","0","1","1","false","",""
"image-keyboard-response","105","530766","0.0-3.0-4.0-1.0-1.30","6605ca045eb1a7d83eac38a9","6662009ae78f21dd82fcd179","666207db29f6b2e5fd822ab5","null","","null","","","","","","","","./tasks/HMM-beads/Images/WhiteBeadChoice.png","","","","","","","","","",""
"image-keyboard-response","106","531270","0.0-3.0-4.0-1.0-2.30","6605ca045eb1a7d83eac38a9","6662009ae78f21dd82fcd179","666207db29f6b2e5fd822ab5","null","","null","","","","","","","","./tasks/HMM-beads/Images/WhiteBeadChoiceWrong.png","","","","","","","","","",""
"image-keyboard-response","107","531619","0.0-3.0-4.0-1.0-0.31","6605ca045eb1a7d83eac38a9","6662009ae78f21dd82fcd179","666207db29f6b2e5fd822ab5","346","","f","","","","","","","","./tasks/HMM-beads/Images/NewTrialBC.png","practice","0","31","1","1","0","0","false","",""
"image-keyboard-response","108","531933","0.0-3.0-4.0-1.0-1.31","6605ca045eb1a7d83eac38a9","6662009ae78f21dd82fcd179","666207db29f6b2e5fd822ab5","null","","null","","","","","","","","./tasks/HMM-beads/Images/BlackBeadChoice.png","","","","","","","","","",""
"image-keyboard-response","109","532437","0.0-3.0-4.0-1.0-2.31","6605ca045eb1a7d83eac38a9","6662009ae78f21dd82fcd179","666207db29f6b2e5fd822ab5","null","","null","","","","","","","","./tasks/HMM-beads/Images/BlackBeadChoiceWrong.png","","","","","","","","","",""
"image-keyboard-response","110","538876","0.0-3.0-4.0-1.0-0.32","6605ca045eb1a7d83eac38a9","6662009ae78f21dd82fcd179","666207db29f6b2e5fd822ab5","6437","","f","","","","","","","","./tasks/HMM-beads/Images/NewTrialWC.png","practice","0","32","1","1","1","0","false","",""
"image-keyboard-response","111","539183","0.0-3.0-4.0-1.0-1.32","6605ca045eb1a7d83eac38a9","6662009ae78f21dd82fcd179","666207db29f6b2e5fd822ab5","null","","null","","","","","","","","./tasks/HMM-beads/Images/BlackBeadChoice.png","","","","","","","","","",""
"image-keyboard-response","112","539687","0.0-3.0-4.0-1.0-2.32","6605ca045eb1a7d83eac38a9","6662009ae78f21dd82fcd179","666207db29f6b2e5fd822ab5","null","","null","","","","","","","","./tasks/HMM-beads/Images/BlackBeadChoiceWrong.png","","","","","","","","","",""
"image-keyboard-response","113","541625","0.0-3.0-4.0-1.0-0.33","6605ca045eb1a7d83eac38a9","6662009ae78f21dd82fcd179","666207db29f6b2e5fd822ab5","1936","","j","","","","","","","","./tasks/HMM-beads/Images/NewTrialWC.png","practice","0","33","1","1","1","1","true","",""
"image-keyboard-response","114","541933","0.0-3.0-4.0-1.0-1.33","6605ca045eb1a7d83eac38a9","6662009ae78f21dd82fcd179","666207db29f6b2e5fd822ab5","null","","null","","","","","","","","./tasks/HMM-beads/Images/WhiteBeadChoice.png","","","","","","","","","",""
"image-keyboard-response","115","542436","0.0-3.0-4.0-1.0-2.33","6605ca045eb1a7d83eac38a9","6662009ae78f21dd82fcd179","666207db29f6b2e5fd822ab5","null","","null","","","","","","","","./tasks/HMM-beads/Images/WhiteBeadChoiceCorrect.png","","","","","","","","","",""
"image-keyboard-response","116","542746","0.0-3.0-4.0-1.0-0.34","6605ca045eb1a7d83eac38a9","6662009ae78f21dd82fcd179","666207db29f6b2e5fd822ab5","307","","j","","","","","","","","./tasks/HMM-beads/Images/NewTrialWC.png","practice","0","34","1","1","1","1","true","",""
"image-keyboard-response","117","543065","0.0-3.0-4.0-1.0-1.34","6605ca045eb1a7d83eac38a9","6662009ae78f21dd82fcd179","666207db29f6b2e5fd822ab5","null","","null","","","","","","","","./tasks/HMM-beads/Images/WhiteBeadChoice.png","","","","","","","","","",""
"image-keyboard-response","118","543569","0.0-3.0-4.0-1.0-2.34","6605ca045eb1a7d83eac38a9","6662009ae78f21dd82fcd179","666207db29f6b2e5fd822ab5","null","","null","","","","","","","","./tasks/HMM-beads/Images/WhiteBeadChoiceCorrect.png","","","","","","","","","",""
"image-keyboard-response","119","544307","0.0-3.0-4.0-1.0-0.35","6605ca045eb1a7d83eac38a9","6662009ae78f21dd82fcd179","666207db29f6b2e5fd822ab5","735","","j","","","","","","","","./tasks/HMM-beads/Images/NewTrialWC.png","practice","0","35","1","1","1","1","true","",""
"image-keyboard-response","120","544615","0.0-3.0-4.0-1.0-1.35","6605ca045eb1a7d83eac38a9","6662009ae78f21dd82fcd179","666207db29f6b2e5fd822ab5","null","","null","","","","","","","","./tasks/HMM-beads/Images/WhiteBeadChoice.png","","","","","","","","","",""
"image-keyboard-response","121","545123","0.0-3.0-4.0-1.0-2.35","6605ca045eb1a7d83eac38a9","6662009ae78f21dd82fcd179","666207db29f6b2e5fd822ab5","null","","null","","","","","","","","./tasks/HMM-beads/Images/WhiteBeadChoiceCorrect.png","","","","","","","","","",""
"image-keyboard-response","122","546543","0.0-3.0-4.0-1.0-0.36","6605ca045eb1a7d83eac38a9","6662009ae78f21dd82fcd179","666207db29f6b2e5fd822ab5","1418","","j","","","","","","","","./tasks/HMM-beads/Images/NewTrialWC.png","practice","0","36","1","0","1","1","false","",""
"image-keyboard-response","123","546848","0.0-3.0-4.0-1.0-1.36","6605ca045eb1a7d83eac38a9","6662009ae78f21dd82fcd179","666207db29f6b2e5fd822ab5","null","","null","","","","","","","","./tasks/HMM-beads/Images/WhiteBeadChoice.png","","","","","","","","","",""
"image-keyboard-response","124","547354","0.0-3.0-4.0-1.0-2.36","6605ca045eb1a7d83eac38a9","6662009ae78f21dd82fcd179","666207db29f6b2e5fd822ab5","null","","null","","","","","","","","./tasks/HMM-beads/Images/WhiteBeadChoiceWrong.png","","","","","","","","","",""
"image-keyboard-response","125","548648","0.0-3.0-4.0-1.0-0.37","6605ca045eb1a7d83eac38a9","6662009ae78f21dd82fcd179","666207db29f6b2e5fd822ab5","1287","","f","","","","","","","","./tasks/HMM-beads/Images/NewTrialBC.png","practice","0","37","1","1","0","0","false","",""
"image-keyboard-response","126","548953","0.0-3.0-4.0-1.0-1.37","6605ca045eb1a7d83eac38a9","6662009ae78f21dd82fcd179","666207db29f6b2e5fd822ab5","null","","null","","","","","","","","./tasks/HMM-beads/Images/BlackBeadChoice.png","","","","","","","","","",""
"image-keyboard-response","127","549457","0.0-3.0-4.0-1.0-2.37","6605ca045eb1a7d83eac38a9","6662009ae78f21dd82fcd179","666207db29f6b2e5fd822ab5","null","","null","","","","","","","","./tasks/HMM-beads/Images/BlackBeadChoiceWrong.png","","","","","","","","","",""
"image-keyboard-response","128","552798","0.0-3.0-4.0-1.0-0.38","6605ca045eb1a7d83eac38a9","6662009ae78f21dd82fcd179","666207db29f6b2e5fd822ab5","3339","","f","","","","","","","","./tasks/HMM-beads/Images/NewTrialWC.png","practice","0","38","1","1","1","0","false","",""
"image-keyboard-response","129","553103","0.0-3.0-4.0-1.0-1.38","6605ca045eb1a7d83eac38a9","6662009ae78f21dd82fcd179","666207db29f6b2e5fd822ab5","null","","null","","","","","","","","./tasks/HMM-beads/Images/BlackBeadChoice.png","","","","","","","","","",""
"image-keyboard-response","130","553622","0.0-3.0-4.0-1.0-2.38","6605ca045eb1a7d83eac38a9","6662009ae78f21dd82fcd179","666207db29f6b2e5fd822ab5","null","","null","","","","","","","","./tasks/HMM-beads/Images/BlackBeadChoiceWrong.png","","","","","","","","","",""
"image-keyboard-response","131","557070","0.0-3.0-4.0-1.0-0.39","6605ca045eb1a7d83eac38a9","6662009ae78f21dd82fcd179","666207db29f6b2e5fd822ab5","3445","","f","","","","","","","","./tasks/HMM-beads/Images/NewTrialWC.png","practice","0","39","1","1","1","0","false","",""
"image-keyboard-response","132","557386","0.0-3.0-4.0-1.0-1.39","6605ca045eb1a7d83eac38a9","6662009ae78f21dd82fcd179","666207db29f6b2e5fd822ab5","null","","null","","","","","","","","./tasks/HMM-beads/Images/BlackBeadChoice.png","","","","","","","","","",""
"image-keyboard-response","133","557890","0.0-3.0-4.0-1.0-2.39","6605ca045eb1a7d83eac38a9","6662009ae78f21dd82fcd179","666207db29f6b2e5fd822ab5","null","","null","","","","","","","","./tasks/HMM-beads/Images/BlackBeadChoiceWrong.png","","","","","","","","","",""
"html-keyboard-response","134","561905","0.0-3.0-4.0-2.0","6605ca045eb1a7d83eac38a9","6662009ae78f21dd82fcd179","666207db29f6b2e5fd822ab5","4011",""," ","","","","","","","","","","","","","","","","","",""
"instructions","135","582893","0.0-3.0-5.0","6605ca045eb1a7d83eac38a9","6662009ae78f21dd82fcd179","666207db29f6b2e5fd822ab5","20986","","","","[{""page_index"":0,""viewing_time"":15148},{""page_index"":1,""viewing_time"":5838}]","","","","","","","","","","","","","","","",""
"html-keyboard-response","136","588663","0.0-3.0-6.0-0.0","6605ca045eb1a7d83eac38a9","6662009ae78f21dd82fcd179","666207db29f6b2e5fd822ab5","5769",""," ","","","","","","","","<div align=center>In this block, there will be a <b>1% chance</b> that the jar on the next trial will be different from the jar on the current trial.<br><br></div>","","","","","","","","","",""
"image-keyboard-response","137","592427","0.0-3.0-6.0-1.0-0.0","6605ca045eb1a7d83eac38a9","6662009ae78f21dd82fcd179","666207db29f6b2e5fd822ab5","3762","","f","","","","","","","","./tasks/HMM-beads/Images/NoChoice.png","lowH","1","0","1","0","9","0","true","",""
"image-keyboard-response","138","592735","0.0-3.0-6.0-1.0-1.0","6605ca045eb1a7d83eac38a9","6662009ae78f21dd82fcd179","666207db29f6b2e5fd822ab5","null","","null","","","","","","","","./tasks/HMM-beads/Images/BlackBeadChoice.png","","","","","","","","","",""
"image-keyboard-response","139","593238","0.0-3.0-6.0-1.0-2.0","6605ca045eb1a7d83eac38a9","6662009ae78f21dd82fcd179","666207db29f6b2e5fd822ab5","null","","null","","","","","","","","./tasks/HMM-beads/Images/BlackBeadChoiceCorrect.png","","","","","","","","","",""
"image-keyboard-response","140","596806","0.0-3.0-6.0-1.0-0.1","6605ca045eb1a7d83eac38a9","6662009ae78f21dd82fcd179","666207db29f6b2e5fd822ab5","3566","","f","","","","","","","","./tasks/HMM-beads/Images/NewTrialBC.png","lowH","1","1","1","1","0","0","false","",""
"image-keyboard-response","141","597116","0.0-3.0-6.0-1.0-1.1","6605ca045eb1a7d83eac38a9","6662009ae78f21dd82fcd179","666207db29f6b2e5fd822ab5","null","","null","","","","","","","","./tasks/HMM-beads/Images/BlackBeadChoice.png","","","","","","","","","",""
"image-keyboard-response","142","597622","0.0-3.0-6.0-1.0-2.1","6605ca045eb1a7d83eac38a9","6662009ae78f21dd82fcd179","666207db29f6b2e5fd822ab5","null","","null","","","","","","","","./tasks/HMM-beads/Images/BlackBeadChoiceWrong.png","","","","","","","","","",""
"image-keyboard-response","143","598997","0.0-3.0-6.0-1.0-0.2","6605ca045eb1a7d83eac38a9","6662009ae78f21dd82fcd179","666207db29f6b2e5fd822ab5","1372","","f","","","","","","","","./tasks/HMM-beads/Images/NewTrialWC.png","lowH","1","2","1","1","1","0","false","",""
"image-keyboard-response","144","599317","0.0-3.0-6.0-1.0-1.2","6605ca045eb1a7d83eac38a9","6662009ae78f21dd82fcd179","666207db29f6b2e5fd822ab5","null","","null","","","","","","","","./tasks/HMM-beads/Images/BlackBeadChoice.png","","","","","","","","","",""
"image-keyboard-response","145","599821","0.0-3.0-6.0-1.0-2.2","6605ca045eb1a7d83eac38a9","6662009ae78f21dd82fcd179","666207db29f6b2e5fd822ab5","null","","null","","","","","","","","./tasks/HMM-beads/Images/BlackBeadChoiceWrong.png","","","","","","","","","",""
"image-keyboard-response","146","600961","0.0-3.0-6.0-1.0-0.3","6605ca045eb1a7d83eac38a9","6662009ae78f21dd82fcd179","666207db29f6b2e5fd822ab5","1130","","f","","","","","","","","./tasks/HMM-beads/Images/NewTrialWC.png","lowH","1","3","1","1","1","0","false","",""
"image-keyboard-response","147","601267","0.0-3.0-6.0-1.0-1.3","6605ca045eb1a7d83eac38a9","6662009ae78f21dd82fcd179","666207db29f6b2e5fd822ab5","null","","null","","","","","","","","./tasks/HMM-beads/Images/BlackBeadChoice.png","","","","","","","","","",""
"image-keyboard-response","148","601770","0.0-3.0-6.0-1.0-2.3","6605ca045eb1a7d83eac38a9","6662009ae78f21dd82fcd179","666207db29f6b2e5fd822ab5","null","","null","","","","","","","","./tasks/HMM-beads/Images/BlackBeadChoiceWrong.png","","","","","","","","","",""
"image-keyboard-response","149","603898","0.0-3.0-6.0-1.0-0.4","6605ca045eb1a7d83eac38a9","6662009ae78f21dd82fcd179","666207db29f6b2e5fd822ab5","2126","","f","","","","","","","","./tasks/HMM-beads/Images/NewTrialWC.png","lowH","1","4","1","1","1","0","false","",""
"image-keyboard-response","150","604202","0.0-3.0-6.0-1.0-1.4","6605ca045eb1a7d83eac38a9","6662009ae78f21dd82fcd179","666207db29f6b2e5fd822ab5","null","","null","","","","","","","","./tasks/HMM-beads/Images/BlackBeadChoice.png","","","","","","","","","",""
"image-keyboard-response","151","604705","0.0-3.0-6.0-1.0-2.4","6605ca045eb1a7d83eac38a9","6662009ae78f21dd82fcd179","666207db29f6b2e5fd822ab5","null","","null","","","","","","","","./tasks/HMM-beads/Images/BlackBeadChoiceWrong.png","","","","","","","","","",""
"image-keyboard-response","152","605851","0.0-3.0-6.0-1.0-0.5","6605ca045eb1a7d83eac38a9","6662009ae78f21dd82fcd179","666207db29f6b2e5fd822ab5","1145","","j","","","","","","","","./tasks/HMM-beads/Images/NewTrialWC.png","lowH","1","5","1","1","1","1","true","",""
"image-keyboard-response","153","606165","0.0-3.0-6.0-1.0-1.5","6605ca045eb1a7d83eac38a9","6662009ae78f21dd82fcd179","666207db29f6b2e5fd822ab5","null","","null","","","","","","","","./tasks/HMM-beads/Images/WhiteBeadChoice.png","","","","","","","","","",""
"image-keyboard-response","154","606671","0.0-3.0-6.0-1.0-2.5","6605ca045eb1a7d83eac38a9","6662009ae78f21dd82fcd179","666207db29f6b2e5fd822ab5","null","","null","","","","","","","","./tasks/HMM-beads/Images/WhiteBeadChoiceCorrect.png","","","","","","","","","",""
"image-keyboard-response","155","607391","0.0-3.0-6.0-1.0-0.6","6605ca045eb1a7d83eac38a9","6662009ae78f21dd82fcd179","666207db29f6b2e5fd822ab5","717","","j","","","","","","","","./tasks/HMM-beads/Images/NewTrialWC.png","lowH","1","6","1","0","1","1","false","",""
"image-keyboard-response","156","607698","0.0-3.0-6.0-1.0-1.6","6605ca045eb1a7d83eac38a9","6662009ae78f21dd82fcd179","666207db29f6b2e5fd822ab5","null","","null","","","","","","","","./tasks/HMM-beads/Images/WhiteBeadChoice.png","","","","","","","","","",""
"image-keyboard-response","157","608205","0.0-3.0-6.0-1.0-2.6","6605ca045eb1a7d83eac38a9","6662009ae78f21dd82fcd179","666207db29f6b2e5fd822ab5","null","","null","","","","","","","","./tasks/HMM-beads/Images/WhiteBeadChoiceWrong.png","","","","","","","","","",""
"image-keyboard-response","158","608775","0.0-3.0-6.0-1.0-0.7","6605ca045eb1a7d83eac38a9","6662009ae78f21dd82fcd179","666207db29f6b2e5fd822ab5","558","","f","","","","","","","","./tasks/HMM-beads/Images/NewTrialBC.png","lowH","1","7","1","1","0","0","false","",""
"image-keyboard-response","159","609092","0.0-3.0-6.0-1.0-1.7","6605ca045eb1a7d83eac38a9","6662009ae78f21dd82fcd179","666207db29f6b2e5fd822ab5","null","","null","","","","","","","","./tasks/HMM-beads/Images/BlackBeadChoice.png","","","","","","","","","",""
"image-keyboard-response","160","609596","0.0-3.0-6.0-1.0-2.7","6605ca045eb1a7d83eac38a9","6662009ae78f21dd82fcd179","666207db29f6b2e5fd822ab5","null","","null","","","","","","","","./tasks/HMM-beads/Images/BlackBeadChoiceWrong.png","","","","","","","","","",""
"image-keyboard-response","161","613428","0.0-3.0-6.0-1.0-0.8","6605ca045eb1a7d83eac38a9","6662009ae78f21dd82fcd179","666207db29f6b2e5fd822ab5","3829","","f","","","","","","","","./tasks/HMM-beads/Images/NewTrialWC.png","lowH","1","8","1","1","1","0","false","",""
"image-keyboard-response","162","613742","0.0-3.0-6.0-1.0-1.8","6605ca045eb1a7d83eac38a9","6662009ae78f21dd82fcd179","666207db29f6b2e5fd822ab5","null","","null","","","","","","","","./tasks/HMM-beads/Images/BlackBeadChoice.png","","","","","","","","","",""
"image-keyboard-response","163","614245","0.0-3.0-6.0-1.0-2.8","6605ca045eb1a7d83eac38a9","6662009ae78f21dd82fcd179","666207db29f6b2e5fd822ab5","null","","null","","","","","","","","./tasks/HMM-beads/Images/BlackBeadChoiceWrong.png","","","","","","","","","",""
"image-keyboard-response","164","614663","0.0-3.0-6.0-1.0-0.9","6605ca045eb1a7d83eac38a9","6662009ae78f21dd82fcd179","666207db29f6b2e5fd822ab5","415","","j","","","","","","","","./tasks/HMM-beads/Images/NewTrialWC.png","lowH","1","9","1","1","1","1","true","",""
"image-keyboard-response","165","614973","0.0-3.0-6.0-1.0-1.9","6605ca045eb1a7d83eac38a9","6662009ae78f21dd82fcd179","666207db29f6b2e5fd822ab5","null","","null","","","","","","","","./tasks/HMM-beads/Images/WhiteBeadChoice.png","","","","","","","","","",""
"image-keyboard-response","166","615480","0.0-3.0-6.0-1.0-2.9","6605ca045eb1a7d83eac38a9","6662009ae78f21dd82fcd179","666207db29f6b2e5fd822ab5","null","","null","","","","","","","","./tasks/HMM-beads/Images/WhiteBeadChoiceCorrect.png","","","","","","","","","",""
"image-keyboard-response","167","615773","0.0-3.0-6.0-1.0-0.10","6605ca045eb1a7d83eac38a9","6662009ae78f21dd82fcd179","666207db29f6b2e5fd822ab5","291","","j","","","","","","","","./tasks/HMM-beads/Images/NewTrialWC.png","lowH","1","10","1","1","1","1","true","",""
"image-keyboard-response","168","616092","0.0-3.0-6.0-1.0-1.10","6605ca045eb1a7d83eac38a9","6662009ae78f21dd82fcd179","666207db29f6b2e5fd822ab5","null","","null","","","","","","","","./tasks/HMM-beads/Images/WhiteBeadChoice.png","","","","","","","","","",""
"image-keyboard-response","169","616595","0.0-3.0-6.0-1.0-2.10","6605ca045eb1a7d83eac38a9","6662009ae78f21dd82fcd179","666207db29f6b2e5fd822ab5","null","","null","","","","","","","","./tasks/HMM-beads/Images/WhiteBeadChoiceCorrect.png","","","","","","","","","",""
"image-keyboard-response","170","617150","0.0-3.0-6.0-1.0-0.11","6605ca045eb1a7d83eac38a9","6662009ae78f21dd82fcd179","666207db29f6b2e5fd822ab5","553","","j","","","","","","","","./tasks/HMM-beads/Images/NewTrialWC.png","lowH","1","11","1","1","1","1","true","",""
"image-keyboard-response","171","617456","0.0-3.0-6.0-1.0-1.11","6605ca045eb1a7d83eac38a9","6662009ae78f21dd82fcd179","666207db29f6b2e5fd822ab5","null","","null","","","","","","","","./tasks/HMM-beads/Images/WhiteBeadChoice.png","","","","","","","","","",""
"image-keyboard-response","172","617980","0.0-3.0-6.0-1.0-2.11","6605ca045eb1a7d83eac38a9","6662009ae78f21dd82fcd179","666207db29f6b2e5fd822ab5","null","","null","","","","","","","","./tasks/HMM-beads/Images/WhiteBeadChoiceCorrect.png","","","","","","","","","",""
"image-keyboard-response","173","618486","0.0-3.0-6.0-1.0-0.12","6605ca045eb1a7d83eac38a9","6662009ae78f21dd82fcd179","666207db29f6b2e5fd822ab5","504","","j","","","","","","","","./tasks/HMM-beads/Images/NewTrialWC.png","lowH","1","12","1","1","1","1","true","",""
"image-keyboard-response","174","618792","0.0-3.0-6.0-1.0-1.12","6605ca045eb1a7d83eac38a9","6662009ae78f21dd82fcd179","666207db29f6b2e5fd822ab5","null","","null","","","","","","","","./tasks/HMM-beads/Images/WhiteBeadChoice.png","","","","","","","","","",""
"image-keyboard-response","175","619296","0.0-3.0-6.0-1.0-2.12","6605ca045eb1a7d83eac38a9","6662009ae78f21dd82fcd179","666207db29f6b2e5fd822ab5","null","","null","","","","","","","","./tasks/HMM-beads/Images/WhiteBeadChoiceCorrect.png","","","","","","","","","",""
"image-keyboard-response","176","619914","0.0-3.0-6.0-1.0-0.13","6605ca045eb1a7d83eac38a9","6662009ae78f21dd82fcd179","666207db29f6b2e5fd822ab5","615","","j","","","","","","","","./tasks/HMM-beads/Images/NewTrialWC.png","lowH","1","13","1","0","1","1","false","",""
"image-keyboard-response","177","620224","0.0-3.0-6.0-1.0-1.13","6605ca045eb1a7d83eac38a9","6662009ae78f21dd82fcd179","666207db29f6b2e5fd822ab5","null","","null","","","","","","","","./tasks/HMM-beads/Images/WhiteBeadChoice.png","","","","","","","","","",""
"image-keyboard-response","178","620729","0.0-3.0-6.0-1.0-2.13","6605ca045eb1a7d83eac38a9","6662009ae78f21dd82fcd179","666207db29f6b2e5fd822ab5","null","","null","","","","","","","","./tasks/HMM-beads/Images/WhiteBeadChoiceWrong.png","","","","","","","","","",""
"image-keyboard-response","179","625721","0.0-3.0-6.0-1.0-0.14","6605ca045eb1a7d83eac38a9","6662009ae78f21dd82fcd179","666207db29f6b2e5fd822ab5","4989","","f","","","","","","","","./tasks/HMM-beads/Images/NewTrialBC.png","lowH","1","14","1","0","0","0","true","",""
"image-keyboard-response","180","626025","0.0-3.0-6.0-1.0-1.14","6605ca045eb1a7d83eac38a9","6662009ae78f21dd82fcd179","666207db29f6b2e5fd822ab5","null","","null","","","","","","","","./tasks/HMM-beads/Images/BlackBeadChoice.png","","","","","","","","","",""
"image-keyboard-response","181","626528","0.0-3.0-6.0-1.0-2.14","6605ca045eb1a7d83eac38a9","6662009ae78f21dd82fcd179","666207db29f6b2e5fd822ab5","null","","null","","","","","","","","./tasks/HMM-beads/Images/BlackBeadChoiceCorrect.png","","","","","","","","","",""
"image-keyboard-response","182","627186","0.0-3.0-6.0-1.0-0.15","6605ca045eb1a7d83eac38a9","6662009ae78f21dd82fcd179","666207db29f6b2e5fd822ab5","656","","f","","","","","","","","./tasks/HMM-beads/Images/NewTrialBC.png","lowH","1","15","1","1","0","0","false","",""
"image-keyboard-response","183","627490","0.0-3.0-6.0-1.0-1.15","6605ca045eb1a7d83eac38a9","6662009ae78f21dd82fcd179","666207db29f6b2e5fd822ab5","null","","null","","","","","","","","./tasks/HMM-beads/Images/BlackBeadChoice.png","","","","","","","","","",""
"image-keyboard-response","184","627995","0.0-3.0-6.0-1.0-2.15","6605ca045eb1a7d83eac38a9","6662009ae78f21dd82fcd179","666207db29f6b2e5fd822ab5","null","","null","","","","","","","","./tasks/HMM-beads/Images/BlackBeadChoiceWrong.png","","","","","","","","","",""
"image-keyboard-response","185","629730","0.0-3.0-6.0-1.0-0.16","6605ca045eb1a7d83eac38a9","6662009ae78f21dd82fcd179","666207db29f6b2e5fd822ab5","1731","","f","","","","","","","","./tasks/HMM-beads/Images/NewTrialWC.png","lowH","1","16","1","1","1","0","false","",""
"image-keyboard-response","186","630040","0.0-3.0-6.0-1.0-1.16","6605ca045eb1a7d83eac38a9","6662009ae78f21dd82fcd179","666207db29f6b2e5fd822ab5","null","","null","","","","","","","","./tasks/HMM-beads/Images/BlackBeadChoice.png","","","","","","","","","",""
"image-keyboard-response","187","630545","0.0-3.0-6.0-1.0-2.16","6605ca045eb1a7d83eac38a9","6662009ae78f21dd82fcd179","666207db29f6b2e5fd822ab5","null","","null","","","","","","","","./tasks/HMM-beads/Images/BlackBeadChoiceWrong.png","","","","","","","","","",""
"image-keyboard-response","188","631056","0.0-3.0-6.0-1.0-0.17","6605ca045eb1a7d83eac38a9","6662009ae78f21dd82fcd179","666207db29f6b2e5fd822ab5","509","","j","","","","","","","","./tasks/HMM-beads/Images/NewTrialWC.png","lowH","1","17","1","1","1","1","true","",""
"image-keyboard-response","189","631373","0.0-3.0-6.0-1.0-1.17","6605ca045eb1a7d83eac38a9","6662009ae78f21dd82fcd179","666207db29f6b2e5fd822ab5","null","","null","","","","","","","","./tasks/HMM-beads/Images/WhiteBeadChoice.png","","","","","","","","","",""
"image-keyboard-response","190","631890","0.0-3.0-6.0-1.0-2.17","6605ca045eb1a7d83eac38a9","6662009ae78f21dd82fcd179","666207db29f6b2e5fd822ab5","null","","null","","","","","","","","./tasks/HMM-beads/Images/WhiteBeadChoiceCorrect.png","","","","","","","","","",""
"image-keyboard-response","191","632428","0.0-3.0-6.0-1.0-0.18","6605ca045eb1a7d83eac38a9","6662009ae78f21dd82fcd179","666207db29f6b2e5fd822ab5","535","","j","","","","","","","","./tasks/HMM-beads/Images/NewTrialWC.png","lowH","1","18","1","1","1","1","true","",""
"image-keyboard-response","192","632740","0.0-3.0-6.0-1.0-1.18","6605ca045eb1a7d83eac38a9","6662009ae78f21dd82fcd179","666207db29f6b2e5fd822ab5","null","","null","","","","","","","","./tasks/HMM-beads/Images/WhiteBeadChoice.png","","","","","","","","","",""
"image-keyboard-response","193","633246","0.0-3.0-6.0-1.0-2.18","6605ca045eb1a7d83eac38a9","6662009ae78f21dd82fcd179","666207db29f6b2e5fd822ab5","null","","null","","","","","","","","./tasks/HMM-beads/Images/WhiteBeadChoiceCorrect.png","","","","","","","","","",""
"image-keyboard-response","194","633336","0.0-3.0-6.0-1.0-0.19","6605ca045eb1a7d83eac38a9","6662009ae78f21dd82fcd179","666207db29f6b2e5fd822ab5","87","","j","","","","","","","","./tasks/HMM-beads/Images/NewTrialWC.png","lowH","1","19","1","1","1","1","true","",""
"image-keyboard-response","195","633642","0.0-3.0-6.0-1.0-1.19","6605ca045eb1a7d83eac38a9","6662009ae78f21dd82fcd179","666207db29f6b2e5fd822ab5","null","","null","","","","","","","","./tasks/HMM-beads/Images/WhiteBeadChoice.png","","","","","","","","","",""
"image-keyboard-response","196","634145","0.0-3.0-6.0-1.0-2.19","6605ca045eb1a7d83eac38a9","6662009ae78f21dd82fcd179","666207db29f6b2e5fd822ab5","null","","null","","","","","","","","./tasks/HMM-beads/Images/WhiteBeadChoiceCorrect.png","","","","","","","","","",""
"image-keyboard-response","197","634760","0.0-3.0-6.0-1.0-0.20","6605ca045eb1a7d83eac38a9","6662009ae78f21dd82fcd179","666207db29f6b2e5fd822ab5","611","","j","","","","","","","","./tasks/HMM-beads/Images/NewTrialWC.png","lowH","1","20","1","1","1","1","true","",""
"image-keyboard-response","198","635090","0.0-3.0-6.0-1.0-1.20","6605ca045eb1a7d83eac38a9","6662009ae78f21dd82fcd179","666207db29f6b2e5fd822ab5","null","","null","","","","","","","","./tasks/HMM-beads/Images/WhiteBeadChoice.png","","","","","","","","","",""
"image-keyboard-response","199","635596","0.0-3.0-6.0-1.0-2.20","6605ca045eb1a7d83eac38a9","6662009ae78f21dd82fcd179","666207db29f6b2e5fd822ab5","null","","null","","","","","","","","./tasks/HMM-beads/Images/WhiteBeadChoiceCorrect.png","","","","","","","","","",""
"image-keyboard-response","200","637119","0.0-3.0-6.0-1.0-0.21","6605ca045eb1a7d83eac38a9","6662009ae78f21dd82fcd179","666207db29f6b2e5fd822ab5","1521","","j","","","","","","","","./tasks/HMM-beads/Images/NewTrialWC.png","lowH","1","21","1","1","1","1","true","",""
"image-keyboard-response","201","637425","0.0-3.0-6.0-1.0-1.21","6605ca045eb1a7d83eac38a9","6662009ae78f21dd82fcd179","666207db29f6b2e5fd822ab5","null","","null","","","","","","","","./tasks/HMM-beads/Images/WhiteBeadChoice.png","","","","","","","","","",""
"image-keyboard-response","202","637943","0.0-3.0-6.0-1.0-2.21","6605ca045eb1a7d83eac38a9","6662009ae78f21dd82fcd179","666207db29f6b2e5fd822ab5","null","","null","","","","","","","","./tasks/HMM-beads/Images/WhiteBeadChoiceCorrect.png","","","","","","","","","",""
"image-keyboard-response","203","639755","0.0-3.0-6.0-1.0-0.22","6605ca045eb1a7d83eac38a9","6662009ae78f21dd82fcd179","666207db29f6b2e5fd822ab5","1809","","j","","","","","","","","./tasks/HMM-beads/Images/NewTrialWC.png","lowH","1","22","1","1","1","1","true","",""
"image-keyboard-response","204","640059","0.0-3.0-6.0-1.0-1.22","6605ca045eb1a7d83eac38a9","6662009ae78f21dd82fcd179","666207db29f6b2e5fd822ab5","null","","null","","","","","","","","./tasks/HMM-beads/Images/WhiteBeadChoice.png","","","","","","","","","",""
"image-keyboard-response","205","640577","0.0-3.0-6.0-1.0-2.22","6605ca045eb1a7d83eac38a9","6662009ae78f21dd82fcd179","666207db29f6b2e5fd822ab5","null","","null","","","","","","","","./tasks/HMM-beads/Images/WhiteBeadChoiceCorrect.png","","","","","","","","","",""
"image-keyboard-response","206","641856","0.0-3.0-6.0-1.0-0.23","6605ca045eb1a7d83eac38a9","6662009ae78f21dd82fcd179","666207db29f6b2e5fd822ab5","1276","","j","","","","","","","","./tasks/HMM-beads/Images/NewTrialWC.png","lowH","1","23","1","1","1","1","true","",""
"image-keyboard-response","207","642159","0.0-3.0-6.0-1.0-1.23","6605ca045eb1a7d83eac38a9","6662009ae78f21dd82fcd179","666207db29f6b2e5fd822ab5","null","","null","","","","","","","","./tasks/HMM-beads/Images/WhiteBeadChoice.png","","","","","","","","","",""
"image-keyboard-response","208","642676","0.0-3.0-6.0-1.0-2.23","6605ca045eb1a7d83eac38a9","6662009ae78f21dd82fcd179","666207db29f6b2e5fd822ab5","null","","null","","","","","","","","./tasks/HMM-beads/Images/WhiteBeadChoiceCorrect.png","","","","","","","","","",""
"image-keyboard-response","209","643847","0.0-3.0-6.0-1.0-0.24","6605ca045eb1a7d83eac38a9","6662009ae78f21dd82fcd179","666207db29f6b2e5fd822ab5","1168","","j","","","","","","","","./tasks/HMM-beads/Images/NewTrialWC.png","lowH","1","24","1","0","1","1","false","",""
"image-keyboard-response","210","644155","0.0-3.0-6.0-1.0-1.24","6605ca045eb1a7d83eac38a9","6662009ae78f21dd82fcd179","666207db29f6b2e5fd822ab5","null","","null","","","","","","","","./tasks/HMM-beads/Images/WhiteBeadChoice.png","","","","","","","","","",""
"image-keyboard-response","211","644677","0.0-3.0-6.0-1.0-2.24","6605ca045eb1a7d83eac38a9","6662009ae78f21dd82fcd179","666207db29f6b2e5fd822ab5","null","","null","","","","","","","","./tasks/HMM-beads/Images/WhiteBeadChoiceWrong.png","","","","","","","","","",""
"image-keyboard-response","212","646422","0.0-3.0-6.0-1.0-0.25","6605ca045eb1a7d83eac38a9","6662009ae78f21dd82fcd179","666207db29f6b2e5fd822ab5","1742","","f","","","","","","","","./tasks/HMM-beads/Images/NewTrialBC.png","lowH","1","25","1","1","0","0","false","",""
"image-keyboard-response","213","646725","0.0-3.0-6.0-1.0-1.25","6605ca045eb1a7d83eac38a9","6662009ae78f21dd82fcd179","666207db29f6b2e5fd822ab5","null","","null","","","","","","","","./tasks/HMM-beads/Images/BlackBeadChoice.png","","","","","","","","","",""
"image-keyboard-response","214","647241","0.0-3.0-6.0-1.0-2.25","6605ca045eb1a7d83eac38a9","6662009ae78f21dd82fcd179","666207db29f6b2e5fd822ab5","null","","null","","","","","","","","./tasks/HMM-beads/Images/BlackBeadChoiceWrong.png","","","","","","","","","",""
"image-keyboard-response","215","650194","0.0-3.0-6.0-1.0-0.26","6605ca045eb1a7d83eac38a9","6662009ae78f21dd82fcd179","666207db29f6b2e5fd822ab5","2951","","j","","","","","","","","./tasks/HMM-beads/Images/NewTrialWC.png","lowH","1","26","1","0","1","1","false","",""
"image-keyboard-response","216","650505","0.0-3.0-6.0-1.0-1.26","6605ca045eb1a7d83eac38a9","6662009ae78f21dd82fcd179","666207db29f6b2e5fd822ab5","null","","null","","","","","","","","./tasks/HMM-beads/Images/WhiteBeadChoice.png","","","","","","","","","",""
"image-keyboard-response","217","651013","0.0-3.0-6.0-1.0-2.26","6605ca045eb1a7d83eac38a9","6662009ae78f21dd82fcd179","666207db29f6b2e5fd822ab5","null","","null","","","","","","","","./tasks/HMM-beads/Images/WhiteBeadChoiceWrong.png","","","","","","","","","",""
"image-keyboard-response","218","651481","0.0-3.0-6.0-1.0-0.27","6605ca045eb1a7d83eac38a9","6662009ae78f21dd82fcd179","666207db29f6b2e5fd822ab5","466","","f","","","","","","","","./tasks/HMM-beads/Images/NewTrialBC.png","lowH","1","27","1","1","0","0","false","",""
"image-keyboard-response","219","651789","0.0-3.0-6.0-1.0-1.27","6605ca045eb1a7d83eac38a9","6662009ae78f21dd82fcd179","666207db29f6b2e5fd822ab5","null","","null","","","","","","","","./tasks/HMM-beads/Images/BlackBeadChoice.png","","","","","","","","","",""
"image-keyboard-response","220","652295","0.0-3.0-6.0-1.0-2.27","6605ca045eb1a7d83eac38a9","6662009ae78f21dd82fcd179","666207db29f6b2e5fd822ab5","null","","null","","","","","","","","./tasks/HMM-beads/Images/BlackBeadChoiceWrong.png","","","","","","","","","",""
"image-keyboard-response","221","655430","0.0-3.0-6.0-1.0-0.28","6605ca045eb1a7d83eac38a9","6662009ae78f21dd82fcd179","666207db29f6b2e5fd822ab5","3132","","f","","","","","","","","./tasks/HMM-beads/Images/NewTrialWC.png","lowH","1","28","1","1","1","0","false","",""
"image-keyboard-response","222","655741","0.0-3.0-6.0-1.0-1.28","6605ca045eb1a7d83eac38a9","6662009ae78f21dd82fcd179","666207db29f6b2e5fd822ab5","null","","null","","","","","","","","./tasks/HMM-beads/Images/BlackBeadChoice.png","","","","","","","","","",""
"image-keyboard-response","223","656244","0.0-3.0-6.0-1.0-2.28","6605ca045eb1a7d83eac38a9","6662009ae78f21dd82fcd179","666207db29f6b2e5fd822ab5","null","","null","","","","","","","","./tasks/HMM-beads/Images/BlackBeadChoiceWrong.png","","","","","","","","","",""
"image-keyboard-response","224","658127","0.0-3.0-6.0-1.0-0.29","6605ca045eb1a7d83eac38a9","6662009ae78f21dd82fcd179","666207db29f6b2e5fd822ab5","1869","","j","","","","","","","","./tasks/HMM-beads/Images/NewTrialWC.png","lowH","1","29","1","1","1","1","true","",""
"image-keyboard-response","225","658439","0.0-3.0-6.0-1.0-1.29","6605ca045eb1a7d83eac38a9","6662009ae78f21dd82fcd179","666207db29f6b2e5fd822ab5","null","","null","","","","","","","","./tasks/HMM-beads/Images/WhiteBeadChoice.png","","","","","","","","","",""
"image-keyboard-response","226","658944","0.0-3.0-6.0-1.0-2.29","6605ca045eb1a7d83eac38a9","6662009ae78f21dd82fcd179","666207db29f6b2e5fd822ab5","null","","null","","","","","","","","./tasks/HMM-beads/Images/WhiteBeadChoiceCorrect.png","","","","","","","","","",""
"image-keyboard-response","227","659391","0.0-3.0-6.0-1.0-0.30","6605ca045eb1a7d83eac38a9","6662009ae78f21dd82fcd179","666207db29f6b2e5fd822ab5","444","","j","","","","","","","","./tasks/HMM-beads/Images/NewTrialWC.png","lowH","1","30","1","1","1","1","true","",""
"image-keyboard-response","228","659706","0.0-3.0-6.0-1.0-1.30","6605ca045eb1a7d83eac38a9","6662009ae78f21dd82fcd179","666207db29f6b2e5fd822ab5","null","","null","","","","","","","","./tasks/HMM-beads/Images/WhiteBeadChoice.png","","","","","","","","","",""
"image-keyboard-response","229","660211","0.0-3.0-6.0-1.0-2.30","6605ca045eb1a7d83eac38a9","6662009ae78f21dd82fcd179","666207db29f6b2e5fd822ab5","null","","null","","","","","","","","./tasks/HMM-beads/Images/WhiteBeadChoiceCorrect.png","","","","","","","","","",""
"image-keyboard-response","230","660957","0.0-3.0-6.0-1.0-0.31","6605ca045eb1a7d83eac38a9","6662009ae78f21dd82fcd179","666207db29f6b2e5fd822ab5","744","","j","","","","","","","","./tasks/HMM-beads/Images/NewTrialWC.png","lowH","1","31","1","1","1","1","true","",""
"image-keyboard-response","231","661272","0.0-3.0-6.0-1.0-1.31","6605ca045eb1a7d83eac38a9","6662009ae78f21dd82fcd179","666207db29f6b2e5fd822ab5","null","","null","","","","","","","","./tasks/HMM-beads/Images/WhiteBeadChoice.png","","","","","","","","","",""
"image-keyboard-response","232","661778","0.0-3.0-6.0-1.0-2.31","6605ca045eb1a7d83eac38a9","6662009ae78f21dd82fcd179","666207db29f6b2e5fd822ab5","null","","null","","","","","","","","./tasks/HMM-beads/Images/WhiteBeadChoiceCorrect.png","","","","","","","","","",""
"image-keyboard-response","233","662489","0.0-3.0-6.0-1.0-0.32","6605ca045eb1a7d83eac38a9","6662009ae78f21dd82fcd179","666207db29f6b2e5fd822ab5","708","","j","","","","","","","","./tasks/HMM-beads/Images/NewTrialWC.png","lowH","1","32","1","1","1","1","true","",""
"image-keyboard-response","234","662806","0.0-3.0-6.0-1.0-1.32","6605ca045eb1a7d83eac38a9","6662009ae78f21dd82fcd179","666207db29f6b2e5fd822ab5","null","","null","","","","","","","","./tasks/HMM-beads/Images/WhiteBeadChoice.png","","","","","","","","","",""
"image-keyboard-response","235","663310","0.0-3.0-6.0-1.0-2.32","6605ca045eb1a7d83eac38a9","6662009ae78f21dd82fcd179","666207db29f6b2e5fd822ab5","null","","null","","","","","","","","./tasks/HMM-beads/Images/WhiteBeadChoiceCorrect.png","","","","","","","","","",""
"image-keyboard-response","236","663904","0.0-3.0-6.0-1.0-0.33","6605ca045eb1a7d83eac38a9","6662009ae78f21dd82fcd179","666207db29f6b2e5fd822ab5","592","","j","","","","","","","","./tasks/HMM-beads/Images/NewTrialWC.png","lowH","1","33","1","1","1","1","true","",""
"image-keyboard-response","237","664224","0.0-3.0-6.0-1.0-1.33","6605ca045eb1a7d83eac38a9","6662009ae78f21dd82fcd179","666207db29f6b2e5fd822ab5","null","","null","","","","","","","","./tasks/HMM-beads/Images/WhiteBeadChoice.png","","","","","","","","","",""
"image-keyboard-response","238","664727","0.0-3.0-6.0-1.0-2.33","6605ca045eb1a7d83eac38a9","6662009ae78f21dd82fcd179","666207db29f6b2e5fd822ab5","null","","null","","","","","","","","./tasks/HMM-beads/Images/WhiteBeadChoiceCorrect.png","","","","","","","","","",""
"image-keyboard-response","239","665268","0.0-3.0-6.0-1.0-0.34","6605ca045eb1a7d83eac38a9","6662009ae78f21dd82fcd179","666207db29f6b2e5fd822ab5","539","","j","","","","","","","","./tasks/HMM-beads/Images/NewTrialWC.png","lowH","1","34","1","1","1","1","true","",""
"image-keyboard-response","240","665572","0.0-3.0-6.0-1.0-1.34","6605ca045eb1a7d83eac38a9","6662009ae78f21dd82fcd179","666207db29f6b2e5fd822ab5","null","","null","","","","","","","","./tasks/HMM-beads/Images/WhiteBeadChoice.png","","","","","","","","","",""
"image-keyboard-response","241","666076","0.0-3.0-6.0-1.0-2.34","6605ca045eb1a7d83eac38a9","6662009ae78f21dd82fcd179","666207db29f6b2e5fd822ab5","null","","null","","","","","","","","./tasks/HMM-beads/Images/WhiteBeadChoiceCorrect.png","","","","","","","","","",""
"image-keyboard-response","242","667253","0.0-3.0-6.0-1.0-0.35","6605ca045eb1a7d83eac38a9","6662009ae78f21dd82fcd179","666207db29f6b2e5fd822ab5","1174","","j","","","","","","","","./tasks/HMM-beads/Images/NewTrialWC.png","lowH","1","35","1","1","1","1","true","",""
"image-keyboard-response","243","667572","0.0-3.0-6.0-1.0-1.35","6605ca045eb1a7d83eac38a9","6662009ae78f21dd82fcd179","666207db29f6b2e5fd822ab5","null","","null","","","","","","","","./tasks/HMM-beads/Images/WhiteBeadChoice.png","","","","","","","","","",""
"image-keyboard-response","244","668076","0.0-3.0-6.0-1.0-2.35","6605ca045eb1a7d83eac38a9","6662009ae78f21dd82fcd179","666207db29f6b2e5fd822ab5","null","","null","","","","","","","","./tasks/HMM-beads/Images/WhiteBeadChoiceCorrect.png","","","","","","","","","",""
"image-keyboard-response","245","669406","0.0-3.0-6.0-1.0-0.36","6605ca045eb1a7d83eac38a9","6662009ae78f21dd82fcd179","666207db29f6b2e5fd822ab5","1333","","j","","","","","","","","./tasks/HMM-beads/Images/NewTrialWC.png","lowH","1","36","1","1","1","1","true","",""
"image-keyboard-response","246","669716","0.0-3.0-6.0-1.0-1.36","6605ca045eb1a7d83eac38a9","6662009ae78f21dd82fcd179","666207db29f6b2e5fd822ab5","null","","null","","","","","","","","./tasks/HMM-beads/Images/WhiteBeadChoice.png","","","","","","","","","",""
"image-keyboard-response","247","670219","0.0-3.0-6.0-1.0-2.36","6605ca045eb1a7d83eac38a9","6662009ae78f21dd82fcd179","666207db29f6b2e5fd822ab5","null","","null","","","","","","","","./tasks/HMM-beads/Images/WhiteBeadChoiceCorrect.png","","","","","","","","","",""
"image-keyboard-response","248","671323","0.0-3.0-6.0-1.0-0.37","6605ca045eb1a7d83eac38a9","6662009ae78f21dd82fcd179","666207db29f6b2e5fd822ab5","1101","","j","","","","","","","","./tasks/HMM-beads/Images/NewTrialWC.png","lowH","1","37","1","1","1","1","true","",""
"image-keyboard-response","249","671632","0.0-3.0-6.0-1.0-1.37","6605ca045eb1a7d83eac38a9","6662009ae78f21dd82fcd179","666207db29f6b2e5fd822ab5","null","","null","","","","","","","","./tasks/HMM-beads/Images/WhiteBeadChoice.png","","","","","","","","","",""
"image-keyboard-response","250","672152","0.0-3.0-6.0-1.0-2.37","6605ca045eb1a7d83eac38a9","6662009ae78f21dd82fcd179","666207db29f6b2e5fd822ab5","null","","null","","","","","","","","./tasks/HMM-beads/Images/WhiteBeadChoiceCorrect.png","","","","","","","","","",""
"image-keyboard-response","251","674659","0.0-3.0-6.0-1.0-0.38","6605ca045eb1a7d83eac38a9","6662009ae78f21dd82fcd179","666207db29f6b2e5fd822ab5","2505","","j","","","","","","","","./tasks/HMM-beads/Images/NewTrialWC.png","lowH","1","38","1","1","1","1","true","",""
"image-keyboard-response","252","674966","0.0-3.0-6.0-1.0-1.38","6605ca045eb1a7d83eac38a9","6662009ae78f21dd82fcd179","666207db29f6b2e5fd822ab5","null","","null","","","","","","","","./tasks/HMM-beads/Images/WhiteBeadChoice.png","","","","","","","","","",""
"image-keyboard-response","253","675483","0.0-3.0-6.0-1.0-2.38","6605ca045eb1a7d83eac38a9","6662009ae78f21dd82fcd179","666207db29f6b2e5fd822ab5","null","","null","","","","","","","","./tasks/HMM-beads/Images/WhiteBeadChoiceCorrect.png","","","","","","","","","",""
"image-keyboard-response","254","676664","0.0-3.0-6.0-1.0-0.39","6605ca045eb1a7d83eac38a9","6662009ae78f21dd82fcd179","666207db29f6b2e5fd822ab5","1178","","j","","","","","","","","./tasks/HMM-beads/Images/NewTrialWC.png","lowH","1","39","1","1","1","1","true","",""
"image-keyboard-response","255","676983","0.0-3.0-6.0-1.0-1.39","6605ca045eb1a7d83eac38a9","6662009ae78f21dd82fcd179","666207db29f6b2e5fd822ab5","null","","null","","","","","","","","./tasks/HMM-beads/Images/WhiteBeadChoice.png","","","","","","","","","",""
"image-keyboard-response","256","677501","0.0-3.0-6.0-1.0-2.39","6605ca045eb1a7d83eac38a9","6662009ae78f21dd82fcd179","666207db29f6b2e5fd822ab5","null","","null","","","","","","","","./tasks/HMM-beads/Images/WhiteBeadChoiceCorrect.png","","","","","","","","","",""
"image-keyboard-response","257","678349","0.0-3.0-6.0-1.0-0.40","6605ca045eb1a7d83eac38a9","6662009ae78f21dd82fcd179","666207db29f6b2e5fd822ab5","845","","j","","","","","","","","./tasks/HMM-beads/Images/NewTrialWC.png","lowH","1","40","1","1","1","1","true","",""
"image-keyboard-response","258","678664","0.0-3.0-6.0-1.0-1.40","6605ca045eb1a7d83eac38a9","6662009ae78f21dd82fcd179","666207db29f6b2e5fd822ab5","null","","null","","","","","","","","./tasks/HMM-beads/Images/WhiteBeadChoice.png","","","","","","","","","",""
"image-keyboard-response","259","679169","0.0-3.0-6.0-1.0-2.40","6605ca045eb1a7d83eac38a9","6662009ae78f21dd82fcd179","666207db29f6b2e5fd822ab5","null","","null","","","","","","","","./tasks/HMM-beads/Images/WhiteBeadChoiceCorrect.png","","","","","","","","","",""
"image-keyboard-response","260","679884","0.0-3.0-6.0-1.0-0.41","6605ca045eb1a7d83eac38a9","6662009ae78f21dd82fcd179","666207db29f6b2e5fd822ab5","713","","j","","","","","","","","./tasks/HMM-beads/Images/NewTrialWC.png","lowH","1","41","1","1","1","1","true","",""
"image-keyboard-response","261","680198","0.0-3.0-6.0-1.0-1.41","6605ca045eb1a7d83eac38a9","6662009ae78f21dd82fcd179","666207db29f6b2e5fd822ab5","null","","null","","","","","","","","./tasks/HMM-beads/Images/WhiteBeadChoice.png","","","","","","","","","",""
"image-keyboard-response","262","680702","0.0-3.0-6.0-1.0-2.41","6605ca045eb1a7d83eac38a9","6662009ae78f21dd82fcd179","666207db29f6b2e5fd822ab5","null","","null","","","","","","","","./tasks/HMM-beads/Images/WhiteBeadChoiceCorrect.png","","","","","","","","","",""
"image-keyboard-response","263","681364","0.0-3.0-6.0-1.0-0.42","6605ca045eb1a7d83eac38a9","6662009ae78f21dd82fcd179","666207db29f6b2e5fd822ab5","654","","j","","","","","","","","./tasks/HMM-beads/Images/NewTrialWC.png","lowH","1","42","1","1","1","1","true","",""
"image-keyboard-response","264","681682","0.0-3.0-6.0-1.0-1.42","6605ca045eb1a7d83eac38a9","6662009ae78f21dd82fcd179","666207db29f6b2e5fd822ab5","null","","null","","","","","","","","./tasks/HMM-beads/Images/WhiteBeadChoice.png","","","","","","","","","",""
"image-keyboard-response","265","682185","0.0-3.0-6.0-1.0-2.42","6605ca045eb1a7d83eac38a9","6662009ae78f21dd82fcd179","666207db29f6b2e5fd822ab5","null","","null","","","","","","","","./tasks/HMM-beads/Images/WhiteBeadChoiceCorrect.png","","","","","","","","","",""
"image-keyboard-response","266","682861","0.0-3.0-6.0-1.0-0.43","6605ca045eb1a7d83eac38a9","6662009ae78f21dd82fcd179","666207db29f6b2e5fd822ab5","673","","j","","","","","","","","./tasks/HMM-beads/Images/NewTrialWC.png","lowH","1","43","1","1","1","1","true","",""
"image-keyboard-response","267","683165","0.0-3.0-6.0-1.0-1.43","6605ca045eb1a7d83eac38a9","6662009ae78f21dd82fcd179","666207db29f6b2e5fd822ab5","null","","null","","","","","","","","./tasks/HMM-beads/Images/WhiteBeadChoice.png","","","","","","","","","",""
"image-keyboard-response","268","683669","0.0-3.0-6.0-1.0-2.43","6605ca045eb1a7d83eac38a9","6662009ae78f21dd82fcd179","666207db29f6b2e5fd822ab5","null","","null","","","","","","","","./tasks/HMM-beads/Images/WhiteBeadChoiceCorrect.png","","","","","","","","","",""
"image-keyboard-response","269","684209","0.0-3.0-6.0-1.0-0.44","6605ca045eb1a7d83eac38a9","6662009ae78f21dd82fcd179","666207db29f6b2e5fd822ab5","537","","j","","","","","","","","./tasks/HMM-beads/Images/NewTrialWC.png","lowH","1","44","1","1","1","1","true","",""
"image-keyboard-response","270","684514","0.0-3.0-6.0-1.0-1.44","6605ca045eb1a7d83eac38a9","6662009ae78f21dd82fcd179","666207db29f6b2e5fd822ab5","null","","null","","","","","","","","./tasks/HMM-beads/Images/WhiteBeadChoice.png","","","","","","","","","",""
"image-keyboard-response","271","685019","0.0-3.0-6.0-1.0-2.44","6605ca045eb1a7d83eac38a9","6662009ae78f21dd82fcd179","666207db29f6b2e5fd822ab5","null","","null","","","","","","","","./tasks/HMM-beads/Images/WhiteBeadChoiceCorrect.png","","","","","","","","","",""
"image-keyboard-response","272","685508","0.0-3.0-6.0-1.0-0.45","6605ca045eb1a7d83eac38a9","6662009ae78f21dd82fcd179","666207db29f6b2e5fd822ab5","487","","j","","","","","","","","./tasks/HMM-beads/Images/NewTrialWC.png","lowH","1","45","1","1","1","1","true","",""
"image-keyboard-response","273","685814","0.0-3.0-6.0-1.0-1.45","6605ca045eb1a7d83eac38a9","6662009ae78f21dd82fcd179","666207db29f6b2e5fd822ab5","null","","null","","","","","","","","./tasks/HMM-beads/Images/WhiteBeadChoice.png","","","","","","","","","",""
"image-keyboard-response","274","686318","0.0-3.0-6.0-1.0-2.45","6605ca045eb1a7d83eac38a9","6662009ae78f21dd82fcd179","666207db29f6b2e5fd822ab5","null","","null","","","","","","","","./tasks/HMM-beads/Images/WhiteBeadChoiceCorrect.png","","","","","","","","","",""
"image-keyboard-response","275","686853","0.0-3.0-6.0-1.0-0.46","6605ca045eb1a7d83eac38a9","6662009ae78f21dd82fcd179","666207db29f6b2e5fd822ab5","532","","j","","","","","","","","./tasks/HMM-beads/Images/NewTrialWC.png","lowH","1","46","1","1","1","1","true","",""
"image-keyboard-response","276","687180","0.0-3.0-6.0-1.0-1.46","6605ca045eb1a7d83eac38a9","6662009ae78f21dd82fcd179","666207db29f6b2e5fd822ab5","null","","null","","","","","","","","./tasks/HMM-beads/Images/WhiteBeadChoice.png","","","","","","","","","",""
"image-keyboard-response","277","687685","0.0-3.0-6.0-1.0-2.46","6605ca045eb1a7d83eac38a9","6662009ae78f21dd82fcd179","666207db29f6b2e5fd822ab5","null","","null","","","","","","","","./tasks/HMM-beads/Images/WhiteBeadChoiceCorrect.png","","","","","","","","","",""
"image-keyboard-response","278","688329","0.0-3.0-6.0-1.0-0.47","6605ca045eb1a7d83eac38a9","6662009ae78f21dd82fcd179","666207db29f6b2e5fd822ab5","642","","j","","","","","","","","./tasks/HMM-beads/Images/NewTrialWC.png","lowH","1","47","1","0","1","1","false","",""
"image-keyboard-response","279","688633","0.0-3.0-6.0-1.0-1.47","6605ca045eb1a7d83eac38a9","6662009ae78f21dd82fcd179","666207db29f6b2e5fd822ab5","null","","null","","","","","","","","./tasks/HMM-beads/Images/WhiteBeadChoice.png","","","","","","","","","",""
"image-keyboard-response","280","689151","0.0-3.0-6.0-1.0-2.47","6605ca045eb1a7d83eac38a9","6662009ae78f21dd82fcd179","666207db29f6b2e5fd822ab5","null","","null","","","","","","","","./tasks/HMM-beads/Images/WhiteBeadChoiceWrong.png","","","","","","","","","",""
"image-keyboard-response","281","691154","0.0-3.0-6.0-1.0-0.48","6605ca045eb1a7d83eac38a9","6662009ae78f21dd82fcd179","666207db29f6b2e5fd822ab5","2000","","f","","","","","","","","./tasks/HMM-beads/Images/NewTrialBC.png","lowH","1","48","1","0","0","0","true","",""
"image-keyboard-response","282","691464","0.0-3.0-6.0-1.0-1.48","6605ca045eb1a7d83eac38a9","6662009ae78f21dd82fcd179","666207db29f6b2e5fd822ab5","null","","null","","","","","","","","./tasks/HMM-beads/Images/BlackBeadChoice.png","","","","","","","","","",""
"image-keyboard-response","283","691968","0.0-3.0-6.0-1.0-2.48","6605ca045eb1a7d83eac38a9","6662009ae78f21dd82fcd179","666207db29f6b2e5fd822ab5","null","","null","","","","","","","","./tasks/HMM-beads/Images/BlackBeadChoiceCorrect.png","","","","","","","","","",""
"image-keyboard-response","284","693443","0.0-3.0-6.0-1.0-0.49","6605ca045eb1a7d83eac38a9","6662009ae78f21dd82fcd179","666207db29f6b2e5fd822ab5","1473","","f","","","","","","","","./tasks/HMM-beads/Images/NewTrialBC.png","lowH","1","49","1","0","0","0","true","",""
"image-keyboard-response","285","693747","0.0-3.0-6.0-1.0-1.49","6605ca045eb1a7d83eac38a9","6662009ae78f21dd82fcd179","666207db29f6b2e5fd822ab5","null","","null","","","","","","","","./tasks/HMM-beads/Images/BlackBeadChoice.png","","","","","","","","","",""
"image-keyboard-response","286","694251","0.0-3.0-6.0-1.0-2.49","6605ca045eb1a7d83eac38a9","6662009ae78f21dd82fcd179","666207db29f6b2e5fd822ab5","null","","null","","","","","","","","./tasks/HMM-beads/Images/BlackBeadChoiceCorrect.png","","","","","","","","","",""
"image-keyboard-response","287","695429","0.0-3.0-6.0-1.0-0.50","6605ca045eb1a7d83eac38a9","6662009ae78f21dd82fcd179","666207db29f6b2e5fd822ab5","1175","","f","","","","","","","","./tasks/HMM-beads/Images/NewTrialBC.png","lowH","1","50","1","1","0","0","false","",""
"image-keyboard-response","288","695733","0.0-3.0-6.0-1.0-1.50","6605ca045eb1a7d83eac38a9","6662009ae78f21dd82fcd179","666207db29f6b2e5fd822ab5","null","","null","","","","","","","","./tasks/HMM-beads/Images/BlackBeadChoice.png","","","","","","","","","",""
"image-keyboard-response","289","696254","0.0-3.0-6.0-1.0-2.50","6605ca045eb1a7d83eac38a9","6662009ae78f21dd82fcd179","666207db29f6b2e5fd822ab5","null","","null","","","","","","","","./tasks/HMM-beads/Images/BlackBeadChoiceWrong.png","","","","","","","","","",""
"image-keyboard-response","290","699560","0.0-3.0-6.0-1.0-0.51","6605ca045eb1a7d83eac38a9","6662009ae78f21dd82fcd179","666207db29f6b2e5fd822ab5","3303","","f","","","","","","","","./tasks/HMM-beads/Images/NewTrialWC.png","lowH","1","51","1","1","1","0","false","",""
"image-keyboard-response","291","699864","0.0-3.0-6.0-1.0-1.51","6605ca045eb1a7d83eac38a9","6662009ae78f21dd82fcd179","666207db29f6b2e5fd822ab5","null","","null","","","","","","","","./tasks/HMM-beads/Images/BlackBeadChoice.png","","","","","","","","","",""
"image-keyboard-response","292","700369","0.0-3.0-6.0-1.0-2.51","6605ca045eb1a7d83eac38a9","6662009ae78f21dd82fcd179","666207db29f6b2e5fd822ab5","null","","null","","","","","","","","./tasks/HMM-beads/Images/BlackBeadChoiceWrong.png","","","","","","","","","",""
"image-keyboard-response","293","701159","0.0-3.0-6.0-1.0-0.52","6605ca045eb1a7d83eac38a9","6662009ae78f21dd82fcd179","666207db29f6b2e5fd822ab5","787","","j","","","","","","","","./tasks/HMM-beads/Images/NewTrialWC.png","lowH","1","52","1","1","1","1","true","",""
"image-keyboard-response","294","701465","0.0-3.0-6.0-1.0-1.52","6605ca045eb1a7d83eac38a9","6662009ae78f21dd82fcd179","666207db29f6b2e5fd822ab5","null","","null","","","","","","","","./tasks/HMM-beads/Images/WhiteBeadChoice.png","","","","","","","","","",""
"image-keyboard-response","295","701983","0.0-3.0-6.0-1.0-2.52","6605ca045eb1a7d83eac38a9","6662009ae78f21dd82fcd179","666207db29f6b2e5fd822ab5","null","","null","","","","","","","","./tasks/HMM-beads/Images/WhiteBeadChoiceCorrect.png","","","","","","","","","",""
"image-keyboard-response","296","702654","0.0-3.0-6.0-1.0-0.53","6605ca045eb1a7d83eac38a9","6662009ae78f21dd82fcd179","666207db29f6b2e5fd822ab5","667","","j","","","","","","","","./tasks/HMM-beads/Images/NewTrialWC.png","lowH","1","53","1","1","1","1","true","",""
"image-keyboard-response","297","702962","0.0-3.0-6.0-1.0-1.53","6605ca045eb1a7d83eac38a9","6662009ae78f21dd82fcd179","666207db29f6b2e5fd822ab5","null","","null","","","","","","","","./tasks/HMM-beads/Images/WhiteBeadChoice.png","","","","","","","","","",""
"image-keyboard-response","298","703469","0.0-3.0-6.0-1.0-2.53","6605ca045eb1a7d83eac38a9","6662009ae78f21dd82fcd179","666207db29f6b2e5fd822ab5","null","","null","","","","","","","","./tasks/HMM-beads/Images/WhiteBeadChoiceCorrect.png","","","","","","","","","",""
"image-keyboard-response","299","704211","0.0-3.0-6.0-1.0-0.54","6605ca045eb1a7d83eac38a9","6662009ae78f21dd82fcd179","666207db29f6b2e5fd822ab5","740","","j","","","","","","","","./tasks/HMM-beads/Images/NewTrialWC.png","lowH","1","54","1","1","1","1","true","",""
"image-keyboard-response","300","704515","0.0-3.0-6.0-1.0-1.54","6605ca045eb1a7d83eac38a9","6662009ae78f21dd82fcd179","666207db29f6b2e5fd822ab5","null","","null","","","","","","","","./tasks/HMM-beads/Images/WhiteBeadChoice.png","","","","","","","","","",""
"image-keyboard-response","301","705032","0.0-3.0-6.0-1.0-2.54","6605ca045eb1a7d83eac38a9","6662009ae78f21dd82fcd179","666207db29f6b2e5fd822ab5","null","","null","","","","","","","","./tasks/HMM-beads/Images/WhiteBeadChoiceCorrect.png","","","","","","","","","",""
"image-keyboard-response","302","705621","0.0-3.0-6.0-1.0-0.55","6605ca045eb1a7d83eac38a9","6662009ae78f21dd82fcd179","666207db29f6b2e5fd822ab5","581","","j","","","","","","","","./tasks/HMM-beads/Images/NewTrialWC.png","lowH","1","55","1","1","1","1","true","",""
"image-keyboard-response","303","705930","0.0-3.0-6.0-1.0-1.55","6605ca045eb1a7d83eac38a9","6662009ae78f21dd82fcd179","666207db29f6b2e5fd822ab5","null","","null","","","","","","","","./tasks/HMM-beads/Images/WhiteBeadChoice.png","","","","","","","","","",""
"image-keyboard-response","304","706434","0.0-3.0-6.0-1.0-2.55","6605ca045eb1a7d83eac38a9","6662009ae78f21dd82fcd179","666207db29f6b2e5fd822ab5","null","","null","","","","","","","","./tasks/HMM-beads/Images/WhiteBeadChoiceCorrect.png","","","","","","","","","",""
"image-keyboard-response","305","707455","0.0-3.0-6.0-1.0-0.56","6605ca045eb1a7d83eac38a9","6662009ae78f21dd82fcd179","666207db29f6b2e5fd822ab5","1018","","j","","","","","","","","./tasks/HMM-beads/Images/NewTrialWC.png","lowH","1","56","1","1","1","1","true","",""
"image-keyboard-response","306","707763","0.0-3.0-6.0-1.0-1.56","6605ca045eb1a7d83eac38a9","6662009ae78f21dd82fcd179","666207db29f6b2e5fd822ab5","null","","null","","","","","","","","./tasks/HMM-beads/Images/WhiteBeadChoice.png","","","","","","","","","",""
"image-keyboard-response","307","708268","0.0-3.0-6.0-1.0-2.56","6605ca045eb1a7d83eac38a9","6662009ae78f21dd82fcd179","666207db29f6b2e5fd822ab5","null","","null","","","","","","","","./tasks/HMM-beads/Images/WhiteBeadChoiceCorrect.png","","","","","","","","","",""
"image-keyboard-response","308","709089","0.0-3.0-6.0-1.0-0.57","6605ca045eb1a7d83eac38a9","6662009ae78f21dd82fcd179","666207db29f6b2e5fd822ab5","819","","j","","","","","","","","./tasks/HMM-beads/Images/NewTrialWC.png","lowH","1","57","1","1","1","1","true","",""
"image-keyboard-response","309","709396","0.0-3.0-6.0-1.0-1.57","6605ca045eb1a7d83eac38a9","6662009ae78f21dd82fcd179","666207db29f6b2e5fd822ab5","null","","null","","","","","","","","./tasks/HMM-beads/Images/WhiteBeadChoice.png","","","","","","","","","",""
"image-keyboard-response","310","709901","0.0-3.0-6.0-1.0-2.57","6605ca045eb1a7d83eac38a9","6662009ae78f21dd82fcd179","666207db29f6b2e5fd822ab5","null","","null","","","","","","","","./tasks/HMM-beads/Images/WhiteBeadChoiceCorrect.png","","","","","","","","","",""
"image-keyboard-response","311","710624","0.0-3.0-6.0-1.0-0.58","6605ca045eb1a7d83eac38a9","6662009ae78f21dd82fcd179","666207db29f6b2e5fd822ab5","721","","j","","","","","","","","./tasks/HMM-beads/Images/NewTrialWC.png","lowH","1","58","1","1","1","1","true","",""
"image-keyboard-response","312","710929","0.0-3.0-6.0-1.0-1.58","6605ca045eb1a7d83eac38a9","6662009ae78f21dd82fcd179","666207db29f6b2e5fd822ab5","null","","null","","","","","","","","./tasks/HMM-beads/Images/WhiteBeadChoice.png","","","","","","","","","",""
"image-keyboard-response","313","711434","0.0-3.0-6.0-1.0-2.58","6605ca045eb1a7d83eac38a9","6662009ae78f21dd82fcd179","666207db29f6b2e5fd822ab5","null","","null","","","","","","","","./tasks/HMM-beads/Images/WhiteBeadChoiceCorrect.png","","","","","","","","","",""
"image-keyboard-response","314","712162","0.0-3.0-6.0-1.0-0.59","6605ca045eb1a7d83eac38a9","6662009ae78f21dd82fcd179","666207db29f6b2e5fd822ab5","725","","j","","","","","","","","./tasks/HMM-beads/Images/NewTrialWC.png","lowH","1","59","1","0","1","1","false","",""
"image-keyboard-response","315","712496","0.0-3.0-6.0-1.0-1.59","6605ca045eb1a7d83eac38a9","6662009ae78f21dd82fcd179","666207db29f6b2e5fd822ab5","null","","null","","","","","","","","./tasks/HMM-beads/Images/WhiteBeadChoice.png","","","","","","","","","",""
"image-keyboard-response","316","713001","0.0-3.0-6.0-1.0-2.59","6605ca045eb1a7d83eac38a9","6662009ae78f21dd82fcd179","666207db29f6b2e5fd822ab5","null","","null","","","","","","","","./tasks/HMM-beads/Images/WhiteBeadChoiceWrong.png","","","","","","","","","",""
"image-keyboard-response","317","714607","0.0-3.0-6.0-1.0-0.60","6605ca045eb1a7d83eac38a9","6662009ae78f21dd82fcd179","666207db29f6b2e5fd822ab5","1602","","f","","","","","","","","./tasks/HMM-beads/Images/NewTrialBC.png","lowH","1","60","1","1","0","0","false","",""
"image-keyboard-response","318","714914","0.0-3.0-6.0-1.0-1.60","6605ca045eb1a7d83eac38a9","6662009ae78f21dd82fcd179","666207db29f6b2e5fd822ab5","null","","null","","","","","","","","./tasks/HMM-beads/Images/BlackBeadChoice.png","","","","","","","","","",""
"image-keyboard-response","319","715417","0.0-3.0-6.0-1.0-2.60","6605ca045eb1a7d83eac38a9","6662009ae78f21dd82fcd179","666207db29f6b2e5fd822ab5","null","","null","","","","","","","","./tasks/HMM-beads/Images/BlackBeadChoiceWrong.png","","","","","","","","","",""
"image-keyboard-response","320","717787","0.0-3.0-6.0-1.0-0.61","6605ca045eb1a7d83eac38a9","6662009ae78f21dd82fcd179","666207db29f6b2e5fd822ab5","2368","","f","","","","","","","","./tasks/HMM-beads/Images/NewTrialWC.png","lowH","1","61","1","1","1","0","false","",""
"image-keyboard-response","321","718095","0.0-3.0-6.0-1.0-1.61","6605ca045eb1a7d83eac38a9","6662009ae78f21dd82fcd179","666207db29f6b2e5fd822ab5","null","","null","","","","","","","","./tasks/HMM-beads/Images/BlackBeadChoice.png","","","","","","","","","",""
"image-keyboard-response","322","718602","0.0-3.0-6.0-1.0-2.61","6605ca045eb1a7d83eac38a9","6662009ae78f21dd82fcd179","666207db29f6b2e5fd822ab5","null","","null","","","","","","","","./tasks/HMM-beads/Images/BlackBeadChoiceWrong.png","","","","","","","","","",""
"image-keyboard-response","323","720215","0.0-3.0-6.0-1.0-0.62","6605ca045eb1a7d83eac38a9","6662009ae78f21dd82fcd179","666207db29f6b2e5fd822ab5","1610","","j","","","","","","","","./tasks/HMM-beads/Images/NewTrialWC.png","lowH","1","62","1","0","1","1","false","",""
"image-keyboard-response","324","720529","0.0-3.0-6.0-1.0-1.62","6605ca045eb1a7d83eac38a9","6662009ae78f21dd82fcd179","666207db29f6b2e5fd822ab5","null","","null","","","","","","","","./tasks/HMM-beads/Images/WhiteBeadChoice.png","","","","","","","","","",""
"image-keyboard-response","325","721033","0.0-3.0-6.0-1.0-2.62","6605ca045eb1a7d83eac38a9","6662009ae78f21dd82fcd179","666207db29f6b2e5fd822ab5","null","","null","","","","","","","","./tasks/HMM-beads/Images/WhiteBeadChoiceWrong.png","","","","","","","","","",""
"image-keyboard-response","326","721966","0.0-3.0-6.0-1.0-0.63","6605ca045eb1a7d83eac38a9","6662009ae78f21dd82fcd179","666207db29f6b2e5fd822ab5","930","","f","","","","","","","","./tasks/HMM-beads/Images/NewTrialBC.png","lowH","1","63","1","1","0","0","false","",""
"image-keyboard-response","327","722280","0.0-3.0-6.0-1.0-1.63","6605ca045eb1a7d83eac38a9","6662009ae78f21dd82fcd179","666207db29f6b2e5fd822ab5","null","","null","","","","","","","","./tasks/HMM-beads/Images/BlackBeadChoice.png","","","","","","","","","",""
"image-keyboard-response","328","722799","0.0-3.0-6.0-1.0-2.63","6605ca045eb1a7d83eac38a9","6662009ae78f21dd82fcd179","666207db29f6b2e5fd822ab5","null","","null","","","","","","","","./tasks/HMM-beads/Images/BlackBeadChoiceWrong.png","","","","","","","","","",""
"image-keyboard-response","329","724992","0.0-3.0-6.0-1.0-0.64","6605ca045eb1a7d83eac38a9","6662009ae78f21dd82fcd179","666207db29f6b2e5fd822ab5","2191","","j","","","","","","","","./tasks/HMM-beads/Images/NewTrialWC.png","lowH","1","64","1","1","1","1","true","",""
"image-keyboard-response","330","725298","0.0-3.0-6.0-1.0-1.64","6605ca045eb1a7d83eac38a9","6662009ae78f21dd82fcd179","666207db29f6b2e5fd822ab5","null","","null","","","","","","","","./tasks/HMM-beads/Images/WhiteBeadChoice.png","","","","","","","","","",""
"image-keyboard-response","331","725814","0.0-3.0-6.0-1.0-2.64","6605ca045eb1a7d83eac38a9","6662009ae78f21dd82fcd179","666207db29f6b2e5fd822ab5","null","","null","","","","","","","","./tasks/HMM-beads/Images/WhiteBeadChoiceCorrect.png","","","","","","","","","",""
"image-keyboard-response","332","726445","0.0-3.0-6.0-1.0-0.65","6605ca045eb1a7d83eac38a9","6662009ae78f21dd82fcd179","666207db29f6b2e5fd822ab5","629","","j","","","","","","","","./tasks/HMM-beads/Images/NewTrialWC.png","lowH","1","65","1","1","1","1","true","",""
"image-keyboard-response","333","726763","0.0-3.0-6.0-1.0-1.65","6605ca045eb1a7d83eac38a9","6662009ae78f21dd82fcd179","666207db29f6b2e5fd822ab5","null","","null","","","","","","","","./tasks/HMM-beads/Images/WhiteBeadChoice.png","","","","","","","","","",""
"image-keyboard-response","334","727281","0.0-3.0-6.0-1.0-2.65","6605ca045eb1a7d83eac38a9","6662009ae78f21dd82fcd179","666207db29f6b2e5fd822ab5","null","","null","","","","","","","","./tasks/HMM-beads/Images/WhiteBeadChoiceCorrect.png","","","","","","","","","",""
"image-keyboard-response","335","728044","0.0-3.0-6.0-1.0-0.66","6605ca045eb1a7d83eac38a9","6662009ae78f21dd82fcd179","666207db29f6b2e5fd822ab5","760","","j","","","","","","","","./tasks/HMM-beads/Images/NewTrialWC.png","lowH","1","66","1","1","1","1","true","",""
"image-keyboard-response","336","728362","0.0-3.0-6.0-1.0-1.66","6605ca045eb1a7d83eac38a9","6662009ae78f21dd82fcd179","666207db29f6b2e5fd822ab5","null","","null","","","","","","","","./tasks/HMM-beads/Images/WhiteBeadChoice.png","","","","","","","","","",""
"image-keyboard-response","337","728868","0.0-3.0-6.0-1.0-2.66","6605ca045eb1a7d83eac38a9","6662009ae78f21dd82fcd179","666207db29f6b2e5fd822ab5","null","","null","","","","","","","","./tasks/HMM-beads/Images/WhiteBeadChoiceCorrect.png","","","","","","","","","",""
"image-keyboard-response","338","729672","0.0-3.0-6.0-1.0-0.67","6605ca045eb1a7d83eac38a9","6662009ae78f21dd82fcd179","666207db29f6b2e5fd822ab5","797","","j","","","","","","","","./tasks/HMM-beads/Images/NewTrialWC.png","lowH","1","67","1","0","1","1","false","",""
"image-keyboard-response","339","729982","0.0-3.0-6.0-1.0-1.67","6605ca045eb1a7d83eac38a9","6662009ae78f21dd82fcd179","666207db29f6b2e5fd822ab5","null","","null","","","","","","","","./tasks/HMM-beads/Images/WhiteBeadChoice.png","","","","","","","","","",""
"image-keyboard-response","340","730487","0.0-3.0-6.0-1.0-2.67","6605ca045eb1a7d83eac38a9","6662009ae78f21dd82fcd179","666207db29f6b2e5fd822ab5","null","","null","","","","","","","","./tasks/HMM-beads/Images/WhiteBeadChoiceWrong.png","","","","","","","","","",""
"image-keyboard-response","341","731988","0.0-3.0-6.0-1.0-0.68","6605ca045eb1a7d83eac38a9","6662009ae78f21dd82fcd179","666207db29f6b2e5fd822ab5","1492","","j","","","","","","","","./tasks/HMM-beads/Images/NewTrialBC.png","lowH","1","68","1","1","0","1","true","",""
"image-keyboard-response","342","732299","0.0-3.0-6.0-1.0-1.68","6605ca045eb1a7d83eac38a9","6662009ae78f21dd82fcd179","666207db29f6b2e5fd822ab5","null","","null","","","","","","","","./tasks/HMM-beads/Images/WhiteBeadChoice.png","","","","","","","","","",""
"image-keyboard-response","343","732802","0.0-3.0-6.0-1.0-2.68","6605ca045eb1a7d83eac38a9","6662009ae78f21dd82fcd179","666207db29f6b2e5fd822ab5","null","","null","","","","","","","","./tasks/HMM-beads/Images/WhiteBeadChoiceCorrect.png","","","","","","","","","",""
"image-keyboard-response","344","733871","0.0-3.0-6.0-1.0-0.69","6605ca045eb1a7d83eac38a9","6662009ae78f21dd82fcd179","666207db29f6b2e5fd822ab5","1068","","j","","","","","","","","./tasks/HMM-beads/Images/NewTrialWC.png","lowH","1","69","0","1","1","1","true","",""
"image-keyboard-response","345","734181","0.0-3.0-6.0-1.0-1.69","6605ca045eb1a7d83eac38a9","6662009ae78f21dd82fcd179","666207db29f6b2e5fd822ab5","null","","null","","","","","","","","./tasks/HMM-beads/Images/WhiteBeadChoice.png","","","","","","","","","",""
"image-keyboard-response","346","734688","0.0-3.0-6.0-1.0-2.69","6605ca045eb1a7d83eac38a9","6662009ae78f21dd82fcd179","666207db29f6b2e5fd822ab5","null","","null","","","","","","","","./tasks/HMM-beads/Images/WhiteBeadChoiceCorrect.png","","","","","","","","","",""
"image-keyboard-response","347","735557","0.0-3.0-6.0-1.0-0.70","6605ca045eb1a7d83eac38a9","6662009ae78f21dd82fcd179","666207db29f6b2e5fd822ab5","866","","j","","","","","","","","./tasks/HMM-beads/Images/NewTrialWC.png","lowH","1","70","0","1","1","1","true","",""
"image-keyboard-response","348","735865","0.0-3.0-6.0-1.0-1.70","6605ca045eb1a7d83eac38a9","6662009ae78f21dd82fcd179","666207db29f6b2e5fd822ab5","null","","null","","","","","","","","./tasks/HMM-beads/Images/WhiteBeadChoice.png","","","","","","","","","",""
"image-keyboard-response","349","736371","0.0-3.0-6.0-1.0-2.70","6605ca045eb1a7d83eac38a9","6662009ae78f21dd82fcd179","666207db29f6b2e5fd822ab5","null","","null","","","","","","","","./tasks/HMM-beads/Images/WhiteBeadChoiceCorrect.png","","","","","","","","","",""
"image-keyboard-response","350","737509","0.0-3.0-6.0-1.0-0.71","6605ca045eb1a7d83eac38a9","6662009ae78f21dd82fcd179","666207db29f6b2e5fd822ab5","1135","","j","","","","","","","","./tasks/HMM-beads/Images/NewTrialWC.png","lowH","1","71","0","0","1","1","false","",""
"image-keyboard-response","351","737816","0.0-3.0-6.0-1.0-1.71","6605ca045eb1a7d83eac38a9","6662009ae78f21dd82fcd179","666207db29f6b2e5fd822ab5","null","","null","","","","","","","","./tasks/HMM-beads/Images/WhiteBeadChoice.png","","","","","","","","","",""
"image-keyboard-response","352","738320","0.0-3.0-6.0-1.0-2.71","6605ca045eb1a7d83eac38a9","6662009ae78f21dd82fcd179","666207db29f6b2e5fd822ab5","null","","null","","","","","","","","./tasks/HMM-beads/Images/WhiteBeadChoiceWrong.png","","","","","","","","","",""
"image-keyboard-response","353","740738","0.0-3.0-6.0-1.0-0.72","6605ca045eb1a7d83eac38a9","6662009ae78f21dd82fcd179","666207db29f6b2e5fd822ab5","2415","","j","","","","","","","","./tasks/HMM-beads/Images/NewTrialBC.png","lowH","1","72","0","0","0","1","false","",""
"image-keyboard-response","354","741065","0.0-3.0-6.0-1.0-1.72","6605ca045eb1a7d83eac38a9","6662009ae78f21dd82fcd179","666207db29f6b2e5fd822ab5","null","","null","","","","","","","","./tasks/HMM-beads/Images/WhiteBeadChoice.png","","","","","","","","","",""
"image-keyboard-response","355","741569","0.0-3.0-6.0-1.0-2.72","6605ca045eb1a7d83eac38a9","6662009ae78f21dd82fcd179","666207db29f6b2e5fd822ab5","null","","null","","","","","","","","./tasks/HMM-beads/Images/WhiteBeadChoiceWrong.png","","","","","","","","","",""
"image-keyboard-response","356","743067","0.0-3.0-6.0-1.0-0.73","6605ca045eb1a7d83eac38a9","6662009ae78f21dd82fcd179","666207db29f6b2e5fd822ab5","1496","","f","","","","","","","","./tasks/HMM-beads/Images/NewTrialBC.png","lowH","1","73","0","1","0","0","false","",""
"image-keyboard-response","357","743381","0.0-3.0-6.0-1.0-1.73","6605ca045eb1a7d83eac38a9","6662009ae78f21dd82fcd179","666207db29f6b2e5fd822ab5","null","","null","","","","","","","","./tasks/HMM-beads/Images/BlackBeadChoice.png","","","","","","","","","",""
"image-keyboard-response","358","743888","0.0-3.0-6.0-1.0-2.73","6605ca045eb1a7d83eac38a9","6662009ae78f21dd82fcd179","666207db29f6b2e5fd822ab5","null","","null","","","","","","","","./tasks/HMM-beads/Images/BlackBeadChoiceWrong.png","","","","","","","","","",""
"image-keyboard-response","359","744489","0.0-3.0-6.0-1.0-0.74","6605ca045eb1a7d83eac38a9","6662009ae78f21dd82fcd179","666207db29f6b2e5fd822ab5","598","","j","","","","","","","","./tasks/HMM-beads/Images/NewTrialWC.png","lowH","1","74","0","0","1","1","false","",""
"image-keyboard-response","360","744800","0.0-3.0-6.0-1.0-1.74","6605ca045eb1a7d83eac38a9","6662009ae78f21dd82fcd179","666207db29f6b2e5fd822ab5","null","","null","","","","","","","","./tasks/HMM-beads/Images/WhiteBeadChoice.png","","","","","","","","","",""
"image-keyboard-response","361","745317","0.0-3.0-6.0-1.0-2.74","6605ca045eb1a7d83eac38a9","6662009ae78f21dd82fcd179","666207db29f6b2e5fd822ab5","null","","null","","","","","","","","./tasks/HMM-beads/Images/WhiteBeadChoiceWrong.png","","","","","","","","","",""
"image-keyboard-response","362","748501","0.0-3.0-6.0-1.0-0.75","6605ca045eb1a7d83eac38a9","6662009ae78f21dd82fcd179","666207db29f6b2e5fd822ab5","3181","","j","","","","","","","","./tasks/HMM-beads/Images/NewTrialBC.png","lowH","1","75","0","1","0","1","true","",""
"image-keyboard-response","363","748815","0.0-3.0-6.0-1.0-1.75","6605ca045eb1a7d83eac38a9","6662009ae78f21dd82fcd179","666207db29f6b2e5fd822ab5","null","","null","","","","","","","","./tasks/HMM-beads/Images/WhiteBeadChoice.png","","","","","","","","","",""
"image-keyboard-response","364","749319","0.0-3.0-6.0-1.0-2.75","6605ca045eb1a7d83eac38a9","6662009ae78f21dd82fcd179","666207db29f6b2e5fd822ab5","null","","null","","","","","","","","./tasks/HMM-beads/Images/WhiteBeadChoiceCorrect.png","","","","","","","","","",""
"image-keyboard-response","365","750072","0.0-3.0-6.0-1.0-0.76","6605ca045eb1a7d83eac38a9","6662009ae78f21dd82fcd179","666207db29f6b2e5fd822ab5","750","","f","","","","","","","","./tasks/HMM-beads/Images/NewTrialWC.png","lowH","1","76","0","1","1","0","false","",""
"image-keyboard-response","366","750380","0.0-3.0-6.0-1.0-1.76","6605ca045eb1a7d83eac38a9","6662009ae78f21dd82fcd179","666207db29f6b2e5fd822ab5","null","","null","","","","","","","","./tasks/HMM-beads/Images/BlackBeadChoice.png","","","","","","","","","",""
"image-keyboard-response","367","750903","0.0-3.0-6.0-1.0-2.76","6605ca045eb1a7d83eac38a9","6662009ae78f21dd82fcd179","666207db29f6b2e5fd822ab5","null","","null","","","","","","","","./tasks/HMM-beads/Images/BlackBeadChoiceWrong.png","","","","","","","","","",""
"image-keyboard-response","368","751670","0.0-3.0-6.0-1.0-0.77","6605ca045eb1a7d83eac38a9","6662009ae78f21dd82fcd179","666207db29f6b2e5fd822ab5","763","","j","","","","","","","","./tasks/HMM-beads/Images/NewTrialWC.png","lowH","1","77","0","0","1","1","false","",""
"image-keyboard-response","369","751981","0.0-3.0-6.0-1.0-1.77","6605ca045eb1a7d83eac38a9","6662009ae78f21dd82fcd179","666207db29f6b2e5fd822ab5","null","","null","","","","","","","","./tasks/HMM-beads/Images/WhiteBeadChoice.png","","","","","","","","","",""
"image-keyboard-response","370","752484","0.0-3.0-6.0-1.0-2.77","6605ca045eb1a7d83eac38a9","6662009ae78f21dd82fcd179","666207db29f6b2e5fd822ab5","null","","null","","","","","","","","./tasks/HMM-beads/Images/WhiteBeadChoiceWrong.png","","","","","","","","","",""
"image-keyboard-response","371","755417","0.0-3.0-6.0-1.0-0.78","6605ca045eb1a7d83eac38a9","6662009ae78f21dd82fcd179","666207db29f6b2e5fd822ab5","2930","","j","","","","","","","","./tasks/HMM-beads/Images/NewTrialBC.png","lowH","1","78","0","0","0","1","false","",""
"image-keyboard-response","372","755731","0.0-3.0-6.0-1.0-1.78","6605ca045eb1a7d83eac38a9","6662009ae78f21dd82fcd179","666207db29f6b2e5fd822ab5","null","","null","","","","","","","","./tasks/HMM-beads/Images/WhiteBeadChoice.png","","","","","","","","","",""
"image-keyboard-response","373","756234","0.0-3.0-6.0-1.0-2.78","6605ca045eb1a7d83eac38a9","6662009ae78f21dd82fcd179","666207db29f6b2e5fd822ab5","null","","null","","","","","","","","./tasks/HMM-beads/Images/WhiteBeadChoiceWrong.png","","","","","","","","","",""
