"trial_type","trial_index","time_elapsed","internal_node_id","subject_id","study_id","session_id","rt","url","response","question_order","view_history","success","timeout","failed_images","failed_audio","failed_video","stimulus","block","block_rep","trial_number","jar","bead","previous_bead","choice","correct","lowH_score","total_bonus"
"pavlovia","0","3986","0.0-0.0","6653fd851febb9fc714b842a","666094c154fdc95dca3e206f","66609b86d9377b7188fce49a","","","","","","","","","","","","","","","","","","","","",""
"external-html","1","116650","0.0-1.0-0.0","6653fd851febb9fc714b842a","666094c154fdc95dca3e206f","66609b86d9377b7188fce49a","112135","new_consent.html","","","","","","","","","","","","","","","","","","",""
"survey-multi-choice","2","126206","0.0-1.0-1.0","6653fd851febb9fc714b842a","666094c154fdc95dca3e206f","66609b86d9377b7188fce49a","9546","","{""Q0"":""Female"",""Q1"":""Black or African American""}","[0,1]","","","","","","","","","","","","","","","","",""
"survey-text","3","131518","0.0-1.0-2.0","6653fd851febb9fc714b842a","666094c154fdc95dca3e206f","66609b86d9377b7188fce49a","5296","","{""Q0"":""60""}","","","","","","","","","","","","","","","","","",""
"instructions","4","135793","0.0-2.0","6653fd851febb9fc714b842a","666094c154fdc95dca3e206f","66609b86d9377b7188fce49a","4171","","","","[{""page_index"":0,""viewing_time"":4170}]","","","","","","","","","","","","","","","",""
"preload","5","147834","0.0-3.0-0.0","6653fd851febb9fc714b842a","666094c154fdc95dca3e206f","66609b86d9377b7188fce49a","","","","","","true","false","[]","[]","[]","","","","","","","","","","",""
"instructions","6","427641","0.0-3.0-1.0","6653fd851febb9fc714b842a","666094c154fdc95dca3e206f","66609b86d9377b7188fce49a","279805","","","","[{""page_index"":0,""viewing_time"":34687},{""page_index"":1,""viewing_time"":31725},{""page_index"":2,""viewing_time"":6648},{""page_index"":3,""viewing_time"":2769},{""page_index"":4,""viewing_time"":31299},{""page_index"":5,""viewing_time"":45898},{""page_index"":6,""viewing_time"":16595},{""page_index"":7,""viewing_time"":24853},{""page_index"":8,""viewing_time"":16760},{""page_index"":9,""viewing_time"":20977},{""page_index"":10,""viewing_time"":42592},{""page_index"":11,""viewing_time"":5002}]","","","","","","","","","","","","","","","",""
"html-button-response","7","437254","0.0-3.0-2.0-0.0-0.0","6653fd851febb9fc714b842a","666094c154fdc95dca3e206f","66609b86d9377b7188fce49a","9611","","1","","","","","","","","<div align=center>Your goal is to predict…?<br><br></div>","","","","","","","","","",""
"html-button-response","8","450566","0.0-3.0-2.0-1.0-0.0","6653fd851febb9fc714b842a","666094c154fdc95dca3e206f","66609b86d9377b7188fce49a","10133","","2","","","","","","","","<div align=center>In the jar with mostly white beads, there are ___% white beads and ___% black beads?<br><br></div>","","","","","","","","","",""
"html-button-response","9","466849","0.0-3.0-2.0-2.0-0.0","6653fd851febb9fc714b842a","666094c154fdc95dca3e206f","66609b86d9377b7188fce49a","14544","","0","","","","","","","","<div align=center>When there is a 1% probability that the jars will switch, the next bead will most likely be drawn from the…<br><br></div>","","","","","","","","","",""
"html-button-response","10","477440","0.0-3.0-2.0-3.0-0.0","6653fd851febb9fc714b842a","666094c154fdc95dca3e206f","66609b86d9377b7188fce49a","8543","","1","","","","","","","","<div align=center>When there is a 99% probability that the jars will switch, the next bead will most likely be drawn from the…<br><br></div>","","","","","","","","","",""
"instructions","11","539206","0.0-3.0-3.0","6653fd851febb9fc714b842a","666094c154fdc95dca3e206f","66609b86d9377b7188fce49a","59080","","","","[{""page_index"":0,""viewing_time"":59079}]","","","","","","","","","","","","","","","",""
"html-keyboard-response","12","551107","0.0-3.0-4.0-0.0","6653fd851febb9fc714b842a","666094c154fdc95dca3e206f","66609b86d9377b7188fce49a","11895",""," ","","","","","","","","<div align=center>In this practice block, there will be a <b>1% chance</b> that the jar on the next trial will be different from the jar on the current trial.<br><br></div>","","","","","","","","","",""
"image-keyboard-response","13","566539","0.0-3.0-4.0-1.0-0.0","6653fd851febb9fc714b842a","666094c154fdc95dca3e206f","66609b86d9377b7188fce49a","15396","","j","","","","","","","","./tasks/HMM-beads/Images/NoChoice.png","practice","0","0","0","0","9","1","false","",""
"image-keyboard-response","14","566857","0.0-3.0-4.0-1.0-1.0","6653fd851febb9fc714b842a","666094c154fdc95dca3e206f","66609b86d9377b7188fce49a","null","","null","","","","","","","","./tasks/HMM-beads/Images/WhiteBeadChoice.png","","","","","","","","","",""
"image-keyboard-response","15","567383","0.0-3.0-4.0-1.0-2.0","6653fd851febb9fc714b842a","666094c154fdc95dca3e206f","66609b86d9377b7188fce49a","null","","null","","","","","","","","./tasks/HMM-beads/Images/WhiteBeadChoiceWrong.png","","","","","","","","","",""
"image-keyboard-response","16","576454","0.0-3.0-4.0-1.0-0.1","6653fd851febb9fc714b842a","666094c154fdc95dca3e206f","66609b86d9377b7188fce49a","9053","","f","","","","","","","","./tasks/HMM-beads/Images/NewTrialBC.png","practice","0","1","0","0","0","0","true","",""
"image-keyboard-response","17","576776","0.0-3.0-4.0-1.0-1.1","6653fd851febb9fc714b842a","666094c154fdc95dca3e206f","66609b86d9377b7188fce49a","null","","null","","","","","","","","./tasks/HMM-beads/Images/BlackBeadChoice.png","","","","","","","","","",""
"image-keyboard-response","18","577290","0.0-3.0-4.0-1.0-2.1","6653fd851febb9fc714b842a","666094c154fdc95dca3e206f","66609b86d9377b7188fce49a","null","","null","","","","","","","","./tasks/HMM-beads/Images/BlackBeadChoiceCorrect.png","","","","","","","","","",""
"image-keyboard-response","19","592689","0.0-3.0-4.0-1.0-0.2","6653fd851febb9fc714b842a","666094c154fdc95dca3e206f","66609b86d9377b7188fce49a","15397","","j","","","","","","","","./tasks/HMM-beads/Images/NewTrialBC.png","practice","0","2","0","1","0","1","true","",""
"image-keyboard-response","20","592993","0.0-3.0-4.0-1.0-1.2","6653fd851febb9fc714b842a","666094c154fdc95dca3e206f","66609b86d9377b7188fce49a","null","","null","","","","","","","","./tasks/HMM-beads/Images/WhiteBeadChoice.png","","","","","","","","","",""
"image-keyboard-response","21","593521","0.0-3.0-4.0-1.0-2.2","6653fd851febb9fc714b842a","666094c154fdc95dca3e206f","66609b86d9377b7188fce49a","null","","null","","","","","","","","./tasks/HMM-beads/Images/WhiteBeadChoiceCorrect.png","","","","","","","","","",""
"image-keyboard-response","22","606938","0.0-3.0-4.0-1.0-0.3","6653fd851febb9fc714b842a","666094c154fdc95dca3e206f","66609b86d9377b7188fce49a","13400","","f","","","","","","","","./tasks/HMM-beads/Images/NewTrialWC.png","practice","0","3","0","0","1","0","true","",""
"image-keyboard-response","23","607240","0.0-3.0-4.0-1.0-1.3","6653fd851febb9fc714b842a","666094c154fdc95dca3e206f","66609b86d9377b7188fce49a","null","","null","","","","","","","","./tasks/HMM-beads/Images/BlackBeadChoice.png","","","","","","","","","",""
"image-keyboard-response","24","607752","0.0-3.0-4.0-1.0-2.3","6653fd851febb9fc714b842a","666094c154fdc95dca3e206f","66609b86d9377b7188fce49a","null","","null","","","","","","","","./tasks/HMM-beads/Images/BlackBeadChoiceCorrect.png","","","","","","","","","",""
"image-keyboard-response","25","610237","0.0-3.0-4.0-1.0-0.4","6653fd851febb9fc714b842a","666094c154fdc95dca3e206f","66609b86d9377b7188fce49a","2484","","f","","","","","","","","./tasks/HMM-beads/Images/NewTrialBC.png","practice","0","4","0","0","0","0","true","",""
"image-keyboard-response","26","610547","0.0-3.0-4.0-1.0-1.4","6653fd851febb9fc714b842a","666094c154fdc95dca3e206f","66609b86d9377b7188fce49a","null","","null","","","","","","","","./tasks/HMM-beads/Images/BlackBeadChoice.png","","","","","","","","","",""
"image-keyboard-response","27","611056","0.0-3.0-4.0-1.0-2.4","6653fd851febb9fc714b842a","666094c154fdc95dca3e206f","66609b86d9377b7188fce49a","null","","null","","","","","","","","./tasks/HMM-beads/Images/BlackBeadChoiceCorrect.png","","","","","","","","","",""
"image-keyboard-response","28","618405","0.0-3.0-4.0-1.0-0.5","6653fd851febb9fc714b842a","666094c154fdc95dca3e206f","66609b86d9377b7188fce49a","7348","","j","","","","","","","","./tasks/HMM-beads/Images/NewTrialBC.png","practice","0","5","0","1","0","1","true","",""
"image-keyboard-response","29","618711","0.0-3.0-4.0-1.0-1.5","6653fd851febb9fc714b842a","666094c154fdc95dca3e206f","66609b86d9377b7188fce49a","null","","null","","","","","","","","./tasks/HMM-beads/Images/WhiteBeadChoice.png","","","","","","","","","",""
"image-keyboard-response","30","619222","0.0-3.0-4.0-1.0-2.5","6653fd851febb9fc714b842a","666094c154fdc95dca3e206f","66609b86d9377b7188fce49a","null","","null","","","","","","","","./tasks/HMM-beads/Images/WhiteBeadChoiceCorrect.png","","","","","","","","","",""
"image-keyboard-response","31","624255","0.0-3.0-4.0-1.0-0.6","6653fd851febb9fc714b842a","666094c154fdc95dca3e206f","66609b86d9377b7188fce49a","5033","","j","","","","","","","","./tasks/HMM-beads/Images/NewTrialWC.png","practice","0","6","0","0","1","1","false","",""
"image-keyboard-response","32","624563","0.0-3.0-4.0-1.0-1.6","6653fd851febb9fc714b842a","666094c154fdc95dca3e206f","66609b86d9377b7188fce49a","null","","null","","","","","","","","./tasks/HMM-beads/Images/WhiteBeadChoice.png","","","","","","","","","",""
"image-keyboard-response","33","625077","0.0-3.0-4.0-1.0-2.6","6653fd851febb9fc714b842a","666094c154fdc95dca3e206f","66609b86d9377b7188fce49a","null","","null","","","","","","","","./tasks/HMM-beads/Images/WhiteBeadChoiceWrong.png","","","","","","","","","",""
"image-keyboard-response","34","627124","0.0-3.0-4.0-1.0-0.7","6653fd851febb9fc714b842a","666094c154fdc95dca3e206f","66609b86d9377b7188fce49a","2045","","f","","","","","","","","./tasks/HMM-beads/Images/NewTrialBC.png","practice","0","7","0","0","0","0","true","",""
"image-keyboard-response","35","627442","0.0-3.0-4.0-1.0-1.7","6653fd851febb9fc714b842a","666094c154fdc95dca3e206f","66609b86d9377b7188fce49a","null","","null","","","","","","","","./tasks/HMM-beads/Images/BlackBeadChoice.png","","","","","","","","","",""
"image-keyboard-response","36","627955","0.0-3.0-4.0-1.0-2.7","6653fd851febb9fc714b842a","666094c154fdc95dca3e206f","66609b86d9377b7188fce49a","null","","null","","","","","","","","./tasks/HMM-beads/Images/BlackBeadChoiceCorrect.png","","","","","","","","","",""
"image-keyboard-response","37","628711","0.0-3.0-4.0-1.0-0.8","6653fd851febb9fc714b842a","666094c154fdc95dca3e206f","66609b86d9377b7188fce49a","754","","f","","","","","","","","./tasks/HMM-beads/Images/NewTrialBC.png","practice","0","8","0","0","0","0","true","",""
"image-keyboard-response","38","629021","0.0-3.0-4.0-1.0-1.8","6653fd851febb9fc714b842a","666094c154fdc95dca3e206f","66609b86d9377b7188fce49a","null","","null","","","","","","","","./tasks/HMM-beads/Images/BlackBeadChoice.png","","","","","","","","","",""
"image-keyboard-response","39","629532","0.0-3.0-4.0-1.0-2.8","6653fd851febb9fc714b842a","666094c154fdc95dca3e206f","66609b86d9377b7188fce49a","null","","null","","","","","","","","./tasks/HMM-beads/Images/BlackBeadChoiceCorrect.png","","","","","","","","","",""
"image-keyboard-response","40","630531","0.0-3.0-4.0-1.0-0.9","6653fd851febb9fc714b842a","666094c154fdc95dca3e206f","66609b86d9377b7188fce49a","999","","f","","","","","","","","./tasks/HMM-beads/Images/NewTrialBC.png","practice","0","9","0","1","0","0","false","",""
"image-keyboard-response","41","630839","0.0-3.0-4.0-1.0-1.9","6653fd851febb9fc714b842a","666094c154fdc95dca3e206f","66609b86d9377b7188fce49a","null","","null","","","","","","","","./tasks/HMM-beads/Images/BlackBeadChoice.png","","","","","","","","","",""
"image-keyboard-response","42","631354","0.0-3.0-4.0-1.0-2.9","6653fd851febb9fc714b842a","666094c154fdc95dca3e206f","66609b86d9377b7188fce49a","null","","null","","","","","","","","./tasks/HMM-beads/Images/BlackBeadChoiceWrong.png","","","","","","","","","",""
"image-keyboard-response","43","633127","0.0-3.0-4.0-1.0-0.10","6653fd851febb9fc714b842a","666094c154fdc95dca3e206f","66609b86d9377b7188fce49a","1772","","j","","","","","","","","./tasks/HMM-beads/Images/NewTrialWC.png","practice","0","10","0","0","1","1","false","",""
"image-keyboard-response","44","633433","0.0-3.0-4.0-1.0-1.10","6653fd851febb9fc714b842a","666094c154fdc95dca3e206f","66609b86d9377b7188fce49a","null","","null","","","","","","","","./tasks/HMM-beads/Images/WhiteBeadChoice.png","","","","","","","","","",""
"image-keyboard-response","45","633950","0.0-3.0-4.0-1.0-2.10","6653fd851febb9fc714b842a","666094c154fdc95dca3e206f","66609b86d9377b7188fce49a","null","","null","","","","","","","","./tasks/HMM-beads/Images/WhiteBeadChoiceWrong.png","","","","","","","","","",""
"image-keyboard-response","46","635209","0.0-3.0-4.0-1.0-0.11","6653fd851febb9fc714b842a","666094c154fdc95dca3e206f","66609b86d9377b7188fce49a","1255","","j","","","","","","","","./tasks/HMM-beads/Images/NewTrialBC.png","practice","0","11","0","1","0","1","true","",""
"image-keyboard-response","47","635524","0.0-3.0-4.0-1.0-1.11","6653fd851febb9fc714b842a","666094c154fdc95dca3e206f","66609b86d9377b7188fce49a","null","","null","","","","","","","","./tasks/HMM-beads/Images/WhiteBeadChoice.png","","","","","","","","","",""
"image-keyboard-response","48","636038","0.0-3.0-4.0-1.0-2.11","6653fd851febb9fc714b842a","666094c154fdc95dca3e206f","66609b86d9377b7188fce49a","null","","null","","","","","","","","./tasks/HMM-beads/Images/WhiteBeadChoiceCorrect.png","","","","","","","","","",""
"image-keyboard-response","49","636969","0.0-3.0-4.0-1.0-0.12","6653fd851febb9fc714b842a","666094c154fdc95dca3e206f","66609b86d9377b7188fce49a","928","","j","","","","","","","","./tasks/HMM-beads/Images/NewTrialWC.png","practice","0","12","0","0","1","1","false","",""
"image-keyboard-response","50","637282","0.0-3.0-4.0-1.0-1.12","6653fd851febb9fc714b842a","666094c154fdc95dca3e206f","66609b86d9377b7188fce49a","null","","null","","","","","","","","./tasks/HMM-beads/Images/WhiteBeadChoice.png","","","","","","","","","",""
"image-keyboard-response","51","637794","0.0-3.0-4.0-1.0-2.12","6653fd851febb9fc714b842a","666094c154fdc95dca3e206f","66609b86d9377b7188fce49a","null","","null","","","","","","","","./tasks/HMM-beads/Images/WhiteBeadChoiceWrong.png","","","","","","","","","",""
"image-keyboard-response","52","638715","0.0-3.0-4.0-1.0-0.13","6653fd851febb9fc714b842a","666094c154fdc95dca3e206f","66609b86d9377b7188fce49a","916","","f","","","","","","","","./tasks/HMM-beads/Images/NewTrialBC.png","practice","0","13","0","0","0","0","true","",""
"image-keyboard-response","53","639022","0.0-3.0-4.0-1.0-1.13","6653fd851febb9fc714b842a","666094c154fdc95dca3e206f","66609b86d9377b7188fce49a","null","","null","","","","","","","","./tasks/HMM-beads/Images/BlackBeadChoice.png","","","","","","","","","",""
"image-keyboard-response","54","639583","0.0-3.0-4.0-1.0-2.13","6653fd851febb9fc714b842a","666094c154fdc95dca3e206f","66609b86d9377b7188fce49a","null","","null","","","","","","","","./tasks/HMM-beads/Images/BlackBeadChoiceCorrect.png","","","","","","","","","",""
"image-keyboard-response","55","640119","0.0-3.0-4.0-1.0-0.14","6653fd851febb9fc714b842a","666094c154fdc95dca3e206f","66609b86d9377b7188fce49a","535","","j","","","","","","","","./tasks/HMM-beads/Images/NewTrialBC.png","practice","0","14","0","0","0","1","false","",""
"image-keyboard-response","56","640424","0.0-3.0-4.0-1.0-1.14","6653fd851febb9fc714b842a","666094c154fdc95dca3e206f","66609b86d9377b7188fce49a","null","","null","","","","","","","","./tasks/HMM-beads/Images/WhiteBeadChoice.png","","","","","","","","","",""
"image-keyboard-response","57","640936","0.0-3.0-4.0-1.0-2.14","6653fd851febb9fc714b842a","666094c154fdc95dca3e206f","66609b86d9377b7188fce49a","null","","null","","","","","","","","./tasks/HMM-beads/Images/WhiteBeadChoiceWrong.png","","","","","","","","","",""
"image-keyboard-response","58","641532","0.0-3.0-4.0-1.0-0.15","6653fd851febb9fc714b842a","666094c154fdc95dca3e206f","66609b86d9377b7188fce49a","597","","f","","","","","","","","./tasks/HMM-beads/Images/NewTrialBC.png","practice","0","15","0","0","0","0","true","",""
"image-keyboard-response","59","641839","0.0-3.0-4.0-1.0-1.15","6653fd851febb9fc714b842a","666094c154fdc95dca3e206f","66609b86d9377b7188fce49a","null","","null","","","","","","","","./tasks/HMM-beads/Images/BlackBeadChoice.png","","","","","","","","","",""
"image-keyboard-response","60","642353","0.0-3.0-4.0-1.0-2.15","6653fd851febb9fc714b842a","666094c154fdc95dca3e206f","66609b86d9377b7188fce49a","null","","null","","","","","","","","./tasks/HMM-beads/Images/BlackBeadChoiceCorrect.png","","","","","","","","","",""
"image-keyboard-response","61","643244","0.0-3.0-4.0-1.0-0.16","6653fd851febb9fc714b842a","666094c154fdc95dca3e206f","66609b86d9377b7188fce49a","889","","f","","","","","","","","./tasks/HMM-beads/Images/NewTrialBC.png","practice","0","16","0","0","0","0","true","",""
"image-keyboard-response","62","643548","0.0-3.0-4.0-1.0-1.16","6653fd851febb9fc714b842a","666094c154fdc95dca3e206f","66609b86d9377b7188fce49a","null","","null","","","","","","","","./tasks/HMM-beads/Images/BlackBeadChoice.png","","","","","","","","","",""
"image-keyboard-response","63","644059","0.0-3.0-4.0-1.0-2.16","6653fd851febb9fc714b842a","666094c154fdc95dca3e206f","66609b86d9377b7188fce49a","null","","null","","","","","","","","./tasks/HMM-beads/Images/BlackBeadChoiceCorrect.png","","","","","","","","","",""
"image-keyboard-response","64","644582","0.0-3.0-4.0-1.0-0.17","6653fd851febb9fc714b842a","666094c154fdc95dca3e206f","66609b86d9377b7188fce49a","520","","j","","","","","","","","./tasks/HMM-beads/Images/NewTrialBC.png","practice","0","17","0","0","0","1","false","",""
"image-keyboard-response","65","644885","0.0-3.0-4.0-1.0-1.17","6653fd851febb9fc714b842a","666094c154fdc95dca3e206f","66609b86d9377b7188fce49a","null","","null","","","","","","","","./tasks/HMM-beads/Images/WhiteBeadChoice.png","","","","","","","","","",""
"image-keyboard-response","66","645401","0.0-3.0-4.0-1.0-2.17","6653fd851febb9fc714b842a","666094c154fdc95dca3e206f","66609b86d9377b7188fce49a","null","","null","","","","","","","","./tasks/HMM-beads/Images/WhiteBeadChoiceWrong.png","","","","","","","","","",""
"image-keyboard-response","67","645682","0.0-3.0-4.0-1.0-0.18","6653fd851febb9fc714b842a","666094c154fdc95dca3e206f","66609b86d9377b7188fce49a","279","","f","","","","","","","","./tasks/HMM-beads/Images/NewTrialBC.png","practice","0","18","0","1","0","0","false","",""
"image-keyboard-response","68","645989","0.0-3.0-4.0-1.0-1.18","6653fd851febb9fc714b842a","666094c154fdc95dca3e206f","66609b86d9377b7188fce49a","null","","null","","","","","","","","./tasks/HMM-beads/Images/BlackBeadChoice.png","","","","","","","","","",""
"image-keyboard-response","69","646504","0.0-3.0-4.0-1.0-2.18","6653fd851febb9fc714b842a","666094c154fdc95dca3e206f","66609b86d9377b7188fce49a","null","","null","","","","","","","","./tasks/HMM-beads/Images/BlackBeadChoiceWrong.png","","","","","","","","","",""
"image-keyboard-response","70","647498","0.0-3.0-4.0-1.0-0.19","6653fd851febb9fc714b842a","666094c154fdc95dca3e206f","66609b86d9377b7188fce49a","993","","j","","","","","","","","./tasks/HMM-beads/Images/NewTrialWC.png","practice","0","19","0","0","1","1","false","",""
"image-keyboard-response","71","647810","0.0-3.0-4.0-1.0-1.19","6653fd851febb9fc714b842a","666094c154fdc95dca3e206f","66609b86d9377b7188fce49a","null","","null","","","","","","","","./tasks/HMM-beads/Images/WhiteBeadChoice.png","","","","","","","","","",""
"image-keyboard-response","72","648322","0.0-3.0-4.0-1.0-2.19","6653fd851febb9fc714b842a","666094c154fdc95dca3e206f","66609b86d9377b7188fce49a","null","","null","","","","","","","","./tasks/HMM-beads/Images/WhiteBeadChoiceWrong.png","","","","","","","","","",""
"image-keyboard-response","73","649357","0.0-3.0-4.0-1.0-0.20","6653fd851febb9fc714b842a","666094c154fdc95dca3e206f","66609b86d9377b7188fce49a","1034","","j","","","","","","","","./tasks/HMM-beads/Images/NewTrialBC.png","practice","0","20","0","0","0","1","false","",""
"image-keyboard-response","74","649687","0.0-3.0-4.0-1.0-1.20","6653fd851febb9fc714b842a","666094c154fdc95dca3e206f","66609b86d9377b7188fce49a","null","","null","","","","","","","","./tasks/HMM-beads/Images/WhiteBeadChoice.png","","","","","","","","","",""
"image-keyboard-response","75","650202","0.0-3.0-4.0-1.0-2.20","6653fd851febb9fc714b842a","666094c154fdc95dca3e206f","66609b86d9377b7188fce49a","null","","null","","","","","","","","./tasks/HMM-beads/Images/WhiteBeadChoiceWrong.png","","","","","","","","","",""
"image-keyboard-response","76","650904","0.0-3.0-4.0-1.0-0.21","6653fd851febb9fc714b842a","666094c154fdc95dca3e206f","66609b86d9377b7188fce49a","701","","j","","","","","","","","./tasks/HMM-beads/Images/NewTrialBC.png","practice","0","21","0","1","0","1","true","",""
"image-keyboard-response","77","651210","0.0-3.0-4.0-1.0-1.21","6653fd851febb9fc714b842a","666094c154fdc95dca3e206f","66609b86d9377b7188fce49a","null","","null","","","","","","","","./tasks/HMM-beads/Images/WhiteBeadChoice.png","","","","","","","","","",""
"image-keyboard-response","78","651722","0.0-3.0-4.0-1.0-2.21","6653fd851febb9fc714b842a","666094c154fdc95dca3e206f","66609b86d9377b7188fce49a","null","","null","","","","","","","","./tasks/HMM-beads/Images/WhiteBeadChoiceCorrect.png","","","","","","","","","",""
"image-keyboard-response","79","652932","0.0-3.0-4.0-1.0-0.22","6653fd851febb9fc714b842a","666094c154fdc95dca3e206f","66609b86d9377b7188fce49a","1207","","j","","","","","","","","./tasks/HMM-beads/Images/NewTrialWC.png","practice","0","22","1","1","1","1","true","",""
"image-keyboard-response","80","653245","0.0-3.0-4.0-1.0-1.22","6653fd851febb9fc714b842a","666094c154fdc95dca3e206f","66609b86d9377b7188fce49a","null","","null","","","","","","","","./tasks/HMM-beads/Images/WhiteBeadChoice.png","","","","","","","","","",""
"image-keyboard-response","81","653755","0.0-3.0-4.0-1.0-2.22","6653fd851febb9fc714b842a","666094c154fdc95dca3e206f","66609b86d9377b7188fce49a","null","","null","","","","","","","","./tasks/HMM-beads/Images/WhiteBeadChoiceCorrect.png","","","","","","","","","",""
"image-keyboard-response","82","654524","0.0-3.0-4.0-1.0-0.23","6653fd851febb9fc714b842a","666094c154fdc95dca3e206f","66609b86d9377b7188fce49a","768","","f","","","","","","","","./tasks/HMM-beads/Images/NewTrialWC.png","practice","0","23","1","0","1","0","true","",""
"image-keyboard-response","83","654825","0.0-3.0-4.0-1.0-1.23","6653fd851febb9fc714b842a","666094c154fdc95dca3e206f","66609b86d9377b7188fce49a","null","","null","","","","","","","","./tasks/HMM-beads/Images/BlackBeadChoice.png","","","","","","","","","",""
"image-keyboard-response","84","655335","0.0-3.0-4.0-1.0-2.23","6653fd851febb9fc714b842a","666094c154fdc95dca3e206f","66609b86d9377b7188fce49a","null","","null","","","","","","","","./tasks/HMM-beads/Images/BlackBeadChoiceCorrect.png","","","","","","","","","",""
"image-keyboard-response","85","656049","0.0-3.0-4.0-1.0-0.24","6653fd851febb9fc714b842a","666094c154fdc95dca3e206f","66609b86d9377b7188fce49a","711","","f","","","","","","","","./tasks/HMM-beads/Images/NewTrialBC.png","practice","0","24","1","1","0","0","false","",""
"image-keyboard-response","86","656359","0.0-3.0-4.0-1.0-1.24","6653fd851febb9fc714b842a","666094c154fdc95dca3e206f","66609b86d9377b7188fce49a","null","","null","","","","","","","","./tasks/HMM-beads/Images/BlackBeadChoice.png","","","","","","","","","",""
"image-keyboard-response","87","656873","0.0-3.0-4.0-1.0-2.24","6653fd851febb9fc714b842a","666094c154fdc95dca3e206f","66609b86d9377b7188fce49a","null","","null","","","","","","","","./tasks/HMM-beads/Images/BlackBeadChoiceWrong.png","","","","","","","","","",""
"image-keyboard-response","88","659474","0.0-3.0-4.0-1.0-0.25","6653fd851febb9fc714b842a","666094c154fdc95dca3e206f","66609b86d9377b7188fce49a","2598","","j","","","","","","","","./tasks/HMM-beads/Images/NewTrialWC.png","practice","0","25","1","1","1","1","true","",""
"image-keyboard-response","89","659784","0.0-3.0-4.0-1.0-1.25","6653fd851febb9fc714b842a","666094c154fdc95dca3e206f","66609b86d9377b7188fce49a","null","","null","","","","","","","","./tasks/HMM-beads/Images/WhiteBeadChoice.png","","","","","","","","","",""
"image-keyboard-response","90","660297","0.0-3.0-4.0-1.0-2.25","6653fd851febb9fc714b842a","666094c154fdc95dca3e206f","66609b86d9377b7188fce49a","null","","null","","","","","","","","./tasks/HMM-beads/Images/WhiteBeadChoiceCorrect.png","","","","","","","","","",""
"image-keyboard-response","91","661356","0.0-3.0-4.0-1.0-0.26","6653fd851febb9fc714b842a","666094c154fdc95dca3e206f","66609b86d9377b7188fce49a","1058","","f","","","","","","","","./tasks/HMM-beads/Images/NewTrialWC.png","practice","0","26","1","1","1","0","false","",""
"image-keyboard-response","92","661660","0.0-3.0-4.0-1.0-1.26","6653fd851febb9fc714b842a","666094c154fdc95dca3e206f","66609b86d9377b7188fce49a","null","","null","","","","","","","","./tasks/HMM-beads/Images/BlackBeadChoice.png","","","","","","","","","",""
"image-keyboard-response","93","662175","0.0-3.0-4.0-1.0-2.26","6653fd851febb9fc714b842a","666094c154fdc95dca3e206f","66609b86d9377b7188fce49a","null","","null","","","","","","","","./tasks/HMM-beads/Images/BlackBeadChoiceWrong.png","","","","","","","","","",""
"image-keyboard-response","94","663407","0.0-3.0-4.0-1.0-0.27","6653fd851febb9fc714b842a","666094c154fdc95dca3e206f","66609b86d9377b7188fce49a","1230","","f","","","","","","","","./tasks/HMM-beads/Images/NewTrialWC.png","practice","0","27","1","1","1","0","false","",""
"image-keyboard-response","95","663717","0.0-3.0-4.0-1.0-1.27","6653fd851febb9fc714b842a","666094c154fdc95dca3e206f","66609b86d9377b7188fce49a","null","","null","","","","","","","","./tasks/HMM-beads/Images/BlackBeadChoice.png","","","","","","","","","",""
"image-keyboard-response","96","664229","0.0-3.0-4.0-1.0-2.27","6653fd851febb9fc714b842a","666094c154fdc95dca3e206f","66609b86d9377b7188fce49a","null","","null","","","","","","","","./tasks/HMM-beads/Images/BlackBeadChoiceWrong.png","","","","","","","","","",""
"image-keyboard-response","97","665044","0.0-3.0-4.0-1.0-0.28","6653fd851febb9fc714b842a","666094c154fdc95dca3e206f","66609b86d9377b7188fce49a","813","","f","","","","","","","","./tasks/HMM-beads/Images/NewTrialWC.png","practice","0","28","1","0","1","0","true","",""
"image-keyboard-response","98","665349","0.0-3.0-4.0-1.0-1.28","6653fd851febb9fc714b842a","666094c154fdc95dca3e206f","66609b86d9377b7188fce49a","null","","null","","","","","","","","./tasks/HMM-beads/Images/BlackBeadChoice.png","","","","","","","","","",""
"image-keyboard-response","99","665859","0.0-3.0-4.0-1.0-2.28","6653fd851febb9fc714b842a","666094c154fdc95dca3e206f","66609b86d9377b7188fce49a","null","","null","","","","","","","","./tasks/HMM-beads/Images/BlackBeadChoiceCorrect.png","","","","","","","","","",""
"image-keyboard-response","100","666755","0.0-3.0-4.0-1.0-0.29","6653fd851febb9fc714b842a","666094c154fdc95dca3e206f","66609b86d9377b7188fce49a","894","","f","","","","","","","","./tasks/HMM-beads/Images/NewTrialBC.png","practice","0","29","1","1","0","0","false","",""
"image-keyboard-response","101","667069","0.0-3.0-4.0-1.0-1.29","6653fd851febb9fc714b842a","666094c154fdc95dca3e206f","66609b86d9377b7188fce49a","null","","null","","","","","","","","./tasks/HMM-beads/Images/BlackBeadChoice.png","","","","","","","","","",""
"image-keyboard-response","102","667583","0.0-3.0-4.0-1.0-2.29","6653fd851febb9fc714b842a","666094c154fdc95dca3e206f","66609b86d9377b7188fce49a","null","","null","","","","","","","","./tasks/HMM-beads/Images/BlackBeadChoiceWrong.png","","","","","","","","","",""
"image-keyboard-response","103","668103","0.0-3.0-4.0-1.0-0.30","6653fd851febb9fc714b842a","666094c154fdc95dca3e206f","66609b86d9377b7188fce49a","518","","j","","","","","","","","./tasks/HMM-beads/Images/NewTrialWC.png","practice","0","30","1","0","1","1","false","",""
"image-keyboard-response","104","668410","0.0-3.0-4.0-1.0-1.30","6653fd851febb9fc714b842a","666094c154fdc95dca3e206f","66609b86d9377b7188fce49a","null","","null","","","","","","","","./tasks/HMM-beads/Images/WhiteBeadChoice.png","","","","","","","","","",""
"image-keyboard-response","105","668921","0.0-3.0-4.0-1.0-2.30","6653fd851febb9fc714b842a","666094c154fdc95dca3e206f","66609b86d9377b7188fce49a","null","","null","","","","","","","","./tasks/HMM-beads/Images/WhiteBeadChoiceWrong.png","","","","","","","","","",""
"image-keyboard-response","106","669415","0.0-3.0-4.0-1.0-0.31","6653fd851febb9fc714b842a","666094c154fdc95dca3e206f","66609b86d9377b7188fce49a","492","","f","","","","","","","","./tasks/HMM-beads/Images/NewTrialBC.png","practice","0","31","1","1","0","0","false","",""
"image-keyboard-response","107","669732","0.0-3.0-4.0-1.0-1.31","6653fd851febb9fc714b842a","666094c154fdc95dca3e206f","66609b86d9377b7188fce49a","null","","null","","","","","","","","./tasks/HMM-beads/Images/BlackBeadChoice.png","","","","","","","","","",""
"image-keyboard-response","108","670243","0.0-3.0-4.0-1.0-2.31","6653fd851febb9fc714b842a","666094c154fdc95dca3e206f","66609b86d9377b7188fce49a","null","","null","","","","","","","","./tasks/HMM-beads/Images/BlackBeadChoiceWrong.png","","","","","","","","","",""
"image-keyboard-response","109","670337","0.0-3.0-4.0-1.0-0.32","6653fd851febb9fc714b842a","666094c154fdc95dca3e206f","66609b86d9377b7188fce49a","93","","j","","","","","","","","./tasks/HMM-beads/Images/NewTrialWC.png","practice","0","32","1","1","1","1","true","",""
"image-keyboard-response","110","670646","0.0-3.0-4.0-1.0-1.32","6653fd851febb9fc714b842a","666094c154fdc95dca3e206f","66609b86d9377b7188fce49a","null","","null","","","","","","","","./tasks/HMM-beads/Images/WhiteBeadChoice.png","","","","","","","","","",""
"image-keyboard-response","111","671163","0.0-3.0-4.0-1.0-2.32","6653fd851febb9fc714b842a","666094c154fdc95dca3e206f","66609b86d9377b7188fce49a","null","","null","","","","","","","","./tasks/HMM-beads/Images/WhiteBeadChoiceCorrect.png","","","","","","","","","",""
"image-keyboard-response","112","671167","0.0-3.0-4.0-1.0-0.33","6653fd851febb9fc714b842a","666094c154fdc95dca3e206f","66609b86d9377b7188fce49a","1","","j","","","","","","","","./tasks/HMM-beads/Images/NewTrialWC.png","practice","0","33","1","1","1","1","true","",""
"image-keyboard-response","113","671470","0.0-3.0-4.0-1.0-1.33","6653fd851febb9fc714b842a","666094c154fdc95dca3e206f","66609b86d9377b7188fce49a","null","","null","","","","","","","","./tasks/HMM-beads/Images/WhiteBeadChoice.png","","","","","","","","","",""
"image-keyboard-response","114","671996","0.0-3.0-4.0-1.0-2.33","6653fd851febb9fc714b842a","666094c154fdc95dca3e206f","66609b86d9377b7188fce49a","null","","null","","","","","","","","./tasks/HMM-beads/Images/WhiteBeadChoiceCorrect.png","","","","","","","","","",""
"image-keyboard-response","115","672392","0.0-3.0-4.0-1.0-0.34","6653fd851febb9fc714b842a","666094c154fdc95dca3e206f","66609b86d9377b7188fce49a","396","","j","","","","","","","","./tasks/HMM-beads/Images/NewTrialWC.png","practice","0","34","1","1","1","1","true","",""
"image-keyboard-response","116","672695","0.0-3.0-4.0-1.0-1.34","6653fd851febb9fc714b842a","666094c154fdc95dca3e206f","66609b86d9377b7188fce49a","null","","null","","","","","","","","./tasks/HMM-beads/Images/WhiteBeadChoice.png","","","","","","","","","",""
"image-keyboard-response","117","673210","0.0-3.0-4.0-1.0-2.34","6653fd851febb9fc714b842a","666094c154fdc95dca3e206f","66609b86d9377b7188fce49a","null","","null","","","","","","","","./tasks/HMM-beads/Images/WhiteBeadChoiceCorrect.png","","","","","","","","","",""
"image-keyboard-response","118","673809","0.0-3.0-4.0-1.0-0.35","6653fd851febb9fc714b842a","666094c154fdc95dca3e206f","66609b86d9377b7188fce49a","597","","f","","","","","","","","./tasks/HMM-beads/Images/NewTrialWC.png","practice","0","35","1","1","1","0","false","",""
"image-keyboard-response","119","674118","0.0-3.0-4.0-1.0-1.35","6653fd851febb9fc714b842a","666094c154fdc95dca3e206f","66609b86d9377b7188fce49a","null","","null","","","","","","","","./tasks/HMM-beads/Images/BlackBeadChoice.png","","","","","","","","","",""
"image-keyboard-response","120","674628","0.0-3.0-4.0-1.0-2.35","6653fd851febb9fc714b842a","666094c154fdc95dca3e206f","66609b86d9377b7188fce49a","null","","null","","","","","","","","./tasks/HMM-beads/Images/BlackBeadChoiceWrong.png","","","","","","","","","",""
"image-keyboard-response","121","675091","0.0-3.0-4.0-1.0-0.36","6653fd851febb9fc714b842a","666094c154fdc95dca3e206f","66609b86d9377b7188fce49a","461","","j","","","","","","","","./tasks/HMM-beads/Images/NewTrialWC.png","practice","0","36","1","0","1","1","false","",""
"image-keyboard-response","122","675402","0.0-3.0-4.0-1.0-1.36","6653fd851febb9fc714b842a","666094c154fdc95dca3e206f","66609b86d9377b7188fce49a","null","","null","","","","","","","","./tasks/HMM-beads/Images/WhiteBeadChoice.png","","","","","","","","","",""
"image-keyboard-response","123","675915","0.0-3.0-4.0-1.0-2.36","6653fd851febb9fc714b842a","666094c154fdc95dca3e206f","66609b86d9377b7188fce49a","null","","null","","","","","","","","./tasks/HMM-beads/Images/WhiteBeadChoiceWrong.png","","","","","","","","","",""
"image-keyboard-response","124","676638","0.0-3.0-4.0-1.0-0.37","6653fd851febb9fc714b842a","666094c154fdc95dca3e206f","66609b86d9377b7188fce49a","721","","j","","","","","","","","./tasks/HMM-beads/Images/NewTrialBC.png","practice","0","37","1","1","0","1","true","",""
"image-keyboard-response","125","676954","0.0-3.0-4.0-1.0-1.37","6653fd851febb9fc714b842a","666094c154fdc95dca3e206f","66609b86d9377b7188fce49a","null","","null","","","","","","","","./tasks/HMM-beads/Images/WhiteBeadChoice.png","","","","","","","","","",""
"image-keyboard-response","126","677467","0.0-3.0-4.0-1.0-2.37","6653fd851febb9fc714b842a","666094c154fdc95dca3e206f","66609b86d9377b7188fce49a","null","","null","","","","","","","","./tasks/HMM-beads/Images/WhiteBeadChoiceCorrect.png","","","","","","","","","",""
"image-keyboard-response","127","679171","0.0-3.0-4.0-1.0-0.38","6653fd851febb9fc714b842a","666094c154fdc95dca3e206f","66609b86d9377b7188fce49a","1701","","f","","","","","","","","./tasks/HMM-beads/Images/NewTrialWC.png","practice","0","38","1","1","1","0","false","",""
"image-keyboard-response","128","679484","0.0-3.0-4.0-1.0-1.38","6653fd851febb9fc714b842a","666094c154fdc95dca3e206f","66609b86d9377b7188fce49a","null","","null","","","","","","","","./tasks/HMM-beads/Images/BlackBeadChoice.png","","","","","","","","","",""
"image-keyboard-response","129","679997","0.0-3.0-4.0-1.0-2.38","6653fd851febb9fc714b842a","666094c154fdc95dca3e206f","66609b86d9377b7188fce49a","null","","null","","","","","","","","./tasks/HMM-beads/Images/BlackBeadChoiceWrong.png","","","","","","","","","",""
"image-keyboard-response","130","680305","0.0-3.0-4.0-1.0-0.39","6653fd851febb9fc714b842a","666094c154fdc95dca3e206f","66609b86d9377b7188fce49a","306","","j","","","","","","","","./tasks/HMM-beads/Images/NewTrialWC.png","practice","0","39","1","1","1","1","true","",""
"image-keyboard-response","131","680617","0.0-3.0-4.0-1.0-1.39","6653fd851febb9fc714b842a","666094c154fdc95dca3e206f","66609b86d9377b7188fce49a","null","","null","","","","","","","","./tasks/HMM-beads/Images/WhiteBeadChoice.png","","","","","","","","","",""
"image-keyboard-response","132","681176","0.0-3.0-4.0-1.0-2.39","6653fd851febb9fc714b842a","666094c154fdc95dca3e206f","66609b86d9377b7188fce49a","null","","null","","","","","","","","./tasks/HMM-beads/Images/WhiteBeadChoiceCorrect.png","","","","","","","","","",""
"html-keyboard-response","133","687814","0.0-3.0-4.0-2.0","6653fd851febb9fc714b842a","666094c154fdc95dca3e206f","66609b86d9377b7188fce49a","6634",""," ","","","","","","","","","","","","","","","","","",""
"instructions","134","732285","0.0-3.0-5.0","6653fd851febb9fc714b842a","666094c154fdc95dca3e206f","66609b86d9377b7188fce49a","44470","","","","[{""page_index"":0,""viewing_time"":36724},{""page_index"":1,""viewing_time"":7745}]","","","","","","","","","","","","","","","",""
"html-keyboard-response","135","741172","0.0-3.0-6.0-0.0","6653fd851febb9fc714b842a","666094c154fdc95dca3e206f","66609b86d9377b7188fce49a","8877",""," ","","","","","","","","<div align=center>In this block, there will be a <b>1% chance</b> that the jar on the next trial will be different from the jar on the current trial.<br><br></div>","","","","","","","","","",""
"image-keyboard-response","136","744886","0.0-3.0-6.0-1.0-0.0","6653fd851febb9fc714b842a","666094c154fdc95dca3e206f","66609b86d9377b7188fce49a","3699","","f","","","","","","","","./tasks/HMM-beads/Images/NoChoice.png","lowH","1","0","1","0","9","0","true","",""
"image-keyboard-response","137","745227","0.0-3.0-6.0-1.0-1.0","6653fd851febb9fc714b842a","666094c154fdc95dca3e206f","66609b86d9377b7188fce49a","null","","null","","","","","","","","./tasks/HMM-beads/Images/BlackBeadChoice.png","","","","","","","","","",""
"image-keyboard-response","138","745749","0.0-3.0-6.0-1.0-2.0","6653fd851febb9fc714b842a","666094c154fdc95dca3e206f","66609b86d9377b7188fce49a","null","","null","","","","","","","","./tasks/HMM-beads/Images/BlackBeadChoiceCorrect.png","","","","","","","","","",""
"image-keyboard-response","139","746225","0.0-3.0-6.0-1.0-0.1","6653fd851febb9fc714b842a","666094c154fdc95dca3e206f","66609b86d9377b7188fce49a","474","","f","","","","","","","","./tasks/HMM-beads/Images/NewTrialBC.png","lowH","1","1","1","1","0","0","false","",""
"image-keyboard-response","140","746540","0.0-3.0-6.0-1.0-1.1","6653fd851febb9fc714b842a","666094c154fdc95dca3e206f","66609b86d9377b7188fce49a","null","","null","","","","","","","","./tasks/HMM-beads/Images/BlackBeadChoice.png","","","","","","","","","",""
"image-keyboard-response","141","747049","0.0-3.0-6.0-1.0-2.1","6653fd851febb9fc714b842a","666094c154fdc95dca3e206f","66609b86d9377b7188fce49a","null","","null","","","","","","","","./tasks/HMM-beads/Images/BlackBeadChoiceWrong.png","","","","","","","","","",""
"image-keyboard-response","142","747741","0.0-3.0-6.0-1.0-0.2","6653fd851febb9fc714b842a","666094c154fdc95dca3e206f","66609b86d9377b7188fce49a","690","","f","","","","","","","","./tasks/HMM-beads/Images/NewTrialWC.png","lowH","1","2","1","1","1","0","false","",""
"image-keyboard-response","143","748045","0.0-3.0-6.0-1.0-1.2","6653fd851febb9fc714b842a","666094c154fdc95dca3e206f","66609b86d9377b7188fce49a","null","","null","","","","","","","","./tasks/HMM-beads/Images/BlackBeadChoice.png","","","","","","","","","",""
"image-keyboard-response","144","748559","0.0-3.0-6.0-1.0-2.2","6653fd851febb9fc714b842a","666094c154fdc95dca3e206f","66609b86d9377b7188fce49a","null","","null","","","","","","","","./tasks/HMM-beads/Images/BlackBeadChoiceWrong.png","","","","","","","","","",""
"image-keyboard-response","145","748616","0.0-3.0-6.0-1.0-0.3","6653fd851febb9fc714b842a","666094c154fdc95dca3e206f","66609b86d9377b7188fce49a","54","","f","","","","","","","","./tasks/HMM-beads/Images/NewTrialWC.png","lowH","1","3","1","1","1","0","false","",""
"image-keyboard-response","146","748917","0.0-3.0-6.0-1.0-1.3","6653fd851febb9fc714b842a","666094c154fdc95dca3e206f","66609b86d9377b7188fce49a","null","","null","","","","","","","","./tasks/HMM-beads/Images/BlackBeadChoice.png","","","","","","","","","",""
"image-keyboard-response","147","749429","0.0-3.0-6.0-1.0-2.3","6653fd851febb9fc714b842a","666094c154fdc95dca3e206f","66609b86d9377b7188fce49a","null","","null","","","","","","","","./tasks/HMM-beads/Images/BlackBeadChoiceWrong.png","","","","","","","","","",""
"image-keyboard-response","148","749441","0.0-3.0-6.0-1.0-0.4","6653fd851febb9fc714b842a","666094c154fdc95dca3e206f","66609b86d9377b7188fce49a","11","","f","","","","","","","","./tasks/HMM-beads/Images/NewTrialWC.png","lowH","1","4","1","1","1","0","false","",""
"image-keyboard-response","149","749756","0.0-3.0-6.0-1.0-1.4","6653fd851febb9fc714b842a","666094c154fdc95dca3e206f","66609b86d9377b7188fce49a","null","","null","","","","","","","","./tasks/HMM-beads/Images/BlackBeadChoice.png","","","","","","","","","",""
"image-keyboard-response","150","750283","0.0-3.0-6.0-1.0-2.4","6653fd851febb9fc714b842a","666094c154fdc95dca3e206f","66609b86d9377b7188fce49a","null","","null","","","","","","","","./tasks/HMM-beads/Images/BlackBeadChoiceWrong.png","","","","","","","","","",""
"image-keyboard-response","151","750357","0.0-3.0-6.0-1.0-0.5","6653fd851febb9fc714b842a","666094c154fdc95dca3e206f","66609b86d9377b7188fce49a","72","","f","","","","","","","","./tasks/HMM-beads/Images/NewTrialWC.png","lowH","1","5","1","1","1","0","false","",""
"image-keyboard-response","152","750688","0.0-3.0-6.0-1.0-1.5","6653fd851febb9fc714b842a","666094c154fdc95dca3e206f","66609b86d9377b7188fce49a","null","","null","","","","","","","","./tasks/HMM-beads/Images/BlackBeadChoice.png","","","","","","","","","",""
"image-keyboard-response","153","751201","0.0-3.0-6.0-1.0-2.5","6653fd851febb9fc714b842a","666094c154fdc95dca3e206f","66609b86d9377b7188fce49a","null","","null","","","","","","","","./tasks/HMM-beads/Images/BlackBeadChoiceWrong.png","","","","","","","","","",""
"image-keyboard-response","154","751983","0.0-3.0-6.0-1.0-0.6","6653fd851febb9fc714b842a","666094c154fdc95dca3e206f","66609b86d9377b7188fce49a","779","","f","","","","","","","","./tasks/HMM-beads/Images/NewTrialWC.png","lowH","1","6","1","0","1","0","true","",""
"image-keyboard-response","155","752303","0.0-3.0-6.0-1.0-1.6","6653fd851febb9fc714b842a","666094c154fdc95dca3e206f","66609b86d9377b7188fce49a","null","","null","","","","","","","","./tasks/HMM-beads/Images/BlackBeadChoice.png","","","","","","","","","",""
"image-keyboard-response","156","752814","0.0-3.0-6.0-1.0-2.6","6653fd851febb9fc714b842a","666094c154fdc95dca3e206f","66609b86d9377b7188fce49a","null","","null","","","","","","","","./tasks/HMM-beads/Images/BlackBeadChoiceCorrect.png","","","","","","","","","",""
"image-keyboard-response","157","753825","0.0-3.0-6.0-1.0-0.7","6653fd851febb9fc714b842a","666094c154fdc95dca3e206f","66609b86d9377b7188fce49a","1008","","f","","","","","","","","./tasks/HMM-beads/Images/NewTrialBC.png","lowH","1","7","1","1","0","0","false","",""
"image-keyboard-response","158","754138","0.0-3.0-6.0-1.0-1.7","6653fd851febb9fc714b842a","666094c154fdc95dca3e206f","66609b86d9377b7188fce49a","null","","null","","","","","","","","./tasks/HMM-beads/Images/BlackBeadChoice.png","","","","","","","","","",""
"image-keyboard-response","159","754650","0.0-3.0-6.0-1.0-2.7","6653fd851febb9fc714b842a","666094c154fdc95dca3e206f","66609b86d9377b7188fce49a","null","","null","","","","","","","","./tasks/HMM-beads/Images/BlackBeadChoiceWrong.png","","","","","","","","","",""
"image-keyboard-response","160","754715","0.0-3.0-6.0-1.0-0.8","6653fd851febb9fc714b842a","666094c154fdc95dca3e206f","66609b86d9377b7188fce49a","64","","j","","","","","","","","./tasks/HMM-beads/Images/NewTrialWC.png","lowH","1","8","1","1","1","1","true","",""
"image-keyboard-response","161","755025","0.0-3.0-6.0-1.0-1.8","6653fd851febb9fc714b842a","666094c154fdc95dca3e206f","66609b86d9377b7188fce49a","null","","null","","","","","","","","./tasks/HMM-beads/Images/WhiteBeadChoice.png","","","","","","","","","",""
"image-keyboard-response","162","755536","0.0-3.0-6.0-1.0-2.8","6653fd851febb9fc714b842a","666094c154fdc95dca3e206f","66609b86d9377b7188fce49a","null","","null","","","","","","","","./tasks/HMM-beads/Images/WhiteBeadChoiceCorrect.png","","","","","","","","","",""
"image-keyboard-response","163","756459","0.0-3.0-6.0-1.0-0.9","6653fd851febb9fc714b842a","666094c154fdc95dca3e206f","66609b86d9377b7188fce49a","920","","j","","","","","","","","./tasks/HMM-beads/Images/NewTrialWC.png","lowH","1","9","1","1","1","1","true","",""
"image-keyboard-response","164","756760","0.0-3.0-6.0-1.0-1.9","6653fd851febb9fc714b842a","666094c154fdc95dca3e206f","66609b86d9377b7188fce49a","null","","null","","","","","","","","./tasks/HMM-beads/Images/WhiteBeadChoice.png","","","","","","","","","",""
"image-keyboard-response","165","757277","0.0-3.0-6.0-1.0-2.9","6653fd851febb9fc714b842a","666094c154fdc95dca3e206f","66609b86d9377b7188fce49a","null","","null","","","","","","","","./tasks/HMM-beads/Images/WhiteBeadChoiceCorrect.png","","","","","","","","","",""
"image-keyboard-response","166","758083","0.0-3.0-6.0-1.0-0.10","6653fd851febb9fc714b842a","666094c154fdc95dca3e206f","66609b86d9377b7188fce49a","804","","f","","","","","","","","./tasks/HMM-beads/Images/NewTrialWC.png","lowH","1","10","1","1","1","0","false","",""
"image-keyboard-response","167","758395","0.0-3.0-6.0-1.0-1.10","6653fd851febb9fc714b842a","666094c154fdc95dca3e206f","66609b86d9377b7188fce49a","null","","null","","","","","","","","./tasks/HMM-beads/Images/BlackBeadChoice.png","","","","","","","","","",""
"image-keyboard-response","168","758908","0.0-3.0-6.0-1.0-2.10","6653fd851febb9fc714b842a","666094c154fdc95dca3e206f","66609b86d9377b7188fce49a","null","","null","","","","","","","","./tasks/HMM-beads/Images/BlackBeadChoiceWrong.png","","","","","","","","","",""
"image-keyboard-response","169","758946","0.0-3.0-6.0-1.0-0.11","6653fd851febb9fc714b842a","666094c154fdc95dca3e206f","66609b86d9377b7188fce49a","36","","j","","","","","","","","./tasks/HMM-beads/Images/NewTrialWC.png","lowH","1","11","1","1","1","1","true","",""
"image-keyboard-response","170","759251","0.0-3.0-6.0-1.0-1.11","6653fd851febb9fc714b842a","666094c154fdc95dca3e206f","66609b86d9377b7188fce49a","null","","null","","","","","","","","./tasks/HMM-beads/Images/WhiteBeadChoice.png","","","","","","","","","",""
"image-keyboard-response","171","759766","0.0-3.0-6.0-1.0-2.11","6653fd851febb9fc714b842a","666094c154fdc95dca3e206f","66609b86d9377b7188fce49a","null","","null","","","","","","","","./tasks/HMM-beads/Images/WhiteBeadChoiceCorrect.png","","","","","","","","","",""
"image-keyboard-response","172","760810","0.0-3.0-6.0-1.0-0.12","6653fd851febb9fc714b842a","666094c154fdc95dca3e206f","66609b86d9377b7188fce49a","1042","","j","","","","","","","","./tasks/HMM-beads/Images/NewTrialWC.png","lowH","1","12","1","1","1","1","true","",""
"image-keyboard-response","173","761115","0.0-3.0-6.0-1.0-1.12","6653fd851febb9fc714b842a","666094c154fdc95dca3e206f","66609b86d9377b7188fce49a","null","","null","","","","","","","","./tasks/HMM-beads/Images/WhiteBeadChoice.png","","","","","","","","","",""
"image-keyboard-response","174","761628","0.0-3.0-6.0-1.0-2.12","6653fd851febb9fc714b842a","666094c154fdc95dca3e206f","66609b86d9377b7188fce49a","null","","null","","","","","","","","./tasks/HMM-beads/Images/WhiteBeadChoiceCorrect.png","","","","","","","","","",""
"image-keyboard-response","175","762606","0.0-3.0-6.0-1.0-0.13","6653fd851febb9fc714b842a","666094c154fdc95dca3e206f","66609b86d9377b7188fce49a","977","","f","","","","","","","","./tasks/HMM-beads/Images/NewTrialWC.png","lowH","1","13","1","0","1","0","true","",""
"image-keyboard-response","176","762917","0.0-3.0-6.0-1.0-1.13","6653fd851febb9fc714b842a","666094c154fdc95dca3e206f","66609b86d9377b7188fce49a","null","","null","","","","","","","","./tasks/HMM-beads/Images/BlackBeadChoice.png","","","","","","","","","",""
"image-keyboard-response","177","763441","0.0-3.0-6.0-1.0-2.13","6653fd851febb9fc714b842a","666094c154fdc95dca3e206f","66609b86d9377b7188fce49a","null","","null","","","","","","","","./tasks/HMM-beads/Images/BlackBeadChoiceCorrect.png","","","","","","","","","",""
"image-keyboard-response","178","766040","0.0-3.0-6.0-1.0-0.14","6653fd851febb9fc714b842a","666094c154fdc95dca3e206f","66609b86d9377b7188fce49a","2598","","j","","","","","","","","./tasks/HMM-beads/Images/NewTrialBC.png","lowH","1","14","1","0","0","1","false","",""
"image-keyboard-response","179","766357","0.0-3.0-6.0-1.0-1.14","6653fd851febb9fc714b842a","666094c154fdc95dca3e206f","66609b86d9377b7188fce49a","null","","null","","","","","","","","./tasks/HMM-beads/Images/WhiteBeadChoice.png","","","","","","","","","",""
"image-keyboard-response","180","766873","0.0-3.0-6.0-1.0-2.14","6653fd851febb9fc714b842a","666094c154fdc95dca3e206f","66609b86d9377b7188fce49a","null","","null","","","","","","","","./tasks/HMM-beads/Images/WhiteBeadChoiceWrong.png","","","","","","","","","",""
"image-keyboard-response","181","767661","0.0-3.0-6.0-1.0-0.15","6653fd851febb9fc714b842a","666094c154fdc95dca3e206f","66609b86d9377b7188fce49a","784","","f","","","","","","","","./tasks/HMM-beads/Images/NewTrialBC.png","lowH","1","15","1","1","0","0","false","",""
"image-keyboard-response","182","767973","0.0-3.0-6.0-1.0-1.15","6653fd851febb9fc714b842a","666094c154fdc95dca3e206f","66609b86d9377b7188fce49a","null","","null","","","","","","","","./tasks/HMM-beads/Images/BlackBeadChoice.png","","","","","","","","","",""
"image-keyboard-response","183","768487","0.0-3.0-6.0-1.0-2.15","6653fd851febb9fc714b842a","666094c154fdc95dca3e206f","66609b86d9377b7188fce49a","null","","null","","","","","","","","./tasks/HMM-beads/Images/BlackBeadChoiceWrong.png","","","","","","","","","",""
"image-keyboard-response","184","769217","0.0-3.0-6.0-1.0-0.16","6653fd851febb9fc714b842a","666094c154fdc95dca3e206f","66609b86d9377b7188fce49a","729","","j","","","","","","","","./tasks/HMM-beads/Images/NewTrialWC.png","lowH","1","16","1","1","1","1","true","",""
"image-keyboard-response","185","769527","0.0-3.0-6.0-1.0-1.16","6653fd851febb9fc714b842a","666094c154fdc95dca3e206f","66609b86d9377b7188fce49a","null","","null","","","","","","","","./tasks/HMM-beads/Images/WhiteBeadChoice.png","","","","","","","","","",""
"image-keyboard-response","186","770039","0.0-3.0-6.0-1.0-2.16","6653fd851febb9fc714b842a","666094c154fdc95dca3e206f","66609b86d9377b7188fce49a","null","","null","","","","","","","","./tasks/HMM-beads/Images/WhiteBeadChoiceCorrect.png","","","","","","","","","",""
"image-keyboard-response","187","770564","0.0-3.0-6.0-1.0-0.17","6653fd851febb9fc714b842a","666094c154fdc95dca3e206f","66609b86d9377b7188fce49a","524","","j","","","","","","","","./tasks/HMM-beads/Images/NewTrialWC.png","lowH","1","17","1","1","1","1","true","",""
"image-keyboard-response","188","770875","0.0-3.0-6.0-1.0-1.17","6653fd851febb9fc714b842a","666094c154fdc95dca3e206f","66609b86d9377b7188fce49a","null","","null","","","","","","","","./tasks/HMM-beads/Images/WhiteBeadChoice.png","","","","","","","","","",""
"image-keyboard-response","189","771389","0.0-3.0-6.0-1.0-2.17","6653fd851febb9fc714b842a","666094c154fdc95dca3e206f","66609b86d9377b7188fce49a","null","","null","","","","","","","","./tasks/HMM-beads/Images/WhiteBeadChoiceCorrect.png","","","","","","","","","",""
"image-keyboard-response","190","772036","0.0-3.0-6.0-1.0-0.18","6653fd851febb9fc714b842a","666094c154fdc95dca3e206f","66609b86d9377b7188fce49a","645","","j","","","","","","","","./tasks/HMM-beads/Images/NewTrialWC.png","lowH","1","18","1","1","1","1","true","",""
"image-keyboard-response","191","772352","0.0-3.0-6.0-1.0-1.18","6653fd851febb9fc714b842a","666094c154fdc95dca3e206f","66609b86d9377b7188fce49a","null","","null","","","","","","","","./tasks/HMM-beads/Images/WhiteBeadChoice.png","","","","","","","","","",""
"image-keyboard-response","192","772867","0.0-3.0-6.0-1.0-2.18","6653fd851febb9fc714b842a","666094c154fdc95dca3e206f","66609b86d9377b7188fce49a","null","","null","","","","","","","","./tasks/HMM-beads/Images/WhiteBeadChoiceCorrect.png","","","","","","","","","",""
"image-keyboard-response","193","773476","0.0-3.0-6.0-1.0-0.19","6653fd851febb9fc714b842a","666094c154fdc95dca3e206f","66609b86d9377b7188fce49a","607","","f","","","","","","","","./tasks/HMM-beads/Images/NewTrialWC.png","lowH","1","19","1","1","1","0","false","",""
"image-keyboard-response","194","773783","0.0-3.0-6.0-1.0-1.19","6653fd851febb9fc714b842a","666094c154fdc95dca3e206f","66609b86d9377b7188fce49a","null","","null","","","","","","","","./tasks/HMM-beads/Images/BlackBeadChoice.png","","","","","","","","","",""
"image-keyboard-response","195","774299","0.0-3.0-6.0-1.0-2.19","6653fd851febb9fc714b842a","666094c154fdc95dca3e206f","66609b86d9377b7188fce49a","null","","null","","","","","","","","./tasks/HMM-beads/Images/BlackBeadChoiceWrong.png","","","","","","","","","",""
"image-keyboard-response","196","774950","0.0-3.0-6.0-1.0-0.20","6653fd851febb9fc714b842a","666094c154fdc95dca3e206f","66609b86d9377b7188fce49a","649","","j","","","","","","","","./tasks/HMM-beads/Images/NewTrialWC.png","lowH","1","20","1","1","1","1","true","",""
"image-keyboard-response","197","775258","0.0-3.0-6.0-1.0-1.20","6653fd851febb9fc714b842a","666094c154fdc95dca3e206f","66609b86d9377b7188fce49a","null","","null","","","","","","","","./tasks/HMM-beads/Images/WhiteBeadChoice.png","","","","","","","","","",""
"image-keyboard-response","198","775769","0.0-3.0-6.0-1.0-2.20","6653fd851febb9fc714b842a","666094c154fdc95dca3e206f","66609b86d9377b7188fce49a","null","","null","","","","","","","","./tasks/HMM-beads/Images/WhiteBeadChoiceCorrect.png","","","","","","","","","",""
"image-keyboard-response","199","777365","0.0-3.0-6.0-1.0-0.21","6653fd851febb9fc714b842a","666094c154fdc95dca3e206f","66609b86d9377b7188fce49a","1593","","f","","","","","","","","./tasks/HMM-beads/Images/NewTrialWC.png","lowH","1","21","1","1","1","0","false","",""
"image-keyboard-response","200","777678","0.0-3.0-6.0-1.0-1.21","6653fd851febb9fc714b842a","666094c154fdc95dca3e206f","66609b86d9377b7188fce49a","null","","null","","","","","","","","./tasks/HMM-beads/Images/BlackBeadChoice.png","","","","","","","","","",""
"image-keyboard-response","201","778189","0.0-3.0-6.0-1.0-2.21","6653fd851febb9fc714b842a","666094c154fdc95dca3e206f","66609b86d9377b7188fce49a","null","","null","","","","","","","","./tasks/HMM-beads/Images/BlackBeadChoiceWrong.png","","","","","","","","","",""
"image-keyboard-response","202","778697","0.0-3.0-6.0-1.0-0.22","6653fd851febb9fc714b842a","666094c154fdc95dca3e206f","66609b86d9377b7188fce49a","506","","j","","","","","","","","./tasks/HMM-beads/Images/NewTrialWC.png","lowH","1","22","1","1","1","1","true","",""
"image-keyboard-response","203","779001","0.0-3.0-6.0-1.0-1.22","6653fd851febb9fc714b842a","666094c154fdc95dca3e206f","66609b86d9377b7188fce49a","null","","null","","","","","","","","./tasks/HMM-beads/Images/WhiteBeadChoice.png","","","","","","","","","",""
"image-keyboard-response","204","779514","0.0-3.0-6.0-1.0-2.22","6653fd851febb9fc714b842a","666094c154fdc95dca3e206f","66609b86d9377b7188fce49a","null","","null","","","","","","","","./tasks/HMM-beads/Images/WhiteBeadChoiceCorrect.png","","","","","","","","","",""
"image-keyboard-response","205","779983","0.0-3.0-6.0-1.0-0.23","6653fd851febb9fc714b842a","666094c154fdc95dca3e206f","66609b86d9377b7188fce49a","467","","j","","","","","","","","./tasks/HMM-beads/Images/NewTrialWC.png","lowH","1","23","1","1","1","1","true","",""
"image-keyboard-response","206","780291","0.0-3.0-6.0-1.0-1.23","6653fd851febb9fc714b842a","666094c154fdc95dca3e206f","66609b86d9377b7188fce49a","null","","null","","","","","","","","./tasks/HMM-beads/Images/WhiteBeadChoice.png","","","","","","","","","",""
"image-keyboard-response","207","780803","0.0-3.0-6.0-1.0-2.23","6653fd851febb9fc714b842a","666094c154fdc95dca3e206f","66609b86d9377b7188fce49a","null","","null","","","","","","","","./tasks/HMM-beads/Images/WhiteBeadChoiceCorrect.png","","","","","","","","","",""
"image-keyboard-response","208","781517","0.0-3.0-6.0-1.0-0.24","6653fd851febb9fc714b842a","666094c154fdc95dca3e206f","66609b86d9377b7188fce49a","712","","f","","","","","","","","./tasks/HMM-beads/Images/NewTrialWC.png","lowH","1","24","1","0","1","0","true","",""
"image-keyboard-response","209","781825","0.0-3.0-6.0-1.0-1.24","6653fd851febb9fc714b842a","666094c154fdc95dca3e206f","66609b86d9377b7188fce49a","null","","null","","","","","","","","./tasks/HMM-beads/Images/BlackBeadChoice.png","","","","","","","","","",""
"image-keyboard-response","210","782341","0.0-3.0-6.0-1.0-2.24","6653fd851febb9fc714b842a","666094c154fdc95dca3e206f","66609b86d9377b7188fce49a","null","","null","","","","","","","","./tasks/HMM-beads/Images/BlackBeadChoiceCorrect.png","","","","","","","","","",""
"image-keyboard-response","211","783062","0.0-3.0-6.0-1.0-0.25","6653fd851febb9fc714b842a","666094c154fdc95dca3e206f","66609b86d9377b7188fce49a","719","","j","","","","","","","","./tasks/HMM-beads/Images/NewTrialBC.png","lowH","1","25","1","1","0","1","true","",""
"image-keyboard-response","212","783382","0.0-3.0-6.0-1.0-1.25","6653fd851febb9fc714b842a","666094c154fdc95dca3e206f","66609b86d9377b7188fce49a","null","","null","","","","","","","","./tasks/HMM-beads/Images/WhiteBeadChoice.png","","","","","","","","","",""
"image-keyboard-response","213","783898","0.0-3.0-6.0-1.0-2.25","6653fd851febb9fc714b842a","666094c154fdc95dca3e206f","66609b86d9377b7188fce49a","null","","null","","","","","","","","./tasks/HMM-beads/Images/WhiteBeadChoiceCorrect.png","","","","","","","","","",""
"image-keyboard-response","214","784671","0.0-3.0-6.0-1.0-0.26","6653fd851febb9fc714b842a","666094c154fdc95dca3e206f","66609b86d9377b7188fce49a","771","","j","","","","","","","","./tasks/HMM-beads/Images/NewTrialWC.png","lowH","1","26","1","0","1","1","false","",""
"image-keyboard-response","215","784986","0.0-3.0-6.0-1.0-1.26","6653fd851febb9fc714b842a","666094c154fdc95dca3e206f","66609b86d9377b7188fce49a","null","","null","","","","","","","","./tasks/HMM-beads/Images/WhiteBeadChoice.png","","","","","","","","","",""
"image-keyboard-response","216","785498","0.0-3.0-6.0-1.0-2.26","6653fd851febb9fc714b842a","666094c154fdc95dca3e206f","66609b86d9377b7188fce49a","null","","null","","","","","","","","./tasks/HMM-beads/Images/WhiteBeadChoiceWrong.png","","","","","","","","","",""
"image-keyboard-response","217","786249","0.0-3.0-6.0-1.0-0.27","6653fd851febb9fc714b842a","666094c154fdc95dca3e206f","66609b86d9377b7188fce49a","749","","j","","","","","","","","./tasks/HMM-beads/Images/NewTrialBC.png","lowH","1","27","1","1","0","1","true","",""
"image-keyboard-response","218","786554","0.0-3.0-6.0-1.0-1.27","6653fd851febb9fc714b842a","666094c154fdc95dca3e206f","66609b86d9377b7188fce49a","null","","null","","","","","","","","./tasks/HMM-beads/Images/WhiteBeadChoice.png","","","","","","","","","",""
"image-keyboard-response","219","787069","0.0-3.0-6.0-1.0-2.27","6653fd851febb9fc714b842a","666094c154fdc95dca3e206f","66609b86d9377b7188fce49a","null","","null","","","","","","","","./tasks/HMM-beads/Images/WhiteBeadChoiceCorrect.png","","","","","","","","","",""
"image-keyboard-response","220","787522","0.0-3.0-6.0-1.0-0.28","6653fd851febb9fc714b842a","666094c154fdc95dca3e206f","66609b86d9377b7188fce49a","445","","j","","","","","","","","./tasks/HMM-beads/Images/NewTrialWC.png","lowH","1","28","1","1","1","1","true","",""
"image-keyboard-response","221","787827","0.0-3.0-6.0-1.0-1.28","6653fd851febb9fc714b842a","666094c154fdc95dca3e206f","66609b86d9377b7188fce49a","null","","null","","","","","","","","./tasks/HMM-beads/Images/WhiteBeadChoice.png","","","","","","","","","",""
"image-keyboard-response","222","788340","0.0-3.0-6.0-1.0-2.28","6653fd851febb9fc714b842a","666094c154fdc95dca3e206f","66609b86d9377b7188fce49a","null","","null","","","","","","","","./tasks/HMM-beads/Images/WhiteBeadChoiceCorrect.png","","","","","","","","","",""
"image-keyboard-response","223","788767","0.0-3.0-6.0-1.0-0.29","6653fd851febb9fc714b842a","666094c154fdc95dca3e206f","66609b86d9377b7188fce49a","427","","j","","","","","","","","./tasks/HMM-beads/Images/NewTrialWC.png","lowH","1","29","1","1","1","1","true","",""
"image-keyboard-response","224","789070","0.0-3.0-6.0-1.0-1.29","6653fd851febb9fc714b842a","666094c154fdc95dca3e206f","66609b86d9377b7188fce49a","null","","null","","","","","","","","./tasks/HMM-beads/Images/WhiteBeadChoice.png","","","","","","","","","",""
"image-keyboard-response","225","789580","0.0-3.0-6.0-1.0-2.29","6653fd851febb9fc714b842a","666094c154fdc95dca3e206f","66609b86d9377b7188fce49a","null","","null","","","","","","","","./tasks/HMM-beads/Images/WhiteBeadChoiceCorrect.png","","","","","","","","","",""
"image-keyboard-response","226","790297","0.0-3.0-6.0-1.0-0.30","6653fd851febb9fc714b842a","666094c154fdc95dca3e206f","66609b86d9377b7188fce49a","716","","f","","","","","","","","./tasks/HMM-beads/Images/NewTrialWC.png","lowH","1","30","1","1","1","0","false","",""
"image-keyboard-response","227","790609","0.0-3.0-6.0-1.0-1.30","6653fd851febb9fc714b842a","666094c154fdc95dca3e206f","66609b86d9377b7188fce49a","null","","null","","","","","","","","./tasks/HMM-beads/Images/BlackBeadChoice.png","","","","","","","","","",""
"image-keyboard-response","228","791121","0.0-3.0-6.0-1.0-2.30","6653fd851febb9fc714b842a","666094c154fdc95dca3e206f","66609b86d9377b7188fce49a","null","","null","","","","","","","","./tasks/HMM-beads/Images/BlackBeadChoiceWrong.png","","","","","","","","","",""
"image-keyboard-response","229","791785","0.0-3.0-6.0-1.0-0.31","6653fd851febb9fc714b842a","666094c154fdc95dca3e206f","66609b86d9377b7188fce49a","661","","f","","","","","","","","./tasks/HMM-beads/Images/NewTrialWC.png","lowH","1","31","1","1","1","0","false","",""
"image-keyboard-response","230","792101","0.0-3.0-6.0-1.0-1.31","6653fd851febb9fc714b842a","666094c154fdc95dca3e206f","66609b86d9377b7188fce49a","null","","null","","","","","","","","./tasks/HMM-beads/Images/BlackBeadChoice.png","","","","","","","","","",""
"image-keyboard-response","231","792613","0.0-3.0-6.0-1.0-2.31","6653fd851febb9fc714b842a","666094c154fdc95dca3e206f","66609b86d9377b7188fce49a","null","","null","","","","","","","","./tasks/HMM-beads/Images/BlackBeadChoiceWrong.png","","","","","","","","","",""
"image-keyboard-response","232","793160","0.0-3.0-6.0-1.0-0.32","6653fd851febb9fc714b842a","666094c154fdc95dca3e206f","66609b86d9377b7188fce49a","547","","f","","","","","","","","./tasks/HMM-beads/Images/NewTrialWC.png","lowH","1","32","1","1","1","0","false","",""
"image-keyboard-response","233","793468","0.0-3.0-6.0-1.0-1.32","6653fd851febb9fc714b842a","666094c154fdc95dca3e206f","66609b86d9377b7188fce49a","null","","null","","","","","","","","./tasks/HMM-beads/Images/BlackBeadChoice.png","","","","","","","","","",""
"image-keyboard-response","234","793983","0.0-3.0-6.0-1.0-2.32","6653fd851febb9fc714b842a","666094c154fdc95dca3e206f","66609b86d9377b7188fce49a","null","","null","","","","","","","","./tasks/HMM-beads/Images/BlackBeadChoiceWrong.png","","","","","","","","","",""
"image-keyboard-response","235","794454","0.0-3.0-6.0-1.0-0.33","6653fd851febb9fc714b842a","666094c154fdc95dca3e206f","66609b86d9377b7188fce49a","469","","f","","","","","","","","./tasks/HMM-beads/Images/NewTrialWC.png","lowH","1","33","1","1","1","0","false","",""
"image-keyboard-response","236","794760","0.0-3.0-6.0-1.0-1.33","6653fd851febb9fc714b842a","666094c154fdc95dca3e206f","66609b86d9377b7188fce49a","null","","null","","","","","","","","./tasks/HMM-beads/Images/BlackBeadChoice.png","","","","","","","","","",""
"image-keyboard-response","237","795271","0.0-3.0-6.0-1.0-2.33","6653fd851febb9fc714b842a","666094c154fdc95dca3e206f","66609b86d9377b7188fce49a","null","","null","","","","","","","","./tasks/HMM-beads/Images/BlackBeadChoiceWrong.png","","","","","","","","","",""
"image-keyboard-response","238","795649","0.0-3.0-6.0-1.0-0.34","6653fd851febb9fc714b842a","666094c154fdc95dca3e206f","66609b86d9377b7188fce49a","376","","f","","","","","","","","./tasks/HMM-beads/Images/NewTrialWC.png","lowH","1","34","1","1","1","0","false","",""
"image-keyboard-response","239","795955","0.0-3.0-6.0-1.0-1.34","6653fd851febb9fc714b842a","666094c154fdc95dca3e206f","66609b86d9377b7188fce49a","null","","null","","","","","","","","./tasks/HMM-beads/Images/BlackBeadChoice.png","","","","","","","","","",""
"image-keyboard-response","240","796468","0.0-3.0-6.0-1.0-2.34","6653fd851febb9fc714b842a","666094c154fdc95dca3e206f","66609b86d9377b7188fce49a","null","","null","","","","","","","","./tasks/HMM-beads/Images/BlackBeadChoiceWrong.png","","","","","","","","","",""
"image-keyboard-response","241","797333","0.0-3.0-6.0-1.0-0.35","6653fd851febb9fc714b842a","666094c154fdc95dca3e206f","66609b86d9377b7188fce49a","861","","f","","","","","","","","./tasks/HMM-beads/Images/NewTrialWC.png","lowH","1","35","1","1","1","0","false","",""
"image-keyboard-response","242","797647","0.0-3.0-6.0-1.0-1.35","6653fd851febb9fc714b842a","666094c154fdc95dca3e206f","66609b86d9377b7188fce49a","null","","null","","","","","","","","./tasks/HMM-beads/Images/BlackBeadChoice.png","","","","","","","","","",""
"image-keyboard-response","243","798167","0.0-3.0-6.0-1.0-2.35","6653fd851febb9fc714b842a","666094c154fdc95dca3e206f","66609b86d9377b7188fce49a","null","","null","","","","","","","","./tasks/HMM-beads/Images/BlackBeadChoiceWrong.png","","","","","","","","","",""
"image-keyboard-response","244","798873","0.0-3.0-6.0-1.0-0.36","6653fd851febb9fc714b842a","666094c154fdc95dca3e206f","66609b86d9377b7188fce49a","703","","f","","","","","","","","./tasks/HMM-beads/Images/NewTrialWC.png","lowH","1","36","1","1","1","0","false","",""
"image-keyboard-response","245","799189","0.0-3.0-6.0-1.0-1.36","6653fd851febb9fc714b842a","666094c154fdc95dca3e206f","66609b86d9377b7188fce49a","null","","null","","","","","","","","./tasks/HMM-beads/Images/BlackBeadChoice.png","","","","","","","","","",""
"image-keyboard-response","246","799703","0.0-3.0-6.0-1.0-2.36","6653fd851febb9fc714b842a","666094c154fdc95dca3e206f","66609b86d9377b7188fce49a","null","","null","","","","","","","","./tasks/HMM-beads/Images/BlackBeadChoiceWrong.png","","","","","","","","","",""
"image-keyboard-response","247","800186","0.0-3.0-6.0-1.0-0.37","6653fd851febb9fc714b842a","666094c154fdc95dca3e206f","66609b86d9377b7188fce49a","481","","j","","","","","","","","./tasks/HMM-beads/Images/NewTrialWC.png","lowH","1","37","1","1","1","1","true","",""
"image-keyboard-response","248","800494","0.0-3.0-6.0-1.0-1.37","6653fd851febb9fc714b842a","666094c154fdc95dca3e206f","66609b86d9377b7188fce49a","null","","null","","","","","","","","./tasks/HMM-beads/Images/WhiteBeadChoice.png","","","","","","","","","",""
"image-keyboard-response","249","801005","0.0-3.0-6.0-1.0-2.37","6653fd851febb9fc714b842a","666094c154fdc95dca3e206f","66609b86d9377b7188fce49a","null","","null","","","","","","","","./tasks/HMM-beads/Images/WhiteBeadChoiceCorrect.png","","","","","","","","","",""
"image-keyboard-response","250","801414","0.0-3.0-6.0-1.0-0.38","6653fd851febb9fc714b842a","666094c154fdc95dca3e206f","66609b86d9377b7188fce49a","406","","j","","","","","","","","./tasks/HMM-beads/Images/NewTrialWC.png","lowH","1","38","1","1","1","1","true","",""
"image-keyboard-response","251","801748","0.0-3.0-6.0-1.0-1.38","6653fd851febb9fc714b842a","666094c154fdc95dca3e206f","66609b86d9377b7188fce49a","null","","null","","","","","","","","./tasks/HMM-beads/Images/WhiteBeadChoice.png","","","","","","","","","",""
"image-keyboard-response","252","802263","0.0-3.0-6.0-1.0-2.38","6653fd851febb9fc714b842a","666094c154fdc95dca3e206f","66609b86d9377b7188fce49a","null","","null","","","","","","","","./tasks/HMM-beads/Images/WhiteBeadChoiceCorrect.png","","","","","","","","","",""
"image-keyboard-response","253","802593","0.0-3.0-6.0-1.0-0.39","6653fd851febb9fc714b842a","666094c154fdc95dca3e206f","66609b86d9377b7188fce49a","325","","f","","","","","","","","./tasks/HMM-beads/Images/NewTrialWC.png","lowH","1","39","1","1","1","0","false","",""
"image-keyboard-response","254","802901","0.0-3.0-6.0-1.0-1.39","6653fd851febb9fc714b842a","666094c154fdc95dca3e206f","66609b86d9377b7188fce49a","null","","null","","","","","","","","./tasks/HMM-beads/Images/BlackBeadChoice.png","","","","","","","","","",""
"image-keyboard-response","255","803426","0.0-3.0-6.0-1.0-2.39","6653fd851febb9fc714b842a","666094c154fdc95dca3e206f","66609b86d9377b7188fce49a","null","","null","","","","","","","","./tasks/HMM-beads/Images/BlackBeadChoiceWrong.png","","","","","","","","","",""
"image-keyboard-response","256","803736","0.0-3.0-6.0-1.0-0.40","6653fd851febb9fc714b842a","666094c154fdc95dca3e206f","66609b86d9377b7188fce49a","308","","j","","","","","","","","./tasks/HMM-beads/Images/NewTrialWC.png","lowH","1","40","1","1","1","1","true","",""
"image-keyboard-response","257","804049","0.0-3.0-6.0-1.0-1.40","6653fd851febb9fc714b842a","666094c154fdc95dca3e206f","66609b86d9377b7188fce49a","null","","null","","","","","","","","./tasks/HMM-beads/Images/WhiteBeadChoice.png","","","","","","","","","",""
"image-keyboard-response","258","804562","0.0-3.0-6.0-1.0-2.40","6653fd851febb9fc714b842a","666094c154fdc95dca3e206f","66609b86d9377b7188fce49a","null","","null","","","","","","","","./tasks/HMM-beads/Images/WhiteBeadChoiceCorrect.png","","","","","","","","","",""
"image-keyboard-response","259","805037","0.0-3.0-6.0-1.0-0.41","6653fd851febb9fc714b842a","666094c154fdc95dca3e206f","66609b86d9377b7188fce49a","473","","j","","","","","","","","./tasks/HMM-beads/Images/NewTrialWC.png","lowH","1","41","1","1","1","1","true","",""
"image-keyboard-response","260","805340","0.0-3.0-6.0-1.0-1.41","6653fd851febb9fc714b842a","666094c154fdc95dca3e206f","66609b86d9377b7188fce49a","null","","null","","","","","","","","./tasks/HMM-beads/Images/WhiteBeadChoice.png","","","","","","","","","",""
"image-keyboard-response","261","805852","0.0-3.0-6.0-1.0-2.41","6653fd851febb9fc714b842a","666094c154fdc95dca3e206f","66609b86d9377b7188fce49a","null","","null","","","","","","","","./tasks/HMM-beads/Images/WhiteBeadChoiceCorrect.png","","","","","","","","","",""
"image-keyboard-response","262","806877","0.0-3.0-6.0-1.0-0.42","6653fd851febb9fc714b842a","666094c154fdc95dca3e206f","66609b86d9377b7188fce49a","1022","","j","","","","","","","","./tasks/HMM-beads/Images/NewTrialWC.png","lowH","1","42","1","1","1","1","true","",""
"image-keyboard-response","263","807188","0.0-3.0-6.0-1.0-1.42","6653fd851febb9fc714b842a","666094c154fdc95dca3e206f","66609b86d9377b7188fce49a","null","","null","","","","","","","","./tasks/HMM-beads/Images/WhiteBeadChoice.png","","","","","","","","","",""
"image-keyboard-response","264","807704","0.0-3.0-6.0-1.0-2.42","6653fd851febb9fc714b842a","666094c154fdc95dca3e206f","66609b86d9377b7188fce49a","null","","null","","","","","","","","./tasks/HMM-beads/Images/WhiteBeadChoiceCorrect.png","","","","","","","","","",""
"image-keyboard-response","265","808208","0.0-3.0-6.0-1.0-0.43","6653fd851febb9fc714b842a","666094c154fdc95dca3e206f","66609b86d9377b7188fce49a","503","","f","","","","","","","","./tasks/HMM-beads/Images/NewTrialWC.png","lowH","1","43","1","1","1","0","false","",""
"image-keyboard-response","266","808511","0.0-3.0-6.0-1.0-1.43","6653fd851febb9fc714b842a","666094c154fdc95dca3e206f","66609b86d9377b7188fce49a","null","","null","","","","","","","","./tasks/HMM-beads/Images/BlackBeadChoice.png","","","","","","","","","",""
"image-keyboard-response","267","809024","0.0-3.0-6.0-1.0-2.43","6653fd851febb9fc714b842a","666094c154fdc95dca3e206f","66609b86d9377b7188fce49a","null","","null","","","","","","","","./tasks/HMM-beads/Images/BlackBeadChoiceWrong.png","","","","","","","","","",""
"image-keyboard-response","268","809318","0.0-3.0-6.0-1.0-0.44","6653fd851febb9fc714b842a","666094c154fdc95dca3e206f","66609b86d9377b7188fce49a","294","","j","","","","","","","","./tasks/HMM-beads/Images/NewTrialWC.png","lowH","1","44","1","1","1","1","true","",""
"image-keyboard-response","269","809629","0.0-3.0-6.0-1.0-1.44","6653fd851febb9fc714b842a","666094c154fdc95dca3e206f","66609b86d9377b7188fce49a","null","","null","","","","","","","","./tasks/HMM-beads/Images/WhiteBeadChoice.png","","","","","","","","","",""
"image-keyboard-response","270","810141","0.0-3.0-6.0-1.0-2.44","6653fd851febb9fc714b842a","666094c154fdc95dca3e206f","66609b86d9377b7188fce49a","null","","null","","","","","","","","./tasks/HMM-beads/Images/WhiteBeadChoiceCorrect.png","","","","","","","","","",""
"image-keyboard-response","271","810637","0.0-3.0-6.0-1.0-0.45","6653fd851febb9fc714b842a","666094c154fdc95dca3e206f","66609b86d9377b7188fce49a","493","","j","","","","","","","","./tasks/HMM-beads/Images/NewTrialWC.png","lowH","1","45","1","1","1","1","true","",""
"image-keyboard-response","272","810946","0.0-3.0-6.0-1.0-1.45","6653fd851febb9fc714b842a","666094c154fdc95dca3e206f","66609b86d9377b7188fce49a","null","","null","","","","","","","","./tasks/HMM-beads/Images/WhiteBeadChoice.png","","","","","","","","","",""
"image-keyboard-response","273","811457","0.0-3.0-6.0-1.0-2.45","6653fd851febb9fc714b842a","666094c154fdc95dca3e206f","66609b86d9377b7188fce49a","null","","null","","","","","","","","./tasks/HMM-beads/Images/WhiteBeadChoiceCorrect.png","","","","","","","","","",""
"image-keyboard-response","274","811792","0.0-3.0-6.0-1.0-0.46","6653fd851febb9fc714b842a","666094c154fdc95dca3e206f","66609b86d9377b7188fce49a","334","","j","","","","","","","","./tasks/HMM-beads/Images/NewTrialWC.png","lowH","1","46","1","1","1","1","true","",""
"image-keyboard-response","275","812109","0.0-3.0-6.0-1.0-1.46","6653fd851febb9fc714b842a","666094c154fdc95dca3e206f","66609b86d9377b7188fce49a","null","","null","","","","","","","","./tasks/HMM-beads/Images/WhiteBeadChoice.png","","","","","","","","","",""
"image-keyboard-response","276","812651","0.0-3.0-6.0-1.0-2.46","6653fd851febb9fc714b842a","666094c154fdc95dca3e206f","66609b86d9377b7188fce49a","null","","null","","","","","","","","./tasks/HMM-beads/Images/WhiteBeadChoiceCorrect.png","","","","","","","","","",""
"image-keyboard-response","277","813041","0.0-3.0-6.0-1.0-0.47","6653fd851febb9fc714b842a","666094c154fdc95dca3e206f","66609b86d9377b7188fce49a","388","","f","","","","","","","","./tasks/HMM-beads/Images/NewTrialWC.png","lowH","1","47","1","0","1","0","true","",""
"image-keyboard-response","278","813367","0.0-3.0-6.0-1.0-1.47","6653fd851febb9fc714b842a","666094c154fdc95dca3e206f","66609b86d9377b7188fce49a","null","","null","","","","","","","","./tasks/HMM-beads/Images/BlackBeadChoice.png","","","","","","","","","",""
"image-keyboard-response","279","813880","0.0-3.0-6.0-1.0-2.47","6653fd851febb9fc714b842a","666094c154fdc95dca3e206f","66609b86d9377b7188fce49a","null","","null","","","","","","","","./tasks/HMM-beads/Images/BlackBeadChoiceCorrect.png","","","","","","","","","",""
"image-keyboard-response","280","814779","0.0-3.0-6.0-1.0-0.48","6653fd851febb9fc714b842a","666094c154fdc95dca3e206f","66609b86d9377b7188fce49a","896","","f","","","","","","","","./tasks/HMM-beads/Images/NewTrialBC.png","lowH","1","48","1","0","0","0","true","",""
"image-keyboard-response","281","815094","0.0-3.0-6.0-1.0-1.48","6653fd851febb9fc714b842a","666094c154fdc95dca3e206f","66609b86d9377b7188fce49a","null","","null","","","","","","","","./tasks/HMM-beads/Images/BlackBeadChoice.png","","","","","","","","","",""
"image-keyboard-response","282","815607","0.0-3.0-6.0-1.0-2.48","6653fd851febb9fc714b842a","666094c154fdc95dca3e206f","66609b86d9377b7188fce49a","null","","null","","","","","","","","./tasks/HMM-beads/Images/BlackBeadChoiceCorrect.png","","","","","","","","","",""
"image-keyboard-response","283","815976","0.0-3.0-6.0-1.0-0.49","6653fd851febb9fc714b842a","666094c154fdc95dca3e206f","66609b86d9377b7188fce49a","368","","f","","","","","","","","./tasks/HMM-beads/Images/NewTrialBC.png","lowH","1","49","1","0","0","0","true","",""
"image-keyboard-response","284","816294","0.0-3.0-6.0-1.0-1.49","6653fd851febb9fc714b842a","666094c154fdc95dca3e206f","66609b86d9377b7188fce49a","null","","null","","","","","","","","./tasks/HMM-beads/Images/BlackBeadChoice.png","","","","","","","","","",""
"image-keyboard-response","285","816808","0.0-3.0-6.0-1.0-2.49","6653fd851febb9fc714b842a","666094c154fdc95dca3e206f","66609b86d9377b7188fce49a","null","","null","","","","","","","","./tasks/HMM-beads/Images/BlackBeadChoiceCorrect.png","","","","","","","","","",""
"image-keyboard-response","286","817267","0.0-3.0-6.0-1.0-0.50","6653fd851febb9fc714b842a","666094c154fdc95dca3e206f","66609b86d9377b7188fce49a","457","","f","","","","","","","","./tasks/HMM-beads/Images/NewTrialBC.png","lowH","1","50","1","1","0","0","false","",""
"image-keyboard-response","287","817570","0.0-3.0-6.0-1.0-1.50","6653fd851febb9fc714b842a","666094c154fdc95dca3e206f","66609b86d9377b7188fce49a","null","","null","","","","","","","","./tasks/HMM-beads/Images/BlackBeadChoice.png","","","","","","","","","",""
"image-keyboard-response","288","818080","0.0-3.0-6.0-1.0-2.50","6653fd851febb9fc714b842a","666094c154fdc95dca3e206f","66609b86d9377b7188fce49a","null","","null","","","","","","","","./tasks/HMM-beads/Images/BlackBeadChoiceWrong.png","","","","","","","","","",""
"image-keyboard-response","289","818643","0.0-3.0-6.0-1.0-0.51","6653fd851febb9fc714b842a","666094c154fdc95dca3e206f","66609b86d9377b7188fce49a","560","","j","","","","","","","","./tasks/HMM-beads/Images/NewTrialWC.png","lowH","1","51","1","1","1","1","true","",""
"image-keyboard-response","290","818951","0.0-3.0-6.0-1.0-1.51","6653fd851febb9fc714b842a","666094c154fdc95dca3e206f","66609b86d9377b7188fce49a","null","","null","","","","","","","","./tasks/HMM-beads/Images/WhiteBeadChoice.png","","","","","","","","","",""
"image-keyboard-response","291","819462","0.0-3.0-6.0-1.0-2.51","6653fd851febb9fc714b842a","666094c154fdc95dca3e206f","66609b86d9377b7188fce49a","null","","null","","","","","","","","./tasks/HMM-beads/Images/WhiteBeadChoiceCorrect.png","","","","","","","","","",""
"image-keyboard-response","292","819619","0.0-3.0-6.0-1.0-0.52","6653fd851febb9fc714b842a","666094c154fdc95dca3e206f","66609b86d9377b7188fce49a","154","","j","","","","","","","","./tasks/HMM-beads/Images/NewTrialWC.png","lowH","1","52","1","1","1","1","true","",""
"image-keyboard-response","293","819926","0.0-3.0-6.0-1.0-1.52","6653fd851febb9fc714b842a","666094c154fdc95dca3e206f","66609b86d9377b7188fce49a","null","","null","","","","","","","","./tasks/HMM-beads/Images/WhiteBeadChoice.png","","","","","","","","","",""
"image-keyboard-response","294","820437","0.0-3.0-6.0-1.0-2.52","6653fd851febb9fc714b842a","666094c154fdc95dca3e206f","66609b86d9377b7188fce49a","null","","null","","","","","","","","./tasks/HMM-beads/Images/WhiteBeadChoiceCorrect.png","","","","","","","","","",""
"image-keyboard-response","295","820620","0.0-3.0-6.0-1.0-0.53","6653fd851febb9fc714b842a","666094c154fdc95dca3e206f","66609b86d9377b7188fce49a","181","","j","","","","","","","","./tasks/HMM-beads/Images/NewTrialWC.png","lowH","1","53","1","1","1","1","true","",""
"image-keyboard-response","296","820932","0.0-3.0-6.0-1.0-1.53","6653fd851febb9fc714b842a","666094c154fdc95dca3e206f","66609b86d9377b7188fce49a","null","","null","","","","","","","","./tasks/HMM-beads/Images/WhiteBeadChoice.png","","","","","","","","","",""
"image-keyboard-response","297","821446","0.0-3.0-6.0-1.0-2.53","6653fd851febb9fc714b842a","666094c154fdc95dca3e206f","66609b86d9377b7188fce49a","null","","null","","","","","","","","./tasks/HMM-beads/Images/WhiteBeadChoiceCorrect.png","","","","","","","","","",""
"image-keyboard-response","298","821703","0.0-3.0-6.0-1.0-0.54","6653fd851febb9fc714b842a","666094c154fdc95dca3e206f","66609b86d9377b7188fce49a","256","","j","","","","","","","","./tasks/HMM-beads/Images/NewTrialWC.png","lowH","1","54","1","1","1","1","true","",""
"image-keyboard-response","299","822019","0.0-3.0-6.0-1.0-1.54","6653fd851febb9fc714b842a","666094c154fdc95dca3e206f","66609b86d9377b7188fce49a","null","","null","","","","","","","","./tasks/HMM-beads/Images/WhiteBeadChoice.png","","","","","","","","","",""
"image-keyboard-response","300","822533","0.0-3.0-6.0-1.0-2.54","6653fd851febb9fc714b842a","666094c154fdc95dca3e206f","66609b86d9377b7188fce49a","null","","null","","","","","","","","./tasks/HMM-beads/Images/WhiteBeadChoiceCorrect.png","","","","","","","","","",""
"image-keyboard-response","301","822611","0.0-3.0-6.0-1.0-0.55","6653fd851febb9fc714b842a","666094c154fdc95dca3e206f","66609b86d9377b7188fce49a","77","","j","","","","","","","","./tasks/HMM-beads/Images/NewTrialWC.png","lowH","1","55","1","1","1","1","true","",""
"image-keyboard-response","302","822921","0.0-3.0-6.0-1.0-1.55","6653fd851febb9fc714b842a","666094c154fdc95dca3e206f","66609b86d9377b7188fce49a","null","","null","","","","","","","","./tasks/HMM-beads/Images/WhiteBeadChoice.png","","","","","","","","","",""
"image-keyboard-response","303","823435","0.0-3.0-6.0-1.0-2.55","6653fd851febb9fc714b842a","666094c154fdc95dca3e206f","66609b86d9377b7188fce49a","null","","null","","","","","","","","./tasks/HMM-beads/Images/WhiteBeadChoiceCorrect.png","","","","","","","","","",""
"image-keyboard-response","304","823740","0.0-3.0-6.0-1.0-0.56","6653fd851febb9fc714b842a","666094c154fdc95dca3e206f","66609b86d9377b7188fce49a","303","","j","","","","","","","","./tasks/HMM-beads/Images/NewTrialWC.png","lowH","1","56","1","1","1","1","true","",""
"image-keyboard-response","305","824041","0.0-3.0-6.0-1.0-1.56","6653fd851febb9fc714b842a","666094c154fdc95dca3e206f","66609b86d9377b7188fce49a","null","","null","","","","","","","","./tasks/HMM-beads/Images/WhiteBeadChoice.png","","","","","","","","","",""
"image-keyboard-response","306","824556","0.0-3.0-6.0-1.0-2.56","6653fd851febb9fc714b842a","666094c154fdc95dca3e206f","66609b86d9377b7188fce49a","null","","null","","","","","","","","./tasks/HMM-beads/Images/WhiteBeadChoiceCorrect.png","","","","","","","","","",""
"image-keyboard-response","307","824614","0.0-3.0-6.0-1.0-0.57","6653fd851febb9fc714b842a","666094c154fdc95dca3e206f","66609b86d9377b7188fce49a","53","","j","","","","","","","","./tasks/HMM-beads/Images/NewTrialWC.png","lowH","1","57","1","1","1","1","true","",""
"image-keyboard-response","308","824942","0.0-3.0-6.0-1.0-1.57","6653fd851febb9fc714b842a","666094c154fdc95dca3e206f","66609b86d9377b7188fce49a","null","","null","","","","","","","","./tasks/HMM-beads/Images/WhiteBeadChoice.png","","","","","","","","","",""
"image-keyboard-response","309","825454","0.0-3.0-6.0-1.0-2.57","6653fd851febb9fc714b842a","666094c154fdc95dca3e206f","66609b86d9377b7188fce49a","null","","null","","","","","","","","./tasks/HMM-beads/Images/WhiteBeadChoiceCorrect.png","","","","","","","","","",""
"image-keyboard-response","310","825824","0.0-3.0-6.0-1.0-0.58","6653fd851febb9fc714b842a","666094c154fdc95dca3e206f","66609b86d9377b7188fce49a","368","","j","","","","","","","","./tasks/HMM-beads/Images/NewTrialWC.png","lowH","1","58","1","1","1","1","true","",""
"image-keyboard-response","311","826138","0.0-3.0-6.0-1.0-1.58","6653fd851febb9fc714b842a","666094c154fdc95dca3e206f","66609b86d9377b7188fce49a","null","","null","","","","","","","","./tasks/HMM-beads/Images/WhiteBeadChoice.png","","","","","","","","","",""
"image-keyboard-response","312","826651","0.0-3.0-6.0-1.0-2.58","6653fd851febb9fc714b842a","666094c154fdc95dca3e206f","66609b86d9377b7188fce49a","null","","null","","","","","","","","./tasks/HMM-beads/Images/WhiteBeadChoiceCorrect.png","","","","","","","","","",""
"image-keyboard-response","313","826754","0.0-3.0-6.0-1.0-0.59","6653fd851febb9fc714b842a","666094c154fdc95dca3e206f","66609b86d9377b7188fce49a","103","","j","","","","","","","","./tasks/HMM-beads/Images/NewTrialWC.png","lowH","1","59","1","0","1","1","false","",""
"image-keyboard-response","314","827069","0.0-3.0-6.0-1.0-1.59","6653fd851febb9fc714b842a","666094c154fdc95dca3e206f","66609b86d9377b7188fce49a","null","","null","","","","","","","","./tasks/HMM-beads/Images/WhiteBeadChoice.png","","","","","","","","","",""
"image-keyboard-response","315","827581","0.0-3.0-6.0-1.0-2.59","6653fd851febb9fc714b842a","666094c154fdc95dca3e206f","66609b86d9377b7188fce49a","null","","null","","","","","","","","./tasks/HMM-beads/Images/WhiteBeadChoiceWrong.png","","","","","","","","","",""
"image-keyboard-response","316","827772","0.0-3.0-6.0-1.0-0.60","6653fd851febb9fc714b842a","666094c154fdc95dca3e206f","66609b86d9377b7188fce49a","190","","f","","","","","","","","./tasks/HMM-beads/Images/NewTrialBC.png","lowH","1","60","1","1","0","0","false","",""
"image-keyboard-response","317","828078","0.0-3.0-6.0-1.0-1.60","6653fd851febb9fc714b842a","666094c154fdc95dca3e206f","66609b86d9377b7188fce49a","null","","null","","","","","","","","./tasks/HMM-beads/Images/BlackBeadChoice.png","","","","","","","","","",""
"image-keyboard-response","318","828637","0.0-3.0-6.0-1.0-2.60","6653fd851febb9fc714b842a","666094c154fdc95dca3e206f","66609b86d9377b7188fce49a","null","","null","","","","","","","","./tasks/HMM-beads/Images/BlackBeadChoiceWrong.png","","","","","","","","","",""
"image-keyboard-response","319","828707","0.0-3.0-6.0-1.0-0.61","6653fd851febb9fc714b842a","666094c154fdc95dca3e206f","66609b86d9377b7188fce49a","69","","j","","","","","","","","./tasks/HMM-beads/Images/NewTrialWC.png","lowH","1","61","1","1","1","1","true","",""
"image-keyboard-response","320","829058","0.0-3.0-6.0-1.0-1.61","6653fd851febb9fc714b842a","666094c154fdc95dca3e206f","66609b86d9377b7188fce49a","null","","null","","","","","","","","./tasks/HMM-beads/Images/WhiteBeadChoice.png","","","","","","","","","",""
"image-keyboard-response","321","829565","0.0-3.0-6.0-1.0-2.61","6653fd851febb9fc714b842a","666094c154fdc95dca3e206f","66609b86d9377b7188fce49a","null","","null","","","","","","","","./tasks/HMM-beads/Images/WhiteBeadChoiceCorrect.png","","","","","","","","","",""
"image-keyboard-response","322","829681","0.0-3.0-6.0-1.0-0.62","6653fd851febb9fc714b842a","666094c154fdc95dca3e206f","66609b86d9377b7188fce49a","113","","j","","","","","","","","./tasks/HMM-beads/Images/NewTrialWC.png","lowH","1","62","1","0","1","1","false","",""
"image-keyboard-response","323","829987","0.0-3.0-6.0-1.0-1.62","6653fd851febb9fc714b842a","666094c154fdc95dca3e206f","66609b86d9377b7188fce49a","null","","null","","","","","","","","./tasks/HMM-beads/Images/WhiteBeadChoice.png","","","","","","","","","",""
"image-keyboard-response","324","830502","0.0-3.0-6.0-1.0-2.62","6653fd851febb9fc714b842a","666094c154fdc95dca3e206f","66609b86d9377b7188fce49a","null","","null","","","","","","","","./tasks/HMM-beads/Images/WhiteBeadChoiceWrong.png","","","","","","","","","",""
"image-keyboard-response","325","830614","0.0-3.0-6.0-1.0-0.63","6653fd851febb9fc714b842a","666094c154fdc95dca3e206f","66609b86d9377b7188fce49a","110","","f","","","","","","","","./tasks/HMM-beads/Images/NewTrialBC.png","lowH","1","63","1","1","0","0","false","",""
"image-keyboard-response","326","830922","0.0-3.0-6.0-1.0-1.63","6653fd851febb9fc714b842a","666094c154fdc95dca3e206f","66609b86d9377b7188fce49a","null","","null","","","","","","","","./tasks/HMM-beads/Images/BlackBeadChoice.png","","","","","","","","","",""
"image-keyboard-response","327","831433","0.0-3.0-6.0-1.0-2.63","6653fd851febb9fc714b842a","666094c154fdc95dca3e206f","66609b86d9377b7188fce49a","null","","null","","","","","","","","./tasks/HMM-beads/Images/BlackBeadChoiceWrong.png","","","","","","","","","",""
"image-keyboard-response","328","831491","0.0-3.0-6.0-1.0-0.64","6653fd851febb9fc714b842a","666094c154fdc95dca3e206f","66609b86d9377b7188fce49a","57","","j","","","","","","","","./tasks/HMM-beads/Images/NewTrialWC.png","lowH","1","64","1","1","1","1","true","",""
"image-keyboard-response","329","831802","0.0-3.0-6.0-1.0-1.64","6653fd851febb9fc714b842a","666094c154fdc95dca3e206f","66609b86d9377b7188fce49a","null","","null","","","","","","","","./tasks/HMM-beads/Images/WhiteBeadChoice.png","","","","","","","","","",""
"image-keyboard-response","330","832316","0.0-3.0-6.0-1.0-2.64","6653fd851febb9fc714b842a","666094c154fdc95dca3e206f","66609b86d9377b7188fce49a","null","","null","","","","","","","","./tasks/HMM-beads/Images/WhiteBeadChoiceCorrect.png","","","","","","","","","",""
"image-keyboard-response","331","832535","0.0-3.0-6.0-1.0-0.65","6653fd851febb9fc714b842a","666094c154fdc95dca3e206f","66609b86d9377b7188fce49a","217","","j","","","","","","","","./tasks/HMM-beads/Images/NewTrialWC.png","lowH","1","65","1","1","1","1","true","",""
"image-keyboard-response","332","832845","0.0-3.0-6.0-1.0-1.65","6653fd851febb9fc714b842a","666094c154fdc95dca3e206f","66609b86d9377b7188fce49a","null","","null","","","","","","","","./tasks/HMM-beads/Images/WhiteBeadChoice.png","","","","","","","","","",""
"image-keyboard-response","333","833358","0.0-3.0-6.0-1.0-2.65","6653fd851febb9fc714b842a","666094c154fdc95dca3e206f","66609b86d9377b7188fce49a","null","","null","","","","","","","","./tasks/HMM-beads/Images/WhiteBeadChoiceCorrect.png","","","","","","","","","",""
"image-keyboard-response","334","837227","0.0-3.0-6.0-1.0-0.66","6653fd851febb9fc714b842a","666094c154fdc95dca3e206f","66609b86d9377b7188fce49a","3867","","j","","","","","","","","./tasks/HMM-beads/Images/NewTrialWC.png","lowH","1","66","1","1","1","1","true","",""
"image-keyboard-response","335","837537","0.0-3.0-6.0-1.0-1.66","6653fd851febb9fc714b842a","666094c154fdc95dca3e206f","66609b86d9377b7188fce49a","null","","null","","","","","","","","./tasks/HMM-beads/Images/WhiteBeadChoice.png","","","","","","","","","",""
"image-keyboard-response","336","838046","0.0-3.0-6.0-1.0-2.66","6653fd851febb9fc714b842a","666094c154fdc95dca3e206f","66609b86d9377b7188fce49a","null","","null","","","","","","","","./tasks/HMM-beads/Images/WhiteBeadChoiceCorrect.png","","","","","","","","","",""
"image-keyboard-response","337","838502","0.0-3.0-6.0-1.0-0.67","6653fd851febb9fc714b842a","666094c154fdc95dca3e206f","66609b86d9377b7188fce49a","455","","j","","","","","","","","./tasks/HMM-beads/Images/NewTrialWC.png","lowH","1","67","1","0","1","1","false","",""
"image-keyboard-response","338","838811","0.0-3.0-6.0-1.0-1.67","6653fd851febb9fc714b842a","666094c154fdc95dca3e206f","66609b86d9377b7188fce49a","null","","null","","","","","","","","./tasks/HMM-beads/Images/WhiteBeadChoice.png","","","","","","","","","",""
"image-keyboard-response","339","839312","0.0-3.0-6.0-1.0-2.67","6653fd851febb9fc714b842a","666094c154fdc95dca3e206f","66609b86d9377b7188fce49a","null","","null","","","","","","","","./tasks/HMM-beads/Images/WhiteBeadChoiceWrong.png","","","","","","","","","",""
"image-keyboard-response","340","852242","0.0-3.0-6.0-1.0-0.68","6653fd851febb9fc714b842a","666094c154fdc95dca3e206f","66609b86d9377b7188fce49a","12927","","f","","","","","","","","./tasks/HMM-beads/Images/NewTrialBC.png","lowH","1","68","1","1","0","0","false","",""
"image-keyboard-response","341","852552","0.0-3.0-6.0-1.0-1.68","6653fd851febb9fc714b842a","666094c154fdc95dca3e206f","66609b86d9377b7188fce49a","null","","null","","","","","","","","./tasks/HMM-beads/Images/BlackBeadChoice.png","","","","","","","","","",""
"image-keyboard-response","342","853066","0.0-3.0-6.0-1.0-2.68","6653fd851febb9fc714b842a","666094c154fdc95dca3e206f","66609b86d9377b7188fce49a","null","","null","","","","","","","","./tasks/HMM-beads/Images/BlackBeadChoiceWrong.png","","","","","","","","","",""
"image-keyboard-response","343","853931","0.0-3.0-6.0-1.0-0.69","6653fd851febb9fc714b842a","666094c154fdc95dca3e206f","66609b86d9377b7188fce49a","863","","j","","","","","","","","./tasks/HMM-beads/Images/NewTrialWC.png","lowH","1","69","0","1","1","1","true","",""
"image-keyboard-response","344","854261","0.0-3.0-6.0-1.0-1.69","6653fd851febb9fc714b842a","666094c154fdc95dca3e206f","66609b86d9377b7188fce49a","null","","null","","","","","","","","./tasks/HMM-beads/Images/WhiteBeadChoice.png","","","","","","","","","",""
"image-keyboard-response","345","854773","0.0-3.0-6.0-1.0-2.69","6653fd851febb9fc714b842a","666094c154fdc95dca3e206f","66609b86d9377b7188fce49a","null","","null","","","","","","","","./tasks/HMM-beads/Images/WhiteBeadChoiceCorrect.png","","","","","","","","","",""
"image-keyboard-response","346","855394","0.0-3.0-6.0-1.0-0.70","6653fd851febb9fc714b842a","666094c154fdc95dca3e206f","66609b86d9377b7188fce49a","619","","j","","","","","","","","./tasks/HMM-beads/Images/NewTrialWC.png","lowH","1","70","0","1","1","1","true","",""
"image-keyboard-response","347","855707","0.0-3.0-6.0-1.0-1.70","6653fd851febb9fc714b842a","666094c154fdc95dca3e206f","66609b86d9377b7188fce49a","null","","null","","","","","","","","./tasks/HMM-beads/Images/WhiteBeadChoice.png","","","","","","","","","",""
"image-keyboard-response","348","856265","0.0-3.0-6.0-1.0-2.70","6653fd851febb9fc714b842a","666094c154fdc95dca3e206f","66609b86d9377b7188fce49a","null","","null","","","","","","","","./tasks/HMM-beads/Images/WhiteBeadChoiceCorrect.png","","","","","","","","","",""
"image-keyboard-response","349","857232","0.0-3.0-6.0-1.0-0.71","6653fd851febb9fc714b842a","666094c154fdc95dca3e206f","66609b86d9377b7188fce49a","966","","j","","","","","","","","./tasks/HMM-beads/Images/NewTrialWC.png","lowH","1","71","0","0","1","1","false","",""
"image-keyboard-response","350","857545","0.0-3.0-6.0-1.0-1.71","6653fd851febb9fc714b842a","666094c154fdc95dca3e206f","66609b86d9377b7188fce49a","null","","null","","","","","","","","./tasks/HMM-beads/Images/WhiteBeadChoice.png","","","","","","","","","",""
"image-keyboard-response","351","858057","0.0-3.0-6.0-1.0-2.71","6653fd851febb9fc714b842a","666094c154fdc95dca3e206f","66609b86d9377b7188fce49a","null","","null","","","","","","","","./tasks/HMM-beads/Images/WhiteBeadChoiceWrong.png","","","","","","","","","",""
"image-keyboard-response","352","859160","0.0-3.0-6.0-1.0-0.72","6653fd851febb9fc714b842a","666094c154fdc95dca3e206f","66609b86d9377b7188fce49a","1101","","f","","","","","","","","./tasks/HMM-beads/Images/NewTrialBC.png","lowH","1","72","0","0","0","0","true","",""
"image-keyboard-response","353","859470","0.0-3.0-6.0-1.0-1.72","6653fd851febb9fc714b842a","666094c154fdc95dca3e206f","66609b86d9377b7188fce49a","null","","null","","","","","","","","./tasks/HMM-beads/Images/BlackBeadChoice.png","","","","","","","","","",""
"image-keyboard-response","354","859983","0.0-3.0-6.0-1.0-2.72","6653fd851febb9fc714b842a","666094c154fdc95dca3e206f","66609b86d9377b7188fce49a","null","","null","","","","","","","","./tasks/HMM-beads/Images/BlackBeadChoiceCorrect.png","","","","","","","","","",""
"image-keyboard-response","355","863125","0.0-3.0-6.0-1.0-0.73","6653fd851febb9fc714b842a","666094c154fdc95dca3e206f","66609b86d9377b7188fce49a","3140","","f","","","","","","","","./tasks/HMM-beads/Images/NewTrialBC.png","lowH","1","73","0","1","0","0","false","",""
"image-keyboard-response","356","863438","0.0-3.0-6.0-1.0-1.73","6653fd851febb9fc714b842a","666094c154fdc95dca3e206f","66609b86d9377b7188fce49a","null","","null","","","","","","","","./tasks/HMM-beads/Images/BlackBeadChoice.png","","","","","","","","","",""
"image-keyboard-response","357","863953","0.0-3.0-6.0-1.0-2.73","6653fd851febb9fc714b842a","666094c154fdc95dca3e206f","66609b86d9377b7188fce49a","null","","null","","","","","","","","./tasks/HMM-beads/Images/BlackBeadChoiceWrong.png","","","","","","","","","",""
"image-keyboard-response","358","864898","0.0-3.0-6.0-1.0-0.74","6653fd851febb9fc714b842a","666094c154fdc95dca3e206f","66609b86d9377b7188fce49a","943","","j","","","","","","","","./tasks/HMM-beads/Images/NewTrialWC.png","lowH","1","74","0","0","1","1","false","",""
"image-keyboard-response","359","865214","0.0-3.0-6.0-1.0-1.74","6653fd851febb9fc714b842a","666094c154fdc95dca3e206f","66609b86d9377b7188fce49a","null","","null","","","","","","","","./tasks/HMM-beads/Images/WhiteBeadChoice.png","","","","","","","","","",""
"image-keyboard-response","360","865729","0.0-3.0-6.0-1.0-2.74","6653fd851febb9fc714b842a","666094c154fdc95dca3e206f","66609b86d9377b7188fce49a","null","","null","","","","","","","","./tasks/HMM-beads/Images/WhiteBeadChoiceWrong.png","","","","","","","","","",""
"image-keyboard-response","361","866563","0.0-3.0-6.0-1.0-0.75","6653fd851febb9fc714b842a","666094c154fdc95dca3e206f","66609b86d9377b7188fce49a","833","","f","","","","","","","","./tasks/HMM-beads/Images/NewTrialBC.png","lowH","1","75","0","1","0","0","false","",""
"image-keyboard-response","362","866879","0.0-3.0-6.0-1.0-1.75","6653fd851febb9fc714b842a","666094c154fdc95dca3e206f","66609b86d9377b7188fce49a","null","","null","","","","","","","","./tasks/HMM-beads/Images/BlackBeadChoice.png","","","","","","","","","",""
"image-keyboard-response","363","867390","0.0-3.0-6.0-1.0-2.75","6653fd851febb9fc714b842a","666094c154fdc95dca3e206f","66609b86d9377b7188fce49a","null","","null","","","","","","","","./tasks/HMM-beads/Images/BlackBeadChoiceWrong.png","","","","","","","","","",""
"image-keyboard-response","364","873214","0.0-3.0-6.0-1.0-0.76","6653fd851febb9fc714b842a","666094c154fdc95dca3e206f","66609b86d9377b7188fce49a","5820","","j","","","","","","","","./tasks/HMM-beads/Images/NewTrialWC.png","lowH","1","76","0","1","1","1","true","",""
"image-keyboard-response","365","873522","0.0-3.0-6.0-1.0-1.76","6653fd851febb9fc714b842a","666094c154fdc95dca3e206f","66609b86d9377b7188fce49a","null","","null","","","","","","","","./tasks/HMM-beads/Images/WhiteBeadChoice.png","","","","","","","","","",""
"image-keyboard-response","366","874038","0.0-3.0-6.0-1.0-2.76","6653fd851febb9fc714b842a","666094c154fdc95dca3e206f","66609b86d9377b7188fce49a","null","","null","","","","","","","","./tasks/HMM-beads/Images/WhiteBeadChoiceCorrect.png","","","","","","","","","",""
"image-keyboard-response","367","874178","0.0-3.0-6.0-1.0-0.77","6653fd851febb9fc714b842a","666094c154fdc95dca3e206f","66609b86d9377b7188fce49a","137","","j","","","","","","","","./tasks/HMM-beads/Images/NewTrialWC.png","lowH","1","77","0","0","1","1","false","",""
"image-keyboard-response","368","874489","0.0-3.0-6.0-1.0-1.77","6653fd851febb9fc714b842a","666094c154fdc95dca3e206f","66609b86d9377b7188fce49a","null","","null","","","","","","","","./tasks/HMM-beads/Images/WhiteBeadChoice.png","","","","","","","","","",""
"image-keyboard-response","369","875000","0.0-3.0-6.0-1.0-2.77","6653fd851febb9fc714b842a","666094c154fdc95dca3e206f","66609b86d9377b7188fce49a","null","","null","","","","","","","","./tasks/HMM-beads/Images/WhiteBeadChoiceWrong.png","","","","","","","","","",""
"image-keyboard-response","370","877336","0.0-3.0-6.0-1.0-0.78","6653fd851febb9fc714b842a","666094c154fdc95dca3e206f","66609b86d9377b7188fce49a","2335","","j","","","","","","","","./tasks/HMM-beads/Images/NewTrialBC.png","lowH","1","78","0","0","0","1","false","",""
"image-keyboard-response","371","877640","0.0-3.0-6.0-1.0-1.78","6653fd851febb9fc714b842a","666094c154fdc95dca3e206f","66609b86d9377b7188fce49a","null","","null","","","","","","","","./tasks/HMM-beads/Images/WhiteBeadChoice.png","","","","","","","","","",""
"image-keyboard-response","372","878151","0.0-3.0-6.0-1.0-2.78","6653fd851febb9fc714b842a","666094c154fdc95dca3e206f","66609b86d9377b7188fce49a","null","","null","","","","","","","","./tasks/HMM-beads/Images/WhiteBeadChoiceWrong.png","","","","","","","","","",""
"image-keyboard-response","373","879701","0.0-3.0-6.0-1.0-0.79","6653fd851febb9fc714b842a","666094c154fdc95dca3e206f","66609b86d9377b7188fce49a","1549","","f","","","","","","","","./tasks/HMM-beads/Images/NewTrialBC.png","lowH","1","79","0","0","0","0","true","",""
"image-keyboard-response","374","880003","0.0-3.0-6.0-1.0-1.79","6653fd851febb9fc714b842a","666094c154fdc95dca3e206f","66609b86d9377b7188fce49a","null","","null","","","","","","","","./tasks/HMM-beads/Images/BlackBeadChoice.png","","","","","","","","","",""
