"trial_type","trial_index","time_elapsed","internal_node_id","subject_id","study_id","session_id","rt","url","response","question_order","view_history","success","timeout","failed_images","failed_audio","failed_video","stimulus","block","block_rep","trial_number","jar","bead","previous_bead","choice","correct","lowH_score","total_bonus"
"pavlovia","0","1075","0.0-0.0","5a00a8160fff620001a6b776","666094c154fdc95dca3e206f","6660995a7e25aba66f99e207","","","","","","","","","","","","","","","","","","","","",""
"external-html","1","23600","0.0-1.0-0.0","5a00a8160fff620001a6b776","666094c154fdc95dca3e206f","6660995a7e25aba66f99e207","22402","new_consent.html","","","","","","","","","","","","","","","","","","",""
"survey-multi-choice","2","27201","0.0-1.0-1.0","5a00a8160fff620001a6b776","666094c154fdc95dca3e206f","6660995a7e25aba66f99e207","3600","","{""Q0"":""Female"",""Q1"":""White""}","[0,1]","","","","","","","","","","","","","","","","",""
"survey-text","3","30298","0.0-1.0-2.0","5a00a8160fff620001a6b776","666094c154fdc95dca3e206f","6660995a7e25aba66f99e207","3093","","{""Q0"":""47""}","","","","","","","","","","","","","","","","","",""
"instructions","4","31751","0.0-2.0","5a00a8160fff620001a6b776","666094c154fdc95dca3e206f","6660995a7e25aba66f99e207","1333","","","","[{""page_index"":0,""viewing_time"":1333}]","","","","","","","","","","","","","","","",""
"preload","5","32649","0.0-3.0-0.0","5a00a8160fff620001a6b776","666094c154fdc95dca3e206f","6660995a7e25aba66f99e207","","","","","","true","false","[]","[]","[]","","","","","","","","","","",""
"instructions","6","129645","0.0-3.0-1.0","5a00a8160fff620001a6b776","666094c154fdc95dca3e206f","6660995a7e25aba66f99e207","96996","","","","[{""page_index"":0,""viewing_time"":14453},{""page_index"":1,""viewing_time"":9540},{""page_index"":2,""viewing_time"":4516},{""page_index"":3,""viewing_time"":4277},{""page_index"":4,""viewing_time"":8416},{""page_index"":5,""viewing_time"":26671},{""page_index"":6,""viewing_time"":2963},{""page_index"":7,""viewing_time"":4307},{""page_index"":8,""viewing_time"":5078},{""page_index"":9,""viewing_time"":6573},{""page_index"":10,""viewing_time"":8510},{""page_index"":11,""viewing_time"":1691}]","","","","","","","","","","","","","","","",""
"html-button-response","7","132762","0.0-3.0-2.0-0.0-0.0","5a00a8160fff620001a6b776","666094c154fdc95dca3e206f","6660995a7e25aba66f99e207","3115","","1","","","","","","","","<div align=center>Your goal is to predict…?<br><br></div>","","","","","","","","","",""
"html-button-response","8","137955","0.0-3.0-2.0-1.0-0.0","5a00a8160fff620001a6b776","666094c154fdc95dca3e206f","6660995a7e25aba66f99e207","3927","","2","","","","","","","","<div align=center>In the jar with mostly white beads, there are ___% white beads and ___% black beads?<br><br></div>","","","","","","","","","",""
"html-button-response","9","142331","0.0-3.0-2.0-2.0-0.0","5a00a8160fff620001a6b776","666094c154fdc95dca3e206f","6660995a7e25aba66f99e207","3324","","0","","","","","","","","<div align=center>When there is a 1% probability that the jars will switch, the next bead will most likely be drawn from the…<br><br></div>","","","","","","","","","",""
"html-button-response","10","145579","0.0-3.0-2.0-3.0-0.0","5a00a8160fff620001a6b776","666094c154fdc95dca3e206f","6660995a7e25aba66f99e207","2036","","1","","","","","","","","<div align=center>When there is a 99% probability that the jars will switch, the next bead will most likely be drawn from the…<br><br></div>","","","","","","","","","",""
"instructions","11","151808","0.0-3.0-3.0","5a00a8160fff620001a6b776","666094c154fdc95dca3e206f","6660995a7e25aba66f99e207","4700","","","","[{""page_index"":0,""viewing_time"":4700}]","","","","","","","","","","","","","","","",""
"html-keyboard-response","12","155327","0.0-3.0-4.0-0.0","5a00a8160fff620001a6b776","666094c154fdc95dca3e206f","6660995a7e25aba66f99e207","3517",""," ","","","","","","","","<div align=center>In this practice block, there will be a <b>1% chance</b> that the jar on the next trial will be different from the jar on the current trial.<br><br></div>","","","","","","","","","",""
"image-keyboard-response","13","159333","0.0-3.0-4.0-1.0-0.0","5a00a8160fff620001a6b776","666094c154fdc95dca3e206f","6660995a7e25aba66f99e207","3998","","f","","","","","","","","./tasks/HMM-beads/Images/NoChoice.png","practice","0","0","0","0","9","0","true","",""
"image-keyboard-response","14","159650","0.0-3.0-4.0-1.0-1.0","5a00a8160fff620001a6b776","666094c154fdc95dca3e206f","6660995a7e25aba66f99e207","null","","null","","","","","","","","./tasks/HMM-beads/Images/BlackBeadChoice.png","","","","","","","","","",""
"image-keyboard-response","15","160162","0.0-3.0-4.0-1.0-2.0","5a00a8160fff620001a6b776","666094c154fdc95dca3e206f","6660995a7e25aba66f99e207","null","","null","","","","","","","","./tasks/HMM-beads/Images/BlackBeadChoiceCorrect.png","","","","","","","","","",""
"image-keyboard-response","16","160830","0.0-3.0-4.0-1.0-0.1","5a00a8160fff620001a6b776","666094c154fdc95dca3e206f","6660995a7e25aba66f99e207","657","","f","","","","","","","","./tasks/HMM-beads/Images/NewTrialBC.png","practice","0","1","0","0","0","0","true","",""
"image-keyboard-response","17","161139","0.0-3.0-4.0-1.0-1.1","5a00a8160fff620001a6b776","666094c154fdc95dca3e206f","6660995a7e25aba66f99e207","null","","null","","","","","","","","./tasks/HMM-beads/Images/BlackBeadChoice.png","","","","","","","","","",""
"image-keyboard-response","18","161651","0.0-3.0-4.0-1.0-2.1","5a00a8160fff620001a6b776","666094c154fdc95dca3e206f","6660995a7e25aba66f99e207","null","","null","","","","","","","","./tasks/HMM-beads/Images/BlackBeadChoiceCorrect.png","","","","","","","","","",""
"image-keyboard-response","19","162250","0.0-3.0-4.0-1.0-0.2","5a00a8160fff620001a6b776","666094c154fdc95dca3e206f","6660995a7e25aba66f99e207","597","","f","","","","","","","","./tasks/HMM-beads/Images/NewTrialBC.png","practice","0","2","0","1","0","0","false","",""
"image-keyboard-response","20","162564","0.0-3.0-4.0-1.0-1.2","5a00a8160fff620001a6b776","666094c154fdc95dca3e206f","6660995a7e25aba66f99e207","null","","null","","","","","","","","./tasks/HMM-beads/Images/BlackBeadChoice.png","","","","","","","","","",""
"image-keyboard-response","21","163076","0.0-3.0-4.0-1.0-2.2","5a00a8160fff620001a6b776","666094c154fdc95dca3e206f","6660995a7e25aba66f99e207","null","","null","","","","","","","","./tasks/HMM-beads/Images/BlackBeadChoiceWrong.png","","","","","","","","","",""
"image-keyboard-response","22","163612","0.0-3.0-4.0-1.0-0.3","5a00a8160fff620001a6b776","666094c154fdc95dca3e206f","6660995a7e25aba66f99e207","528","","f","","","","","","","","./tasks/HMM-beads/Images/NewTrialWC.png","practice","0","3","0","0","1","0","true","",""
"image-keyboard-response","23","163929","0.0-3.0-4.0-1.0-1.3","5a00a8160fff620001a6b776","666094c154fdc95dca3e206f","6660995a7e25aba66f99e207","null","","null","","","","","","","","./tasks/HMM-beads/Images/BlackBeadChoice.png","","","","","","","","","",""
"image-keyboard-response","24","164441","0.0-3.0-4.0-1.0-2.3","5a00a8160fff620001a6b776","666094c154fdc95dca3e206f","6660995a7e25aba66f99e207","null","","null","","","","","","","","./tasks/HMM-beads/Images/BlackBeadChoiceCorrect.png","","","","","","","","","",""
"image-keyboard-response","25","165105","0.0-3.0-4.0-1.0-0.4","5a00a8160fff620001a6b776","666094c154fdc95dca3e206f","6660995a7e25aba66f99e207","661","","f","","","","","","","","./tasks/HMM-beads/Images/NewTrialBC.png","practice","0","4","0","0","0","0","true","",""
"image-keyboard-response","26","165421","0.0-3.0-4.0-1.0-1.4","5a00a8160fff620001a6b776","666094c154fdc95dca3e206f","6660995a7e25aba66f99e207","null","","null","","","","","","","","./tasks/HMM-beads/Images/BlackBeadChoice.png","","","","","","","","","",""
"image-keyboard-response","27","165934","0.0-3.0-4.0-1.0-2.4","5a00a8160fff620001a6b776","666094c154fdc95dca3e206f","6660995a7e25aba66f99e207","null","","null","","","","","","","","./tasks/HMM-beads/Images/BlackBeadChoiceCorrect.png","","","","","","","","","",""
"image-keyboard-response","28","166461","0.0-3.0-4.0-1.0-0.5","5a00a8160fff620001a6b776","666094c154fdc95dca3e206f","6660995a7e25aba66f99e207","524","","f","","","","","","","","./tasks/HMM-beads/Images/NewTrialBC.png","practice","0","5","0","1","0","0","false","",""
"image-keyboard-response","29","166771","0.0-3.0-4.0-1.0-1.5","5a00a8160fff620001a6b776","666094c154fdc95dca3e206f","6660995a7e25aba66f99e207","null","","null","","","","","","","","./tasks/HMM-beads/Images/BlackBeadChoice.png","","","","","","","","","",""
"image-keyboard-response","30","167283","0.0-3.0-4.0-1.0-2.5","5a00a8160fff620001a6b776","666094c154fdc95dca3e206f","6660995a7e25aba66f99e207","null","","null","","","","","","","","./tasks/HMM-beads/Images/BlackBeadChoiceWrong.png","","","","","","","","","",""
"image-keyboard-response","31","167882","0.0-3.0-4.0-1.0-0.6","5a00a8160fff620001a6b776","666094c154fdc95dca3e206f","6660995a7e25aba66f99e207","598","","f","","","","","","","","./tasks/HMM-beads/Images/NewTrialWC.png","practice","0","6","0","0","1","0","true","",""
"image-keyboard-response","32","168198","0.0-3.0-4.0-1.0-1.6","5a00a8160fff620001a6b776","666094c154fdc95dca3e206f","6660995a7e25aba66f99e207","null","","null","","","","","","","","./tasks/HMM-beads/Images/BlackBeadChoice.png","","","","","","","","","",""
"image-keyboard-response","33","168712","0.0-3.0-4.0-1.0-2.6","5a00a8160fff620001a6b776","666094c154fdc95dca3e206f","6660995a7e25aba66f99e207","null","","null","","","","","","","","./tasks/HMM-beads/Images/BlackBeadChoiceCorrect.png","","","","","","","","","",""
"image-keyboard-response","34","169407","0.0-3.0-4.0-1.0-0.7","5a00a8160fff620001a6b776","666094c154fdc95dca3e206f","6660995a7e25aba66f99e207","692","","f","","","","","","","","./tasks/HMM-beads/Images/NewTrialBC.png","practice","0","7","0","0","0","0","true","",""
"image-keyboard-response","35","169723","0.0-3.0-4.0-1.0-1.7","5a00a8160fff620001a6b776","666094c154fdc95dca3e206f","6660995a7e25aba66f99e207","null","","null","","","","","","","","./tasks/HMM-beads/Images/BlackBeadChoice.png","","","","","","","","","",""
"image-keyboard-response","36","170233","0.0-3.0-4.0-1.0-2.7","5a00a8160fff620001a6b776","666094c154fdc95dca3e206f","6660995a7e25aba66f99e207","null","","null","","","","","","","","./tasks/HMM-beads/Images/BlackBeadChoiceCorrect.png","","","","","","","","","",""
"image-keyboard-response","37","170866","0.0-3.0-4.0-1.0-0.8","5a00a8160fff620001a6b776","666094c154fdc95dca3e206f","6660995a7e25aba66f99e207","632","","f","","","","","","","","./tasks/HMM-beads/Images/NewTrialBC.png","practice","0","8","0","0","0","0","true","",""
"image-keyboard-response","38","171182","0.0-3.0-4.0-1.0-1.8","5a00a8160fff620001a6b776","666094c154fdc95dca3e206f","6660995a7e25aba66f99e207","null","","null","","","","","","","","./tasks/HMM-beads/Images/BlackBeadChoice.png","","","","","","","","","",""
"image-keyboard-response","39","171694","0.0-3.0-4.0-1.0-2.8","5a00a8160fff620001a6b776","666094c154fdc95dca3e206f","6660995a7e25aba66f99e207","null","","null","","","","","","","","./tasks/HMM-beads/Images/BlackBeadChoiceCorrect.png","","","","","","","","","",""
"image-keyboard-response","40","172288","0.0-3.0-4.0-1.0-0.9","5a00a8160fff620001a6b776","666094c154fdc95dca3e206f","6660995a7e25aba66f99e207","592","","f","","","","","","","","./tasks/HMM-beads/Images/NewTrialBC.png","practice","0","9","0","1","0","0","false","",""
"image-keyboard-response","41","172593","0.0-3.0-4.0-1.0-1.9","5a00a8160fff620001a6b776","666094c154fdc95dca3e206f","6660995a7e25aba66f99e207","null","","null","","","","","","","","./tasks/HMM-beads/Images/BlackBeadChoice.png","","","","","","","","","",""
"image-keyboard-response","42","173107","0.0-3.0-4.0-1.0-2.9","5a00a8160fff620001a6b776","666094c154fdc95dca3e206f","6660995a7e25aba66f99e207","null","","null","","","","","","","","./tasks/HMM-beads/Images/BlackBeadChoiceWrong.png","","","","","","","","","",""
"image-keyboard-response","43","173688","0.0-3.0-4.0-1.0-0.10","5a00a8160fff620001a6b776","666094c154fdc95dca3e206f","6660995a7e25aba66f99e207","581","","f","","","","","","","","./tasks/HMM-beads/Images/NewTrialWC.png","practice","0","10","0","0","1","0","true","",""
"image-keyboard-response","44","173990","0.0-3.0-4.0-1.0-1.10","5a00a8160fff620001a6b776","666094c154fdc95dca3e206f","6660995a7e25aba66f99e207","null","","null","","","","","","","","./tasks/HMM-beads/Images/BlackBeadChoice.png","","","","","","","","","",""
"image-keyboard-response","45","174506","0.0-3.0-4.0-1.0-2.10","5a00a8160fff620001a6b776","666094c154fdc95dca3e206f","6660995a7e25aba66f99e207","null","","null","","","","","","","","./tasks/HMM-beads/Images/BlackBeadChoiceCorrect.png","","","","","","","","","",""
"image-keyboard-response","46","175148","0.0-3.0-4.0-1.0-0.11","5a00a8160fff620001a6b776","666094c154fdc95dca3e206f","6660995a7e25aba66f99e207","637","","f","","","","","","","","./tasks/HMM-beads/Images/NewTrialBC.png","practice","0","11","0","1","0","0","false","",""
"image-keyboard-response","47","175481","0.0-3.0-4.0-1.0-1.11","5a00a8160fff620001a6b776","666094c154fdc95dca3e206f","6660995a7e25aba66f99e207","null","","null","","","","","","","","./tasks/HMM-beads/Images/BlackBeadChoice.png","","","","","","","","","",""
"image-keyboard-response","48","175991","0.0-3.0-4.0-1.0-2.11","5a00a8160fff620001a6b776","666094c154fdc95dca3e206f","6660995a7e25aba66f99e207","null","","null","","","","","","","","./tasks/HMM-beads/Images/BlackBeadChoiceWrong.png","","","","","","","","","",""
"image-keyboard-response","49","176594","0.0-3.0-4.0-1.0-0.12","5a00a8160fff620001a6b776","666094c154fdc95dca3e206f","6660995a7e25aba66f99e207","600","","f","","","","","","","","./tasks/HMM-beads/Images/NewTrialWC.png","practice","0","12","0","0","1","0","true","",""
"image-keyboard-response","50","176935","0.0-3.0-4.0-1.0-1.12","5a00a8160fff620001a6b776","666094c154fdc95dca3e206f","6660995a7e25aba66f99e207","null","","null","","","","","","","","./tasks/HMM-beads/Images/BlackBeadChoice.png","","","","","","","","","",""
"image-keyboard-response","51","177447","0.0-3.0-4.0-1.0-2.12","5a00a8160fff620001a6b776","666094c154fdc95dca3e206f","6660995a7e25aba66f99e207","null","","null","","","","","","","","./tasks/HMM-beads/Images/BlackBeadChoiceCorrect.png","","","","","","","","","",""
"image-keyboard-response","52","178069","0.0-3.0-4.0-1.0-0.13","5a00a8160fff620001a6b776","666094c154fdc95dca3e206f","6660995a7e25aba66f99e207","618","","f","","","","","","","","./tasks/HMM-beads/Images/NewTrialBC.png","practice","0","13","0","0","0","0","true","",""
"image-keyboard-response","53","178378","0.0-3.0-4.0-1.0-1.13","5a00a8160fff620001a6b776","666094c154fdc95dca3e206f","6660995a7e25aba66f99e207","null","","null","","","","","","","","./tasks/HMM-beads/Images/BlackBeadChoice.png","","","","","","","","","",""
"image-keyboard-response","54","178886","0.0-3.0-4.0-1.0-2.13","5a00a8160fff620001a6b776","666094c154fdc95dca3e206f","6660995a7e25aba66f99e207","null","","null","","","","","","","","./tasks/HMM-beads/Images/BlackBeadChoiceCorrect.png","","","","","","","","","",""
"image-keyboard-response","55","179424","0.0-3.0-4.0-1.0-0.14","5a00a8160fff620001a6b776","666094c154fdc95dca3e206f","6660995a7e25aba66f99e207","533","","f","","","","","","","","./tasks/HMM-beads/Images/NewTrialBC.png","practice","0","14","0","0","0","0","true","",""
"image-keyboard-response","56","179739","0.0-3.0-4.0-1.0-1.14","5a00a8160fff620001a6b776","666094c154fdc95dca3e206f","6660995a7e25aba66f99e207","null","","null","","","","","","","","./tasks/HMM-beads/Images/BlackBeadChoice.png","","","","","","","","","",""
"image-keyboard-response","57","180250","0.0-3.0-4.0-1.0-2.14","5a00a8160fff620001a6b776","666094c154fdc95dca3e206f","6660995a7e25aba66f99e207","null","","null","","","","","","","","./tasks/HMM-beads/Images/BlackBeadChoiceCorrect.png","","","","","","","","","",""
"image-keyboard-response","58","180850","0.0-3.0-4.0-1.0-0.15","5a00a8160fff620001a6b776","666094c154fdc95dca3e206f","6660995a7e25aba66f99e207","596","","f","","","","","","","","./tasks/HMM-beads/Images/NewTrialBC.png","practice","0","15","0","0","0","0","true","",""
"image-keyboard-response","59","181163","0.0-3.0-4.0-1.0-1.15","5a00a8160fff620001a6b776","666094c154fdc95dca3e206f","6660995a7e25aba66f99e207","null","","null","","","","","","","","./tasks/HMM-beads/Images/BlackBeadChoice.png","","","","","","","","","",""
"image-keyboard-response","60","181675","0.0-3.0-4.0-1.0-2.15","5a00a8160fff620001a6b776","666094c154fdc95dca3e206f","6660995a7e25aba66f99e207","null","","null","","","","","","","","./tasks/HMM-beads/Images/BlackBeadChoiceCorrect.png","","","","","","","","","",""
"image-keyboard-response","61","182284","0.0-3.0-4.0-1.0-0.16","5a00a8160fff620001a6b776","666094c154fdc95dca3e206f","6660995a7e25aba66f99e207","606","","f","","","","","","","","./tasks/HMM-beads/Images/NewTrialBC.png","practice","0","16","0","0","0","0","true","",""
"image-keyboard-response","62","182591","0.0-3.0-4.0-1.0-1.16","5a00a8160fff620001a6b776","666094c154fdc95dca3e206f","6660995a7e25aba66f99e207","null","","null","","","","","","","","./tasks/HMM-beads/Images/BlackBeadChoice.png","","","","","","","","","",""
"image-keyboard-response","63","183102","0.0-3.0-4.0-1.0-2.16","5a00a8160fff620001a6b776","666094c154fdc95dca3e206f","6660995a7e25aba66f99e207","null","","null","","","","","","","","./tasks/HMM-beads/Images/BlackBeadChoiceCorrect.png","","","","","","","","","",""
"image-keyboard-response","64","183654","0.0-3.0-4.0-1.0-0.17","5a00a8160fff620001a6b776","666094c154fdc95dca3e206f","6660995a7e25aba66f99e207","549","","f","","","","","","","","./tasks/HMM-beads/Images/NewTrialBC.png","practice","0","17","0","0","0","0","true","",""
"image-keyboard-response","65","183971","0.0-3.0-4.0-1.0-1.17","5a00a8160fff620001a6b776","666094c154fdc95dca3e206f","6660995a7e25aba66f99e207","null","","null","","","","","","","","./tasks/HMM-beads/Images/BlackBeadChoice.png","","","","","","","","","",""
"image-keyboard-response","66","184480","0.0-3.0-4.0-1.0-2.17","5a00a8160fff620001a6b776","666094c154fdc95dca3e206f","6660995a7e25aba66f99e207","null","","null","","","","","","","","./tasks/HMM-beads/Images/BlackBeadChoiceCorrect.png","","","","","","","","","",""
"image-keyboard-response","67","185000","0.0-3.0-4.0-1.0-0.18","5a00a8160fff620001a6b776","666094c154fdc95dca3e206f","6660995a7e25aba66f99e207","519","","f","","","","","","","","./tasks/HMM-beads/Images/NewTrialBC.png","practice","0","18","0","1","0","0","false","",""
"image-keyboard-response","68","185305","0.0-3.0-4.0-1.0-1.18","5a00a8160fff620001a6b776","666094c154fdc95dca3e206f","6660995a7e25aba66f99e207","null","","null","","","","","","","","./tasks/HMM-beads/Images/BlackBeadChoice.png","","","","","","","","","",""
"image-keyboard-response","69","185814","0.0-3.0-4.0-1.0-2.18","5a00a8160fff620001a6b776","666094c154fdc95dca3e206f","6660995a7e25aba66f99e207","null","","null","","","","","","","","./tasks/HMM-beads/Images/BlackBeadChoiceWrong.png","","","","","","","","","",""
"image-keyboard-response","70","186378","0.0-3.0-4.0-1.0-0.19","5a00a8160fff620001a6b776","666094c154fdc95dca3e206f","6660995a7e25aba66f99e207","561","","f","","","","","","","","./tasks/HMM-beads/Images/NewTrialWC.png","practice","0","19","0","0","1","0","true","",""
"image-keyboard-response","71","186696","0.0-3.0-4.0-1.0-1.19","5a00a8160fff620001a6b776","666094c154fdc95dca3e206f","6660995a7e25aba66f99e207","null","","null","","","","","","","","./tasks/HMM-beads/Images/BlackBeadChoice.png","","","","","","","","","",""
"image-keyboard-response","72","187208","0.0-3.0-4.0-1.0-2.19","5a00a8160fff620001a6b776","666094c154fdc95dca3e206f","6660995a7e25aba66f99e207","null","","null","","","","","","","","./tasks/HMM-beads/Images/BlackBeadChoiceCorrect.png","","","","","","","","","",""
"image-keyboard-response","73","187850","0.0-3.0-4.0-1.0-0.20","5a00a8160fff620001a6b776","666094c154fdc95dca3e206f","6660995a7e25aba66f99e207","636","","f","","","","","","","","./tasks/HMM-beads/Images/NewTrialBC.png","practice","0","20","0","0","0","0","true","",""
"image-keyboard-response","74","188170","0.0-3.0-4.0-1.0-1.20","5a00a8160fff620001a6b776","666094c154fdc95dca3e206f","6660995a7e25aba66f99e207","null","","null","","","","","","","","./tasks/HMM-beads/Images/BlackBeadChoice.png","","","","","","","","","",""
"image-keyboard-response","75","188679","0.0-3.0-4.0-1.0-2.20","5a00a8160fff620001a6b776","666094c154fdc95dca3e206f","6660995a7e25aba66f99e207","null","","null","","","","","","","","./tasks/HMM-beads/Images/BlackBeadChoiceCorrect.png","","","","","","","","","",""
"image-keyboard-response","76","189266","0.0-3.0-4.0-1.0-0.21","5a00a8160fff620001a6b776","666094c154fdc95dca3e206f","6660995a7e25aba66f99e207","583","","f","","","","","","","","./tasks/HMM-beads/Images/NewTrialBC.png","practice","0","21","0","1","0","0","false","",""
"image-keyboard-response","77","189575","0.0-3.0-4.0-1.0-1.21","5a00a8160fff620001a6b776","666094c154fdc95dca3e206f","6660995a7e25aba66f99e207","null","","null","","","","","","","","./tasks/HMM-beads/Images/BlackBeadChoice.png","","","","","","","","","",""
"image-keyboard-response","78","190086","0.0-3.0-4.0-1.0-2.21","5a00a8160fff620001a6b776","666094c154fdc95dca3e206f","6660995a7e25aba66f99e207","null","","null","","","","","","","","./tasks/HMM-beads/Images/BlackBeadChoiceWrong.png","","","","","","","","","",""
"image-keyboard-response","79","190697","0.0-3.0-4.0-1.0-0.22","5a00a8160fff620001a6b776","666094c154fdc95dca3e206f","6660995a7e25aba66f99e207","609","","f","","","","","","","","./tasks/HMM-beads/Images/NewTrialWC.png","practice","0","22","1","1","1","0","false","",""
"image-keyboard-response","80","191001","0.0-3.0-4.0-1.0-1.22","5a00a8160fff620001a6b776","666094c154fdc95dca3e206f","6660995a7e25aba66f99e207","null","","null","","","","","","","","./tasks/HMM-beads/Images/BlackBeadChoice.png","","","","","","","","","",""
"image-keyboard-response","81","191513","0.0-3.0-4.0-1.0-2.22","5a00a8160fff620001a6b776","666094c154fdc95dca3e206f","6660995a7e25aba66f99e207","null","","null","","","","","","","","./tasks/HMM-beads/Images/BlackBeadChoiceWrong.png","","","","","","","","","",""
"image-keyboard-response","82","192180","0.0-3.0-4.0-1.0-0.23","5a00a8160fff620001a6b776","666094c154fdc95dca3e206f","6660995a7e25aba66f99e207","662","","f","","","","","","","","./tasks/HMM-beads/Images/NewTrialWC.png","practice","0","23","1","0","1","0","true","",""
"image-keyboard-response","83","192490","0.0-3.0-4.0-1.0-1.23","5a00a8160fff620001a6b776","666094c154fdc95dca3e206f","6660995a7e25aba66f99e207","null","","null","","","","","","","","./tasks/HMM-beads/Images/BlackBeadChoice.png","","","","","","","","","",""
"image-keyboard-response","84","193000","0.0-3.0-4.0-1.0-2.23","5a00a8160fff620001a6b776","666094c154fdc95dca3e206f","6660995a7e25aba66f99e207","null","","null","","","","","","","","./tasks/HMM-beads/Images/BlackBeadChoiceCorrect.png","","","","","","","","","",""
"image-keyboard-response","85","193628","0.0-3.0-4.0-1.0-0.24","5a00a8160fff620001a6b776","666094c154fdc95dca3e206f","6660995a7e25aba66f99e207","625","","f","","","","","","","","./tasks/HMM-beads/Images/NewTrialBC.png","practice","0","24","1","1","0","0","false","",""
"image-keyboard-response","86","193942","0.0-3.0-4.0-1.0-1.24","5a00a8160fff620001a6b776","666094c154fdc95dca3e206f","6660995a7e25aba66f99e207","null","","null","","","","","","","","./tasks/HMM-beads/Images/BlackBeadChoice.png","","","","","","","","","",""
"image-keyboard-response","87","194455","0.0-3.0-4.0-1.0-2.24","5a00a8160fff620001a6b776","666094c154fdc95dca3e206f","6660995a7e25aba66f99e207","null","","null","","","","","","","","./tasks/HMM-beads/Images/BlackBeadChoiceWrong.png","","","","","","","","","",""
"image-keyboard-response","88","195208","0.0-3.0-4.0-1.0-0.25","5a00a8160fff620001a6b776","666094c154fdc95dca3e206f","6660995a7e25aba66f99e207","751","","f","","","","","","","","./tasks/HMM-beads/Images/NewTrialWC.png","practice","0","25","1","1","1","0","false","",""
"image-keyboard-response","89","195526","0.0-3.0-4.0-1.0-1.25","5a00a8160fff620001a6b776","666094c154fdc95dca3e206f","6660995a7e25aba66f99e207","null","","null","","","","","","","","./tasks/HMM-beads/Images/BlackBeadChoice.png","","","","","","","","","",""
"image-keyboard-response","90","196035","0.0-3.0-4.0-1.0-2.25","5a00a8160fff620001a6b776","666094c154fdc95dca3e206f","6660995a7e25aba66f99e207","null","","null","","","","","","","","./tasks/HMM-beads/Images/BlackBeadChoiceWrong.png","","","","","","","","","",""
"image-keyboard-response","91","196383","0.0-3.0-4.0-1.0-0.26","5a00a8160fff620001a6b776","666094c154fdc95dca3e206f","6660995a7e25aba66f99e207","344","","j","","","","","","","","./tasks/HMM-beads/Images/NewTrialWC.png","practice","0","26","1","1","1","1","true","",""
"image-keyboard-response","92","196702","0.0-3.0-4.0-1.0-1.26","5a00a8160fff620001a6b776","666094c154fdc95dca3e206f","6660995a7e25aba66f99e207","null","","null","","","","","","","","./tasks/HMM-beads/Images/WhiteBeadChoice.png","","","","","","","","","",""
"image-keyboard-response","93","197227","0.0-3.0-4.0-1.0-2.26","5a00a8160fff620001a6b776","666094c154fdc95dca3e206f","6660995a7e25aba66f99e207","null","","null","","","","","","","","./tasks/HMM-beads/Images/WhiteBeadChoiceCorrect.png","","","","","","","","","",""
"image-keyboard-response","94","197953","0.0-3.0-4.0-1.0-0.27","5a00a8160fff620001a6b776","666094c154fdc95dca3e206f","6660995a7e25aba66f99e207","724","","j","","","","","","","","./tasks/HMM-beads/Images/NewTrialWC.png","practice","0","27","1","1","1","1","true","",""
"image-keyboard-response","95","198266","0.0-3.0-4.0-1.0-1.27","5a00a8160fff620001a6b776","666094c154fdc95dca3e206f","6660995a7e25aba66f99e207","null","","null","","","","","","","","./tasks/HMM-beads/Images/WhiteBeadChoice.png","","","","","","","","","",""
"image-keyboard-response","96","198781","0.0-3.0-4.0-1.0-2.27","5a00a8160fff620001a6b776","666094c154fdc95dca3e206f","6660995a7e25aba66f99e207","null","","null","","","","","","","","./tasks/HMM-beads/Images/WhiteBeadChoiceCorrect.png","","","","","","","","","",""
"image-keyboard-response","97","199506","0.0-3.0-4.0-1.0-0.28","5a00a8160fff620001a6b776","666094c154fdc95dca3e206f","6660995a7e25aba66f99e207","723","","j","","","","","","","","./tasks/HMM-beads/Images/NewTrialWC.png","practice","0","28","1","0","1","1","false","",""
"image-keyboard-response","98","199819","0.0-3.0-4.0-1.0-1.28","5a00a8160fff620001a6b776","666094c154fdc95dca3e206f","6660995a7e25aba66f99e207","null","","null","","","","","","","","./tasks/HMM-beads/Images/WhiteBeadChoice.png","","","","","","","","","",""
"image-keyboard-response","99","200345","0.0-3.0-4.0-1.0-2.28","5a00a8160fff620001a6b776","666094c154fdc95dca3e206f","6660995a7e25aba66f99e207","null","","null","","","","","","","","./tasks/HMM-beads/Images/WhiteBeadChoiceWrong.png","","","","","","","","","",""
"image-keyboard-response","100","201217","0.0-3.0-4.0-1.0-0.29","5a00a8160fff620001a6b776","666094c154fdc95dca3e206f","6660995a7e25aba66f99e207","868","","j","","","","","","","","./tasks/HMM-beads/Images/NewTrialBC.png","practice","0","29","1","1","0","1","true","",""
"image-keyboard-response","101","201525","0.0-3.0-4.0-1.0-1.29","5a00a8160fff620001a6b776","666094c154fdc95dca3e206f","6660995a7e25aba66f99e207","null","","null","","","","","","","","./tasks/HMM-beads/Images/WhiteBeadChoice.png","","","","","","","","","",""
"image-keyboard-response","102","202036","0.0-3.0-4.0-1.0-2.29","5a00a8160fff620001a6b776","666094c154fdc95dca3e206f","6660995a7e25aba66f99e207","null","","null","","","","","","","","./tasks/HMM-beads/Images/WhiteBeadChoiceCorrect.png","","","","","","","","","",""
"image-keyboard-response","103","202735","0.0-3.0-4.0-1.0-0.30","5a00a8160fff620001a6b776","666094c154fdc95dca3e206f","6660995a7e25aba66f99e207","696","","j","","","","","","","","./tasks/HMM-beads/Images/NewTrialWC.png","practice","0","30","1","0","1","1","false","",""
"image-keyboard-response","104","203044","0.0-3.0-4.0-1.0-1.30","5a00a8160fff620001a6b776","666094c154fdc95dca3e206f","6660995a7e25aba66f99e207","null","","null","","","","","","","","./tasks/HMM-beads/Images/WhiteBeadChoice.png","","","","","","","","","",""
"image-keyboard-response","105","203553","0.0-3.0-4.0-1.0-2.30","5a00a8160fff620001a6b776","666094c154fdc95dca3e206f","6660995a7e25aba66f99e207","null","","null","","","","","","","","./tasks/HMM-beads/Images/WhiteBeadChoiceWrong.png","","","","","","","","","",""
"image-keyboard-response","106","204269","0.0-3.0-4.0-1.0-0.31","5a00a8160fff620001a6b776","666094c154fdc95dca3e206f","6660995a7e25aba66f99e207","714","","j","","","","","","","","./tasks/HMM-beads/Images/NewTrialBC.png","practice","0","31","1","1","0","1","true","",""
"image-keyboard-response","107","204576","0.0-3.0-4.0-1.0-1.31","5a00a8160fff620001a6b776","666094c154fdc95dca3e206f","6660995a7e25aba66f99e207","null","","null","","","","","","","","./tasks/HMM-beads/Images/WhiteBeadChoice.png","","","","","","","","","",""
"image-keyboard-response","108","205088","0.0-3.0-4.0-1.0-2.31","5a00a8160fff620001a6b776","666094c154fdc95dca3e206f","6660995a7e25aba66f99e207","null","","null","","","","","","","","./tasks/HMM-beads/Images/WhiteBeadChoiceCorrect.png","","","","","","","","","",""
"image-keyboard-response","109","205848","0.0-3.0-4.0-1.0-0.32","5a00a8160fff620001a6b776","666094c154fdc95dca3e206f","6660995a7e25aba66f99e207","756","","j","","","","","","","","./tasks/HMM-beads/Images/NewTrialWC.png","practice","0","32","1","1","1","1","true","",""
"image-keyboard-response","110","206160","0.0-3.0-4.0-1.0-1.32","5a00a8160fff620001a6b776","666094c154fdc95dca3e206f","6660995a7e25aba66f99e207","null","","null","","","","","","","","./tasks/HMM-beads/Images/WhiteBeadChoice.png","","","","","","","","","",""
"image-keyboard-response","111","206673","0.0-3.0-4.0-1.0-2.32","5a00a8160fff620001a6b776","666094c154fdc95dca3e206f","6660995a7e25aba66f99e207","null","","null","","","","","","","","./tasks/HMM-beads/Images/WhiteBeadChoiceCorrect.png","","","","","","","","","",""
"image-keyboard-response","112","207382","0.0-3.0-4.0-1.0-0.33","5a00a8160fff620001a6b776","666094c154fdc95dca3e206f","6660995a7e25aba66f99e207","707","","j","","","","","","","","./tasks/HMM-beads/Images/NewTrialWC.png","practice","0","33","1","1","1","1","true","",""
"image-keyboard-response","113","207695","0.0-3.0-4.0-1.0-1.33","5a00a8160fff620001a6b776","666094c154fdc95dca3e206f","6660995a7e25aba66f99e207","null","","null","","","","","","","","./tasks/HMM-beads/Images/WhiteBeadChoice.png","","","","","","","","","",""
"image-keyboard-response","114","208205","0.0-3.0-4.0-1.0-2.33","5a00a8160fff620001a6b776","666094c154fdc95dca3e206f","6660995a7e25aba66f99e207","null","","null","","","","","","","","./tasks/HMM-beads/Images/WhiteBeadChoiceCorrect.png","","","","","","","","","",""
"image-keyboard-response","115","208809","0.0-3.0-4.0-1.0-0.34","5a00a8160fff620001a6b776","666094c154fdc95dca3e206f","6660995a7e25aba66f99e207","600","","j","","","","","","","","./tasks/HMM-beads/Images/NewTrialWC.png","practice","0","34","1","1","1","1","true","",""
"image-keyboard-response","116","209122","0.0-3.0-4.0-1.0-1.34","5a00a8160fff620001a6b776","666094c154fdc95dca3e206f","6660995a7e25aba66f99e207","null","","null","","","","","","","","./tasks/HMM-beads/Images/WhiteBeadChoice.png","","","","","","","","","",""
"image-keyboard-response","117","209632","0.0-3.0-4.0-1.0-2.34","5a00a8160fff620001a6b776","666094c154fdc95dca3e206f","6660995a7e25aba66f99e207","null","","null","","","","","","","","./tasks/HMM-beads/Images/WhiteBeadChoiceCorrect.png","","","","","","","","","",""
"image-keyboard-response","118","210180","0.0-3.0-4.0-1.0-0.35","5a00a8160fff620001a6b776","666094c154fdc95dca3e206f","6660995a7e25aba66f99e207","545","","j","","","","","","","","./tasks/HMM-beads/Images/NewTrialWC.png","practice","0","35","1","1","1","1","true","",""
"image-keyboard-response","119","210486","0.0-3.0-4.0-1.0-1.35","5a00a8160fff620001a6b776","666094c154fdc95dca3e206f","6660995a7e25aba66f99e207","null","","null","","","","","","","","./tasks/HMM-beads/Images/WhiteBeadChoice.png","","","","","","","","","",""
"image-keyboard-response","120","210998","0.0-3.0-4.0-1.0-2.35","5a00a8160fff620001a6b776","666094c154fdc95dca3e206f","6660995a7e25aba66f99e207","null","","null","","","","","","","","./tasks/HMM-beads/Images/WhiteBeadChoiceCorrect.png","","","","","","","","","",""
"image-keyboard-response","121","211612","0.0-3.0-4.0-1.0-0.36","5a00a8160fff620001a6b776","666094c154fdc95dca3e206f","6660995a7e25aba66f99e207","609","","j","","","","","","","","./tasks/HMM-beads/Images/NewTrialWC.png","practice","0","36","1","0","1","1","false","",""
"image-keyboard-response","122","211928","0.0-3.0-4.0-1.0-1.36","5a00a8160fff620001a6b776","666094c154fdc95dca3e206f","6660995a7e25aba66f99e207","null","","null","","","","","","","","./tasks/HMM-beads/Images/WhiteBeadChoice.png","","","","","","","","","",""
"image-keyboard-response","123","212440","0.0-3.0-4.0-1.0-2.36","5a00a8160fff620001a6b776","666094c154fdc95dca3e206f","6660995a7e25aba66f99e207","null","","null","","","","","","","","./tasks/HMM-beads/Images/WhiteBeadChoiceWrong.png","","","","","","","","","",""
"image-keyboard-response","124","213093","0.0-3.0-4.0-1.0-0.37","5a00a8160fff620001a6b776","666094c154fdc95dca3e206f","6660995a7e25aba66f99e207","649","","j","","","","","","","","./tasks/HMM-beads/Images/NewTrialBC.png","practice","0","37","1","1","0","1","true","",""
"image-keyboard-response","125","213398","0.0-3.0-4.0-1.0-1.37","5a00a8160fff620001a6b776","666094c154fdc95dca3e206f","6660995a7e25aba66f99e207","null","","null","","","","","","","","./tasks/HMM-beads/Images/WhiteBeadChoice.png","","","","","","","","","",""
"image-keyboard-response","126","213910","0.0-3.0-4.0-1.0-2.37","5a00a8160fff620001a6b776","666094c154fdc95dca3e206f","6660995a7e25aba66f99e207","null","","null","","","","","","","","./tasks/HMM-beads/Images/WhiteBeadChoiceCorrect.png","","","","","","","","","",""
"image-keyboard-response","127","214460","0.0-3.0-4.0-1.0-0.38","5a00a8160fff620001a6b776","666094c154fdc95dca3e206f","6660995a7e25aba66f99e207","548","","j","","","","","","","","./tasks/HMM-beads/Images/NewTrialWC.png","practice","0","38","1","1","1","1","true","",""
"image-keyboard-response","128","214772","0.0-3.0-4.0-1.0-1.38","5a00a8160fff620001a6b776","666094c154fdc95dca3e206f","6660995a7e25aba66f99e207","null","","null","","","","","","","","./tasks/HMM-beads/Images/WhiteBeadChoice.png","","","","","","","","","",""
"image-keyboard-response","129","215280","0.0-3.0-4.0-1.0-2.38","5a00a8160fff620001a6b776","666094c154fdc95dca3e206f","6660995a7e25aba66f99e207","null","","null","","","","","","","","./tasks/HMM-beads/Images/WhiteBeadChoiceCorrect.png","","","","","","","","","",""
"image-keyboard-response","130","215906","0.0-3.0-4.0-1.0-0.39","5a00a8160fff620001a6b776","666094c154fdc95dca3e206f","6660995a7e25aba66f99e207","624","","j","","","","","","","","./tasks/HMM-beads/Images/NewTrialWC.png","practice","0","39","1","1","1","1","true","",""
"image-keyboard-response","131","216225","0.0-3.0-4.0-1.0-1.39","5a00a8160fff620001a6b776","666094c154fdc95dca3e206f","6660995a7e25aba66f99e207","null","","null","","","","","","","","./tasks/HMM-beads/Images/WhiteBeadChoice.png","","","","","","","","","",""
"image-keyboard-response","132","216736","0.0-3.0-4.0-1.0-2.39","5a00a8160fff620001a6b776","666094c154fdc95dca3e206f","6660995a7e25aba66f99e207","null","","null","","","","","","","","./tasks/HMM-beads/Images/WhiteBeadChoiceCorrect.png","","","","","","","","","",""
"html-keyboard-response","133","218813","0.0-3.0-4.0-2.0","5a00a8160fff620001a6b776","666094c154fdc95dca3e206f","6660995a7e25aba66f99e207","2074",""," ","","","","","","","","","","","","","","","","","",""
"instructions","134","227664","0.0-3.0-5.0","5a00a8160fff620001a6b776","666094c154fdc95dca3e206f","6660995a7e25aba66f99e207","8850","","","","[{""page_index"":0,""viewing_time"":6633},{""page_index"":1,""viewing_time"":2217}]","","","","","","","","","","","","","","","",""
"html-keyboard-response","135","231285","0.0-3.0-6.0-0.0","5a00a8160fff620001a6b776","666094c154fdc95dca3e206f","6660995a7e25aba66f99e207","3620",""," ","","","","","","","","<div align=center>In this block, there will be a <b>1% chance</b> that the jar on the next trial will be different from the jar on the current trial.<br><br></div>","","","","","","","","","",""
"image-keyboard-response","136","231858","0.0-3.0-6.0-1.0-0.0","5a00a8160fff620001a6b776","666094c154fdc95dca3e206f","6660995a7e25aba66f99e207","569","","f","","","","","","","","./tasks/HMM-beads/Images/NoChoice.png","lowH","1","0","1","0","9","0","true","",""
"image-keyboard-response","137","232165","0.0-3.0-6.0-1.0-1.0","5a00a8160fff620001a6b776","666094c154fdc95dca3e206f","6660995a7e25aba66f99e207","null","","null","","","","","","","","./tasks/HMM-beads/Images/BlackBeadChoice.png","","","","","","","","","",""
"image-keyboard-response","138","232674","0.0-3.0-6.0-1.0-2.0","5a00a8160fff620001a6b776","666094c154fdc95dca3e206f","6660995a7e25aba66f99e207","null","","null","","","","","","","","./tasks/HMM-beads/Images/BlackBeadChoiceCorrect.png","","","","","","","","","",""
"image-keyboard-response","139","233110","0.0-3.0-6.0-1.0-0.1","5a00a8160fff620001a6b776","666094c154fdc95dca3e206f","6660995a7e25aba66f99e207","434","","f","","","","","","","","./tasks/HMM-beads/Images/NewTrialBC.png","lowH","1","1","1","1","0","0","false","",""
"image-keyboard-response","140","233418","0.0-3.0-6.0-1.0-1.1","5a00a8160fff620001a6b776","666094c154fdc95dca3e206f","6660995a7e25aba66f99e207","null","","null","","","","","","","","./tasks/HMM-beads/Images/BlackBeadChoice.png","","","","","","","","","",""
"image-keyboard-response","141","233928","0.0-3.0-6.0-1.0-2.1","5a00a8160fff620001a6b776","666094c154fdc95dca3e206f","6660995a7e25aba66f99e207","null","","null","","","","","","","","./tasks/HMM-beads/Images/BlackBeadChoiceWrong.png","","","","","","","","","",""
"image-keyboard-response","142","234679","0.0-3.0-6.0-1.0-0.2","5a00a8160fff620001a6b776","666094c154fdc95dca3e206f","6660995a7e25aba66f99e207","749","","f","","","","","","","","./tasks/HMM-beads/Images/NewTrialWC.png","lowH","1","2","1","1","1","0","false","",""
"image-keyboard-response","143","234997","0.0-3.0-6.0-1.0-1.2","5a00a8160fff620001a6b776","666094c154fdc95dca3e206f","6660995a7e25aba66f99e207","null","","null","","","","","","","","./tasks/HMM-beads/Images/BlackBeadChoice.png","","","","","","","","","",""
"image-keyboard-response","144","235506","0.0-3.0-6.0-1.0-2.2","5a00a8160fff620001a6b776","666094c154fdc95dca3e206f","6660995a7e25aba66f99e207","null","","null","","","","","","","","./tasks/HMM-beads/Images/BlackBeadChoiceWrong.png","","","","","","","","","",""
"image-keyboard-response","145","236268","0.0-3.0-6.0-1.0-0.3","5a00a8160fff620001a6b776","666094c154fdc95dca3e206f","6660995a7e25aba66f99e207","761","","f","","","","","","","","./tasks/HMM-beads/Images/NewTrialWC.png","lowH","1","3","1","1","1","0","false","",""
"image-keyboard-response","146","236577","0.0-3.0-6.0-1.0-1.3","5a00a8160fff620001a6b776","666094c154fdc95dca3e206f","6660995a7e25aba66f99e207","null","","null","","","","","","","","./tasks/HMM-beads/Images/BlackBeadChoice.png","","","","","","","","","",""
"image-keyboard-response","147","237089","0.0-3.0-6.0-1.0-2.3","5a00a8160fff620001a6b776","666094c154fdc95dca3e206f","6660995a7e25aba66f99e207","null","","null","","","","","","","","./tasks/HMM-beads/Images/BlackBeadChoiceWrong.png","","","","","","","","","",""
"image-keyboard-response","148","237747","0.0-3.0-6.0-1.0-0.4","5a00a8160fff620001a6b776","666094c154fdc95dca3e206f","6660995a7e25aba66f99e207","656","","j","","","","","","","","./tasks/HMM-beads/Images/NewTrialWC.png","lowH","1","4","1","1","1","1","true","",""
"image-keyboard-response","149","238048","0.0-3.0-6.0-1.0-1.4","5a00a8160fff620001a6b776","666094c154fdc95dca3e206f","6660995a7e25aba66f99e207","null","","null","","","","","","","","./tasks/HMM-beads/Images/WhiteBeadChoice.png","","","","","","","","","",""
"image-keyboard-response","150","238561","0.0-3.0-6.0-1.0-2.4","5a00a8160fff620001a6b776","666094c154fdc95dca3e206f","6660995a7e25aba66f99e207","null","","null","","","","","","","","./tasks/HMM-beads/Images/WhiteBeadChoiceCorrect.png","","","","","","","","","",""
"image-keyboard-response","151","239111","0.0-3.0-6.0-1.0-0.5","5a00a8160fff620001a6b776","666094c154fdc95dca3e206f","6660995a7e25aba66f99e207","546","","j","","","","","","","","./tasks/HMM-beads/Images/NewTrialWC.png","lowH","1","5","1","1","1","1","true","",""
"image-keyboard-response","152","239417","0.0-3.0-6.0-1.0-1.5","5a00a8160fff620001a6b776","666094c154fdc95dca3e206f","6660995a7e25aba66f99e207","null","","null","","","","","","","","./tasks/HMM-beads/Images/WhiteBeadChoice.png","","","","","","","","","",""
"image-keyboard-response","153","239930","0.0-3.0-6.0-1.0-2.5","5a00a8160fff620001a6b776","666094c154fdc95dca3e206f","6660995a7e25aba66f99e207","null","","null","","","","","","","","./tasks/HMM-beads/Images/WhiteBeadChoiceCorrect.png","","","","","","","","","",""
"image-keyboard-response","154","240557","0.0-3.0-6.0-1.0-0.6","5a00a8160fff620001a6b776","666094c154fdc95dca3e206f","6660995a7e25aba66f99e207","623","","j","","","","","","","","./tasks/HMM-beads/Images/NewTrialWC.png","lowH","1","6","1","0","1","1","false","",""
"image-keyboard-response","155","240874","0.0-3.0-6.0-1.0-1.6","5a00a8160fff620001a6b776","666094c154fdc95dca3e206f","6660995a7e25aba66f99e207","null","","null","","","","","","","","./tasks/HMM-beads/Images/WhiteBeadChoice.png","","","","","","","","","",""
"image-keyboard-response","156","241384","0.0-3.0-6.0-1.0-2.6","5a00a8160fff620001a6b776","666094c154fdc95dca3e206f","6660995a7e25aba66f99e207","null","","null","","","","","","","","./tasks/HMM-beads/Images/WhiteBeadChoiceWrong.png","","","","","","","","","",""
"image-keyboard-response","157","241883","0.0-3.0-6.0-1.0-0.7","5a00a8160fff620001a6b776","666094c154fdc95dca3e206f","6660995a7e25aba66f99e207","498","","j","","","","","","","","./tasks/HMM-beads/Images/NewTrialBC.png","lowH","1","7","1","1","0","1","true","",""
"image-keyboard-response","158","242190","0.0-3.0-6.0-1.0-1.7","5a00a8160fff620001a6b776","666094c154fdc95dca3e206f","6660995a7e25aba66f99e207","null","","null","","","","","","","","./tasks/HMM-beads/Images/WhiteBeadChoice.png","","","","","","","","","",""
"image-keyboard-response","159","242702","0.0-3.0-6.0-1.0-2.7","5a00a8160fff620001a6b776","666094c154fdc95dca3e206f","6660995a7e25aba66f99e207","null","","null","","","","","","","","./tasks/HMM-beads/Images/WhiteBeadChoiceCorrect.png","","","","","","","","","",""
"image-keyboard-response","160","243202","0.0-3.0-6.0-1.0-0.8","5a00a8160fff620001a6b776","666094c154fdc95dca3e206f","6660995a7e25aba66f99e207","498","","j","","","","","","","","./tasks/HMM-beads/Images/NewTrialWC.png","lowH","1","8","1","1","1","1","true","",""
"image-keyboard-response","161","243508","0.0-3.0-6.0-1.0-1.8","5a00a8160fff620001a6b776","666094c154fdc95dca3e206f","6660995a7e25aba66f99e207","null","","null","","","","","","","","./tasks/HMM-beads/Images/WhiteBeadChoice.png","","","","","","","","","",""
"image-keyboard-response","162","244021","0.0-3.0-6.0-1.0-2.8","5a00a8160fff620001a6b776","666094c154fdc95dca3e206f","6660995a7e25aba66f99e207","null","","null","","","","","","","","./tasks/HMM-beads/Images/WhiteBeadChoiceCorrect.png","","","","","","","","","",""
"image-keyboard-response","163","244505","0.0-3.0-6.0-1.0-0.9","5a00a8160fff620001a6b776","666094c154fdc95dca3e206f","6660995a7e25aba66f99e207","482","","j","","","","","","","","./tasks/HMM-beads/Images/NewTrialWC.png","lowH","1","9","1","1","1","1","true","",""
"image-keyboard-response","164","244813","0.0-3.0-6.0-1.0-1.9","5a00a8160fff620001a6b776","666094c154fdc95dca3e206f","6660995a7e25aba66f99e207","null","","null","","","","","","","","./tasks/HMM-beads/Images/WhiteBeadChoice.png","","","","","","","","","",""
"image-keyboard-response","165","245326","0.0-3.0-6.0-1.0-2.9","5a00a8160fff620001a6b776","666094c154fdc95dca3e206f","6660995a7e25aba66f99e207","null","","null","","","","","","","","./tasks/HMM-beads/Images/WhiteBeadChoiceCorrect.png","","","","","","","","","",""
"image-keyboard-response","166","245830","0.0-3.0-6.0-1.0-0.10","5a00a8160fff620001a6b776","666094c154fdc95dca3e206f","6660995a7e25aba66f99e207","501","","j","","","","","","","","./tasks/HMM-beads/Images/NewTrialWC.png","lowH","1","10","1","1","1","1","true","",""
"image-keyboard-response","167","246147","0.0-3.0-6.0-1.0-1.10","5a00a8160fff620001a6b776","666094c154fdc95dca3e206f","6660995a7e25aba66f99e207","null","","null","","","","","","","","./tasks/HMM-beads/Images/WhiteBeadChoice.png","","","","","","","","","",""
"image-keyboard-response","168","246658","0.0-3.0-6.0-1.0-2.10","5a00a8160fff620001a6b776","666094c154fdc95dca3e206f","6660995a7e25aba66f99e207","null","","null","","","","","","","","./tasks/HMM-beads/Images/WhiteBeadChoiceCorrect.png","","","","","","","","","",""
"image-keyboard-response","169","246992","0.0-3.0-6.0-1.0-0.11","5a00a8160fff620001a6b776","666094c154fdc95dca3e206f","6660995a7e25aba66f99e207","331","","j","","","","","","","","./tasks/HMM-beads/Images/NewTrialWC.png","lowH","1","11","1","1","1","1","true","",""
"image-keyboard-response","170","247308","0.0-3.0-6.0-1.0-1.11","5a00a8160fff620001a6b776","666094c154fdc95dca3e206f","6660995a7e25aba66f99e207","null","","null","","","","","","","","./tasks/HMM-beads/Images/WhiteBeadChoice.png","","","","","","","","","",""
"image-keyboard-response","171","247819","0.0-3.0-6.0-1.0-2.11","5a00a8160fff620001a6b776","666094c154fdc95dca3e206f","6660995a7e25aba66f99e207","null","","null","","","","","","","","./tasks/HMM-beads/Images/WhiteBeadChoiceCorrect.png","","","","","","","","","",""
"image-keyboard-response","172","248218","0.0-3.0-6.0-1.0-0.12","5a00a8160fff620001a6b776","666094c154fdc95dca3e206f","6660995a7e25aba66f99e207","396","","j","","","","","","","","./tasks/HMM-beads/Images/NewTrialWC.png","lowH","1","12","1","1","1","1","true","",""
"image-keyboard-response","173","248529","0.0-3.0-6.0-1.0-1.12","5a00a8160fff620001a6b776","666094c154fdc95dca3e206f","6660995a7e25aba66f99e207","null","","null","","","","","","","","./tasks/HMM-beads/Images/WhiteBeadChoice.png","","","","","","","","","",""
"image-keyboard-response","174","249042","0.0-3.0-6.0-1.0-2.12","5a00a8160fff620001a6b776","666094c154fdc95dca3e206f","6660995a7e25aba66f99e207","null","","null","","","","","","","","./tasks/HMM-beads/Images/WhiteBeadChoiceCorrect.png","","","","","","","","","",""
"image-keyboard-response","175","249420","0.0-3.0-6.0-1.0-0.13","5a00a8160fff620001a6b776","666094c154fdc95dca3e206f","6660995a7e25aba66f99e207","376","","j","","","","","","","","./tasks/HMM-beads/Images/NewTrialWC.png","lowH","1","13","1","0","1","1","false","",""
"image-keyboard-response","176","249723","0.0-3.0-6.0-1.0-1.13","5a00a8160fff620001a6b776","666094c154fdc95dca3e206f","6660995a7e25aba66f99e207","null","","null","","","","","","","","./tasks/HMM-beads/Images/WhiteBeadChoice.png","","","","","","","","","",""
"image-keyboard-response","177","250235","0.0-3.0-6.0-1.0-2.13","5a00a8160fff620001a6b776","666094c154fdc95dca3e206f","6660995a7e25aba66f99e207","null","","null","","","","","","","","./tasks/HMM-beads/Images/WhiteBeadChoiceWrong.png","","","","","","","","","",""
"image-keyboard-response","178","250703","0.0-3.0-6.0-1.0-0.14","5a00a8160fff620001a6b776","666094c154fdc95dca3e206f","6660995a7e25aba66f99e207","466","","j","","","","","","","","./tasks/HMM-beads/Images/NewTrialBC.png","lowH","1","14","1","0","0","1","false","",""
"image-keyboard-response","179","251006","0.0-3.0-6.0-1.0-1.14","5a00a8160fff620001a6b776","666094c154fdc95dca3e206f","6660995a7e25aba66f99e207","null","","null","","","","","","","","./tasks/HMM-beads/Images/WhiteBeadChoice.png","","","","","","","","","",""
"image-keyboard-response","180","251518","0.0-3.0-6.0-1.0-2.14","5a00a8160fff620001a6b776","666094c154fdc95dca3e206f","6660995a7e25aba66f99e207","null","","null","","","","","","","","./tasks/HMM-beads/Images/WhiteBeadChoiceWrong.png","","","","","","","","","",""
"image-keyboard-response","181","252117","0.0-3.0-6.0-1.0-0.15","5a00a8160fff620001a6b776","666094c154fdc95dca3e206f","6660995a7e25aba66f99e207","596","","j","","","","","","","","./tasks/HMM-beads/Images/NewTrialBC.png","lowH","1","15","1","1","0","1","true","",""
"image-keyboard-response","182","252431","0.0-3.0-6.0-1.0-1.15","5a00a8160fff620001a6b776","666094c154fdc95dca3e206f","6660995a7e25aba66f99e207","null","","null","","","","","","","","./tasks/HMM-beads/Images/WhiteBeadChoice.png","","","","","","","","","",""
"image-keyboard-response","183","252942","0.0-3.0-6.0-1.0-2.15","5a00a8160fff620001a6b776","666094c154fdc95dca3e206f","6660995a7e25aba66f99e207","null","","null","","","","","","","","./tasks/HMM-beads/Images/WhiteBeadChoiceCorrect.png","","","","","","","","","",""
"image-keyboard-response","184","253485","0.0-3.0-6.0-1.0-0.16","5a00a8160fff620001a6b776","666094c154fdc95dca3e206f","6660995a7e25aba66f99e207","543","","j","","","","","","","","./tasks/HMM-beads/Images/NewTrialWC.png","lowH","1","16","1","1","1","1","true","",""
"image-keyboard-response","185","253797","0.0-3.0-6.0-1.0-1.16","5a00a8160fff620001a6b776","666094c154fdc95dca3e206f","6660995a7e25aba66f99e207","null","","null","","","","","","","","./tasks/HMM-beads/Images/WhiteBeadChoice.png","","","","","","","","","",""
"image-keyboard-response","186","254308","0.0-3.0-6.0-1.0-2.16","5a00a8160fff620001a6b776","666094c154fdc95dca3e206f","6660995a7e25aba66f99e207","null","","null","","","","","","","","./tasks/HMM-beads/Images/WhiteBeadChoiceCorrect.png","","","","","","","","","",""
"image-keyboard-response","187","254903","0.0-3.0-6.0-1.0-0.17","5a00a8160fff620001a6b776","666094c154fdc95dca3e206f","6660995a7e25aba66f99e207","590","","j","","","","","","","","./tasks/HMM-beads/Images/NewTrialWC.png","lowH","1","17","1","1","1","1","true","",""
"image-keyboard-response","188","255211","0.0-3.0-6.0-1.0-1.17","5a00a8160fff620001a6b776","666094c154fdc95dca3e206f","6660995a7e25aba66f99e207","null","","null","","","","","","","","./tasks/HMM-beads/Images/WhiteBeadChoice.png","","","","","","","","","",""
"image-keyboard-response","189","255721","0.0-3.0-6.0-1.0-2.17","5a00a8160fff620001a6b776","666094c154fdc95dca3e206f","6660995a7e25aba66f99e207","null","","null","","","","","","","","./tasks/HMM-beads/Images/WhiteBeadChoiceCorrect.png","","","","","","","","","",""
"image-keyboard-response","190","256499","0.0-3.0-6.0-1.0-0.18","5a00a8160fff620001a6b776","666094c154fdc95dca3e206f","6660995a7e25aba66f99e207","775","","j","","","","","","","","./tasks/HMM-beads/Images/NewTrialWC.png","lowH","1","18","1","1","1","1","true","",""
"image-keyboard-response","191","256805","0.0-3.0-6.0-1.0-1.18","5a00a8160fff620001a6b776","666094c154fdc95dca3e206f","6660995a7e25aba66f99e207","null","","null","","","","","","","","./tasks/HMM-beads/Images/WhiteBeadChoice.png","","","","","","","","","",""
"image-keyboard-response","192","257319","0.0-3.0-6.0-1.0-2.18","5a00a8160fff620001a6b776","666094c154fdc95dca3e206f","6660995a7e25aba66f99e207","null","","null","","","","","","","","./tasks/HMM-beads/Images/WhiteBeadChoiceCorrect.png","","","","","","","","","",""
"image-keyboard-response","193","257860","0.0-3.0-6.0-1.0-0.19","5a00a8160fff620001a6b776","666094c154fdc95dca3e206f","6660995a7e25aba66f99e207","534","","j","","","","","","","","./tasks/HMM-beads/Images/NewTrialWC.png","lowH","1","19","1","1","1","1","true","",""
"image-keyboard-response","194","258170","0.0-3.0-6.0-1.0-1.19","5a00a8160fff620001a6b776","666094c154fdc95dca3e206f","6660995a7e25aba66f99e207","null","","null","","","","","","","","./tasks/HMM-beads/Images/WhiteBeadChoice.png","","","","","","","","","",""
"image-keyboard-response","195","258680","0.0-3.0-6.0-1.0-2.19","5a00a8160fff620001a6b776","666094c154fdc95dca3e206f","6660995a7e25aba66f99e207","null","","null","","","","","","","","./tasks/HMM-beads/Images/WhiteBeadChoiceCorrect.png","","","","","","","","","",""
"image-keyboard-response","196","259131","0.0-3.0-6.0-1.0-0.20","5a00a8160fff620001a6b776","666094c154fdc95dca3e206f","6660995a7e25aba66f99e207","448","","j","","","","","","","","./tasks/HMM-beads/Images/NewTrialWC.png","lowH","1","20","1","1","1","1","true","",""
"image-keyboard-response","197","259440","0.0-3.0-6.0-1.0-1.20","5a00a8160fff620001a6b776","666094c154fdc95dca3e206f","6660995a7e25aba66f99e207","null","","null","","","","","","","","./tasks/HMM-beads/Images/WhiteBeadChoice.png","","","","","","","","","",""
"image-keyboard-response","198","259950","0.0-3.0-6.0-1.0-2.20","5a00a8160fff620001a6b776","666094c154fdc95dca3e206f","6660995a7e25aba66f99e207","null","","null","","","","","","","","./tasks/HMM-beads/Images/WhiteBeadChoiceCorrect.png","","","","","","","","","",""
"image-keyboard-response","199","260437","0.0-3.0-6.0-1.0-0.21","5a00a8160fff620001a6b776","666094c154fdc95dca3e206f","6660995a7e25aba66f99e207","484","","j","","","","","","","","./tasks/HMM-beads/Images/NewTrialWC.png","lowH","1","21","1","1","1","1","true","",""
"image-keyboard-response","200","260741","0.0-3.0-6.0-1.0-1.21","5a00a8160fff620001a6b776","666094c154fdc95dca3e206f","6660995a7e25aba66f99e207","null","","null","","","","","","","","./tasks/HMM-beads/Images/WhiteBeadChoice.png","","","","","","","","","",""
"image-keyboard-response","201","261254","0.0-3.0-6.0-1.0-2.21","5a00a8160fff620001a6b776","666094c154fdc95dca3e206f","6660995a7e25aba66f99e207","null","","null","","","","","","","","./tasks/HMM-beads/Images/WhiteBeadChoiceCorrect.png","","","","","","","","","",""
"image-keyboard-response","202","261746","0.0-3.0-6.0-1.0-0.22","5a00a8160fff620001a6b776","666094c154fdc95dca3e206f","6660995a7e25aba66f99e207","487","","j","","","","","","","","./tasks/HMM-beads/Images/NewTrialWC.png","lowH","1","22","1","1","1","1","true","",""
"image-keyboard-response","203","262058","0.0-3.0-6.0-1.0-1.22","5a00a8160fff620001a6b776","666094c154fdc95dca3e206f","6660995a7e25aba66f99e207","null","","null","","","","","","","","./tasks/HMM-beads/Images/WhiteBeadChoice.png","","","","","","","","","",""
"image-keyboard-response","204","262570","0.0-3.0-6.0-1.0-2.22","5a00a8160fff620001a6b776","666094c154fdc95dca3e206f","6660995a7e25aba66f99e207","null","","null","","","","","","","","./tasks/HMM-beads/Images/WhiteBeadChoiceCorrect.png","","","","","","","","","",""
"image-keyboard-response","205","263124","0.0-3.0-6.0-1.0-0.23","5a00a8160fff620001a6b776","666094c154fdc95dca3e206f","6660995a7e25aba66f99e207","551","","j","","","","","","","","./tasks/HMM-beads/Images/NewTrialWC.png","lowH","1","23","1","1","1","1","true","",""
"image-keyboard-response","206","263428","0.0-3.0-6.0-1.0-1.23","5a00a8160fff620001a6b776","666094c154fdc95dca3e206f","6660995a7e25aba66f99e207","null","","null","","","","","","","","./tasks/HMM-beads/Images/WhiteBeadChoice.png","","","","","","","","","",""
"image-keyboard-response","207","263939","0.0-3.0-6.0-1.0-2.23","5a00a8160fff620001a6b776","666094c154fdc95dca3e206f","6660995a7e25aba66f99e207","null","","null","","","","","","","","./tasks/HMM-beads/Images/WhiteBeadChoiceCorrect.png","","","","","","","","","",""
"image-keyboard-response","208","264464","0.0-3.0-6.0-1.0-0.24","5a00a8160fff620001a6b776","666094c154fdc95dca3e206f","6660995a7e25aba66f99e207","523","","j","","","","","","","","./tasks/HMM-beads/Images/NewTrialWC.png","lowH","1","24","1","0","1","1","false","",""
"image-keyboard-response","209","264774","0.0-3.0-6.0-1.0-1.24","5a00a8160fff620001a6b776","666094c154fdc95dca3e206f","6660995a7e25aba66f99e207","null","","null","","","","","","","","./tasks/HMM-beads/Images/WhiteBeadChoice.png","","","","","","","","","",""
"image-keyboard-response","210","265285","0.0-3.0-6.0-1.0-2.24","5a00a8160fff620001a6b776","666094c154fdc95dca3e206f","6660995a7e25aba66f99e207","null","","null","","","","","","","","./tasks/HMM-beads/Images/WhiteBeadChoiceWrong.png","","","","","","","","","",""
"image-keyboard-response","211","265696","0.0-3.0-6.0-1.0-0.25","5a00a8160fff620001a6b776","666094c154fdc95dca3e206f","6660995a7e25aba66f99e207","409","","j","","","","","","","","./tasks/HMM-beads/Images/NewTrialBC.png","lowH","1","25","1","1","0","1","true","",""
"image-keyboard-response","212","266013","0.0-3.0-6.0-1.0-1.25","5a00a8160fff620001a6b776","666094c154fdc95dca3e206f","6660995a7e25aba66f99e207","null","","null","","","","","","","","./tasks/HMM-beads/Images/WhiteBeadChoice.png","","","","","","","","","",""
"image-keyboard-response","213","266538","0.0-3.0-6.0-1.0-2.25","5a00a8160fff620001a6b776","666094c154fdc95dca3e206f","6660995a7e25aba66f99e207","null","","null","","","","","","","","./tasks/HMM-beads/Images/WhiteBeadChoiceCorrect.png","","","","","","","","","",""
"image-keyboard-response","214","267054","0.0-3.0-6.0-1.0-0.26","5a00a8160fff620001a6b776","666094c154fdc95dca3e206f","6660995a7e25aba66f99e207","514","","j","","","","","","","","./tasks/HMM-beads/Images/NewTrialWC.png","lowH","1","26","1","0","1","1","false","",""
"image-keyboard-response","215","267370","0.0-3.0-6.0-1.0-1.26","5a00a8160fff620001a6b776","666094c154fdc95dca3e206f","6660995a7e25aba66f99e207","null","","null","","","","","","","","./tasks/HMM-beads/Images/WhiteBeadChoice.png","","","","","","","","","",""
"image-keyboard-response","216","267884","0.0-3.0-6.0-1.0-2.26","5a00a8160fff620001a6b776","666094c154fdc95dca3e206f","6660995a7e25aba66f99e207","null","","null","","","","","","","","./tasks/HMM-beads/Images/WhiteBeadChoiceWrong.png","","","","","","","","","",""
"image-keyboard-response","217","268504","0.0-3.0-6.0-1.0-0.27","5a00a8160fff620001a6b776","666094c154fdc95dca3e206f","6660995a7e25aba66f99e207","618","","j","","","","","","","","./tasks/HMM-beads/Images/NewTrialBC.png","lowH","1","27","1","1","0","1","true","",""
"image-keyboard-response","218","268809","0.0-3.0-6.0-1.0-1.27","5a00a8160fff620001a6b776","666094c154fdc95dca3e206f","6660995a7e25aba66f99e207","null","","null","","","","","","","","./tasks/HMM-beads/Images/WhiteBeadChoice.png","","","","","","","","","",""
"image-keyboard-response","219","269321","0.0-3.0-6.0-1.0-2.27","5a00a8160fff620001a6b776","666094c154fdc95dca3e206f","6660995a7e25aba66f99e207","null","","null","","","","","","","","./tasks/HMM-beads/Images/WhiteBeadChoiceCorrect.png","","","","","","","","","",""
"image-keyboard-response","220","270093","0.0-3.0-6.0-1.0-0.28","5a00a8160fff620001a6b776","666094c154fdc95dca3e206f","6660995a7e25aba66f99e207","770","","j","","","","","","","","./tasks/HMM-beads/Images/NewTrialWC.png","lowH","1","28","1","1","1","1","true","",""
"image-keyboard-response","221","270408","0.0-3.0-6.0-1.0-1.28","5a00a8160fff620001a6b776","666094c154fdc95dca3e206f","6660995a7e25aba66f99e207","null","","null","","","","","","","","./tasks/HMM-beads/Images/WhiteBeadChoice.png","","","","","","","","","",""
"image-keyboard-response","222","270919","0.0-3.0-6.0-1.0-2.28","5a00a8160fff620001a6b776","666094c154fdc95dca3e206f","6660995a7e25aba66f99e207","null","","null","","","","","","","","./tasks/HMM-beads/Images/WhiteBeadChoiceCorrect.png","","","","","","","","","",""
"image-keyboard-response","223","271451","0.0-3.0-6.0-1.0-0.29","5a00a8160fff620001a6b776","666094c154fdc95dca3e206f","6660995a7e25aba66f99e207","529","","j","","","","","","","","./tasks/HMM-beads/Images/NewTrialWC.png","lowH","1","29","1","1","1","1","true","",""
"image-keyboard-response","224","271758","0.0-3.0-6.0-1.0-1.29","5a00a8160fff620001a6b776","666094c154fdc95dca3e206f","6660995a7e25aba66f99e207","null","","null","","","","","","","","./tasks/HMM-beads/Images/WhiteBeadChoice.png","","","","","","","","","",""
"image-keyboard-response","225","272266","0.0-3.0-6.0-1.0-2.29","5a00a8160fff620001a6b776","666094c154fdc95dca3e206f","6660995a7e25aba66f99e207","null","","null","","","","","","","","./tasks/HMM-beads/Images/WhiteBeadChoiceCorrect.png","","","","","","","","","",""
"image-keyboard-response","226","272901","0.0-3.0-6.0-1.0-0.30","5a00a8160fff620001a6b776","666094c154fdc95dca3e206f","6660995a7e25aba66f99e207","631","","j","","","","","","","","./tasks/HMM-beads/Images/NewTrialWC.png","lowH","1","30","1","1","1","1","true","",""
"image-keyboard-response","227","273211","0.0-3.0-6.0-1.0-1.30","5a00a8160fff620001a6b776","666094c154fdc95dca3e206f","6660995a7e25aba66f99e207","null","","null","","","","","","","","./tasks/HMM-beads/Images/WhiteBeadChoice.png","","","","","","","","","",""
"image-keyboard-response","228","273721","0.0-3.0-6.0-1.0-2.30","5a00a8160fff620001a6b776","666094c154fdc95dca3e206f","6660995a7e25aba66f99e207","null","","null","","","","","","","","./tasks/HMM-beads/Images/WhiteBeadChoiceCorrect.png","","","","","","","","","",""
"image-keyboard-response","229","274324","0.0-3.0-6.0-1.0-0.31","5a00a8160fff620001a6b776","666094c154fdc95dca3e206f","6660995a7e25aba66f99e207","599","","j","","","","","","","","./tasks/HMM-beads/Images/NewTrialWC.png","lowH","1","31","1","1","1","1","true","",""
"image-keyboard-response","230","274633","0.0-3.0-6.0-1.0-1.31","5a00a8160fff620001a6b776","666094c154fdc95dca3e206f","6660995a7e25aba66f99e207","null","","null","","","","","","","","./tasks/HMM-beads/Images/WhiteBeadChoice.png","","","","","","","","","",""
"image-keyboard-response","231","275145","0.0-3.0-6.0-1.0-2.31","5a00a8160fff620001a6b776","666094c154fdc95dca3e206f","6660995a7e25aba66f99e207","null","","null","","","","","","","","./tasks/HMM-beads/Images/WhiteBeadChoiceCorrect.png","","","","","","","","","",""
"image-keyboard-response","232","275431","0.0-3.0-6.0-1.0-0.32","5a00a8160fff620001a6b776","666094c154fdc95dca3e206f","6660995a7e25aba66f99e207","282","","j","","","","","","","","./tasks/HMM-beads/Images/NewTrialWC.png","lowH","1","32","1","1","1","1","true","",""
"image-keyboard-response","233","275735","0.0-3.0-6.0-1.0-1.32","5a00a8160fff620001a6b776","666094c154fdc95dca3e206f","6660995a7e25aba66f99e207","null","","null","","","","","","","","./tasks/HMM-beads/Images/WhiteBeadChoice.png","","","","","","","","","",""
"image-keyboard-response","234","276247","0.0-3.0-6.0-1.0-2.32","5a00a8160fff620001a6b776","666094c154fdc95dca3e206f","6660995a7e25aba66f99e207","null","","null","","","","","","","","./tasks/HMM-beads/Images/WhiteBeadChoiceCorrect.png","","","","","","","","","",""
"image-keyboard-response","235","276598","0.0-3.0-6.0-1.0-0.33","5a00a8160fff620001a6b776","666094c154fdc95dca3e206f","6660995a7e25aba66f99e207","347","","j","","","","","","","","./tasks/HMM-beads/Images/NewTrialWC.png","lowH","1","33","1","1","1","1","true","",""
"image-keyboard-response","236","276910","0.0-3.0-6.0-1.0-1.33","5a00a8160fff620001a6b776","666094c154fdc95dca3e206f","6660995a7e25aba66f99e207","null","","null","","","","","","","","./tasks/HMM-beads/Images/WhiteBeadChoice.png","","","","","","","","","",""
"image-keyboard-response","237","277421","0.0-3.0-6.0-1.0-2.33","5a00a8160fff620001a6b776","666094c154fdc95dca3e206f","6660995a7e25aba66f99e207","null","","null","","","","","","","","./tasks/HMM-beads/Images/WhiteBeadChoiceCorrect.png","","","","","","","","","",""
"image-keyboard-response","238","277705","0.0-3.0-6.0-1.0-0.34","5a00a8160fff620001a6b776","666094c154fdc95dca3e206f","6660995a7e25aba66f99e207","282","","j","","","","","","","","./tasks/HMM-beads/Images/NewTrialWC.png","lowH","1","34","1","1","1","1","true","",""
"image-keyboard-response","239","278007","0.0-3.0-6.0-1.0-1.34","5a00a8160fff620001a6b776","666094c154fdc95dca3e206f","6660995a7e25aba66f99e207","null","","null","","","","","","","","./tasks/HMM-beads/Images/WhiteBeadChoice.png","","","","","","","","","",""
"image-keyboard-response","240","278516","0.0-3.0-6.0-1.0-2.34","5a00a8160fff620001a6b776","666094c154fdc95dca3e206f","6660995a7e25aba66f99e207","null","","null","","","","","","","","./tasks/HMM-beads/Images/WhiteBeadChoiceCorrect.png","","","","","","","","","",""
"image-keyboard-response","241","278955","0.0-3.0-6.0-1.0-0.35","5a00a8160fff620001a6b776","666094c154fdc95dca3e206f","6660995a7e25aba66f99e207","438","","j","","","","","","","","./tasks/HMM-beads/Images/NewTrialWC.png","lowH","1","35","1","1","1","1","true","",""
"image-keyboard-response","242","279260","0.0-3.0-6.0-1.0-1.35","5a00a8160fff620001a6b776","666094c154fdc95dca3e206f","6660995a7e25aba66f99e207","null","","null","","","","","","","","./tasks/HMM-beads/Images/WhiteBeadChoice.png","","","","","","","","","",""
"image-keyboard-response","243","279776","0.0-3.0-6.0-1.0-2.35","5a00a8160fff620001a6b776","666094c154fdc95dca3e206f","6660995a7e25aba66f99e207","null","","null","","","","","","","","./tasks/HMM-beads/Images/WhiteBeadChoiceCorrect.png","","","","","","","","","",""
"image-keyboard-response","244","280182","0.0-3.0-6.0-1.0-0.36","5a00a8160fff620001a6b776","666094c154fdc95dca3e206f","6660995a7e25aba66f99e207","405","","j","","","","","","","","./tasks/HMM-beads/Images/NewTrialWC.png","lowH","1","36","1","1","1","1","true","",""
"image-keyboard-response","245","280494","0.0-3.0-6.0-1.0-1.36","5a00a8160fff620001a6b776","666094c154fdc95dca3e206f","6660995a7e25aba66f99e207","null","","null","","","","","","","","./tasks/HMM-beads/Images/WhiteBeadChoice.png","","","","","","","","","",""
"image-keyboard-response","246","281005","0.0-3.0-6.0-1.0-2.36","5a00a8160fff620001a6b776","666094c154fdc95dca3e206f","6660995a7e25aba66f99e207","null","","null","","","","","","","","./tasks/HMM-beads/Images/WhiteBeadChoiceCorrect.png","","","","","","","","","",""
"image-keyboard-response","247","281342","0.0-3.0-6.0-1.0-0.37","5a00a8160fff620001a6b776","666094c154fdc95dca3e206f","6660995a7e25aba66f99e207","336","","j","","","","","","","","./tasks/HMM-beads/Images/NewTrialWC.png","lowH","1","37","1","1","1","1","true","",""
"image-keyboard-response","248","281654","0.0-3.0-6.0-1.0-1.37","5a00a8160fff620001a6b776","666094c154fdc95dca3e206f","6660995a7e25aba66f99e207","null","","null","","","","","","","","./tasks/HMM-beads/Images/WhiteBeadChoice.png","","","","","","","","","",""
"image-keyboard-response","249","282182","0.0-3.0-6.0-1.0-2.37","5a00a8160fff620001a6b776","666094c154fdc95dca3e206f","6660995a7e25aba66f99e207","null","","null","","","","","","","","./tasks/HMM-beads/Images/WhiteBeadChoiceCorrect.png","","","","","","","","","",""
"image-keyboard-response","250","282559","0.0-3.0-6.0-1.0-0.38","5a00a8160fff620001a6b776","666094c154fdc95dca3e206f","6660995a7e25aba66f99e207","374","","j","","","","","","","","./tasks/HMM-beads/Images/NewTrialWC.png","lowH","1","38","1","1","1","1","true","",""
"image-keyboard-response","251","282865","0.0-3.0-6.0-1.0-1.38","5a00a8160fff620001a6b776","666094c154fdc95dca3e206f","6660995a7e25aba66f99e207","null","","null","","","","","","","","./tasks/HMM-beads/Images/WhiteBeadChoice.png","","","","","","","","","",""
"image-keyboard-response","252","283406","0.0-3.0-6.0-1.0-2.38","5a00a8160fff620001a6b776","666094c154fdc95dca3e206f","6660995a7e25aba66f99e207","null","","null","","","","","","","","./tasks/HMM-beads/Images/WhiteBeadChoiceCorrect.png","","","","","","","","","",""
"image-keyboard-response","253","283744","0.0-3.0-6.0-1.0-0.39","5a00a8160fff620001a6b776","666094c154fdc95dca3e206f","6660995a7e25aba66f99e207","334","","j","","","","","","","","./tasks/HMM-beads/Images/NewTrialWC.png","lowH","1","39","1","1","1","1","true","",""
"image-keyboard-response","254","284056","0.0-3.0-6.0-1.0-1.39","5a00a8160fff620001a6b776","666094c154fdc95dca3e206f","6660995a7e25aba66f99e207","null","","null","","","","","","","","./tasks/HMM-beads/Images/WhiteBeadChoice.png","","","","","","","","","",""
"image-keyboard-response","255","284569","0.0-3.0-6.0-1.0-2.39","5a00a8160fff620001a6b776","666094c154fdc95dca3e206f","6660995a7e25aba66f99e207","null","","null","","","","","","","","./tasks/HMM-beads/Images/WhiteBeadChoiceCorrect.png","","","","","","","","","",""
"image-keyboard-response","256","284958","0.0-3.0-6.0-1.0-0.40","5a00a8160fff620001a6b776","666094c154fdc95dca3e206f","6660995a7e25aba66f99e207","385","","j","","","","","","","","./tasks/HMM-beads/Images/NewTrialWC.png","lowH","1","40","1","1","1","1","true","",""
"image-keyboard-response","257","285269","0.0-3.0-6.0-1.0-1.40","5a00a8160fff620001a6b776","666094c154fdc95dca3e206f","6660995a7e25aba66f99e207","null","","null","","","","","","","","./tasks/HMM-beads/Images/WhiteBeadChoice.png","","","","","","","","","",""
"image-keyboard-response","258","285782","0.0-3.0-6.0-1.0-2.40","5a00a8160fff620001a6b776","666094c154fdc95dca3e206f","6660995a7e25aba66f99e207","null","","null","","","","","","","","./tasks/HMM-beads/Images/WhiteBeadChoiceCorrect.png","","","","","","","","","",""
"image-keyboard-response","259","286120","0.0-3.0-6.0-1.0-0.41","5a00a8160fff620001a6b776","666094c154fdc95dca3e206f","6660995a7e25aba66f99e207","335","","j","","","","","","","","./tasks/HMM-beads/Images/NewTrialWC.png","lowH","1","41","1","1","1","1","true","",""
"image-keyboard-response","260","286434","0.0-3.0-6.0-1.0-1.41","5a00a8160fff620001a6b776","666094c154fdc95dca3e206f","6660995a7e25aba66f99e207","null","","null","","","","","","","","./tasks/HMM-beads/Images/WhiteBeadChoice.png","","","","","","","","","",""
"image-keyboard-response","261","286947","0.0-3.0-6.0-1.0-2.41","5a00a8160fff620001a6b776","666094c154fdc95dca3e206f","6660995a7e25aba66f99e207","null","","null","","","","","","","","./tasks/HMM-beads/Images/WhiteBeadChoiceCorrect.png","","","","","","","","","",""
"image-keyboard-response","262","287290","0.0-3.0-6.0-1.0-0.42","5a00a8160fff620001a6b776","666094c154fdc95dca3e206f","6660995a7e25aba66f99e207","341","","j","","","","","","","","./tasks/HMM-beads/Images/NewTrialWC.png","lowH","1","42","1","1","1","1","true","",""
"image-keyboard-response","263","287598","0.0-3.0-6.0-1.0-1.42","5a00a8160fff620001a6b776","666094c154fdc95dca3e206f","6660995a7e25aba66f99e207","null","","null","","","","","","","","./tasks/HMM-beads/Images/WhiteBeadChoice.png","","","","","","","","","",""
"image-keyboard-response","264","288109","0.0-3.0-6.0-1.0-2.42","5a00a8160fff620001a6b776","666094c154fdc95dca3e206f","6660995a7e25aba66f99e207","null","","null","","","","","","","","./tasks/HMM-beads/Images/WhiteBeadChoiceCorrect.png","","","","","","","","","",""
"image-keyboard-response","265","288488","0.0-3.0-6.0-1.0-0.43","5a00a8160fff620001a6b776","666094c154fdc95dca3e206f","6660995a7e25aba66f99e207","374","","j","","","","","","","","./tasks/HMM-beads/Images/NewTrialWC.png","lowH","1","43","1","1","1","1","true","",""
"image-keyboard-response","266","288804","0.0-3.0-6.0-1.0-1.43","5a00a8160fff620001a6b776","666094c154fdc95dca3e206f","6660995a7e25aba66f99e207","null","","null","","","","","","","","./tasks/HMM-beads/Images/WhiteBeadChoice.png","","","","","","","","","",""
"image-keyboard-response","267","289313","0.0-3.0-6.0-1.0-2.43","5a00a8160fff620001a6b776","666094c154fdc95dca3e206f","6660995a7e25aba66f99e207","null","","null","","","","","","","","./tasks/HMM-beads/Images/WhiteBeadChoiceCorrect.png","","","","","","","","","",""
"image-keyboard-response","268","289702","0.0-3.0-6.0-1.0-0.44","5a00a8160fff620001a6b776","666094c154fdc95dca3e206f","6660995a7e25aba66f99e207","385","","j","","","","","","","","./tasks/HMM-beads/Images/NewTrialWC.png","lowH","1","44","1","1","1","1","true","",""
"image-keyboard-response","269","290013","0.0-3.0-6.0-1.0-1.44","5a00a8160fff620001a6b776","666094c154fdc95dca3e206f","6660995a7e25aba66f99e207","null","","null","","","","","","","","./tasks/HMM-beads/Images/WhiteBeadChoice.png","","","","","","","","","",""
"image-keyboard-response","270","290526","0.0-3.0-6.0-1.0-2.44","5a00a8160fff620001a6b776","666094c154fdc95dca3e206f","6660995a7e25aba66f99e207","null","","null","","","","","","","","./tasks/HMM-beads/Images/WhiteBeadChoiceCorrect.png","","","","","","","","","",""
"image-keyboard-response","271","290861","0.0-3.0-6.0-1.0-0.45","5a00a8160fff620001a6b776","666094c154fdc95dca3e206f","6660995a7e25aba66f99e207","330","","j","","","","","","","","./tasks/HMM-beads/Images/NewTrialWC.png","lowH","1","45","1","1","1","1","true","",""
"image-keyboard-response","272","291174","0.0-3.0-6.0-1.0-1.45","5a00a8160fff620001a6b776","666094c154fdc95dca3e206f","6660995a7e25aba66f99e207","null","","null","","","","","","","","./tasks/HMM-beads/Images/WhiteBeadChoice.png","","","","","","","","","",""
"image-keyboard-response","273","291685","0.0-3.0-6.0-1.0-2.45","5a00a8160fff620001a6b776","666094c154fdc95dca3e206f","6660995a7e25aba66f99e207","null","","null","","","","","","","","./tasks/HMM-beads/Images/WhiteBeadChoiceCorrect.png","","","","","","","","","",""
"image-keyboard-response","274","292067","0.0-3.0-6.0-1.0-0.46","5a00a8160fff620001a6b776","666094c154fdc95dca3e206f","6660995a7e25aba66f99e207","382","","j","","","","","","","","./tasks/HMM-beads/Images/NewTrialWC.png","lowH","1","46","1","1","1","1","true","",""
"image-keyboard-response","275","292380","0.0-3.0-6.0-1.0-1.46","5a00a8160fff620001a6b776","666094c154fdc95dca3e206f","6660995a7e25aba66f99e207","null","","null","","","","","","","","./tasks/HMM-beads/Images/WhiteBeadChoice.png","","","","","","","","","",""
"image-keyboard-response","276","292893","0.0-3.0-6.0-1.0-2.46","5a00a8160fff620001a6b776","666094c154fdc95dca3e206f","6660995a7e25aba66f99e207","null","","null","","","","","","","","./tasks/HMM-beads/Images/WhiteBeadChoiceCorrect.png","","","","","","","","","",""
"image-keyboard-response","277","293208","0.0-3.0-6.0-1.0-0.47","5a00a8160fff620001a6b776","666094c154fdc95dca3e206f","6660995a7e25aba66f99e207","311","","j","","","","","","","","./tasks/HMM-beads/Images/NewTrialWC.png","lowH","1","47","1","0","1","1","false","",""
"image-keyboard-response","278","293517","0.0-3.0-6.0-1.0-1.47","5a00a8160fff620001a6b776","666094c154fdc95dca3e206f","6660995a7e25aba66f99e207","null","","null","","","","","","","","./tasks/HMM-beads/Images/WhiteBeadChoice.png","","","","","","","","","",""
"image-keyboard-response","279","294027","0.0-3.0-6.0-1.0-2.47","5a00a8160fff620001a6b776","666094c154fdc95dca3e206f","6660995a7e25aba66f99e207","null","","null","","","","","","","","./tasks/HMM-beads/Images/WhiteBeadChoiceWrong.png","","","","","","","","","",""
"image-keyboard-response","280","294531","0.0-3.0-6.0-1.0-0.48","5a00a8160fff620001a6b776","666094c154fdc95dca3e206f","6660995a7e25aba66f99e207","501","","j","","","","","","","","./tasks/HMM-beads/Images/NewTrialBC.png","lowH","1","48","1","0","0","1","false","",""
"image-keyboard-response","281","294845","0.0-3.0-6.0-1.0-1.48","5a00a8160fff620001a6b776","666094c154fdc95dca3e206f","6660995a7e25aba66f99e207","null","","null","","","","","","","","./tasks/HMM-beads/Images/WhiteBeadChoice.png","","","","","","","","","",""
"image-keyboard-response","282","295358","0.0-3.0-6.0-1.0-2.48","5a00a8160fff620001a6b776","666094c154fdc95dca3e206f","6660995a7e25aba66f99e207","null","","null","","","","","","","","./tasks/HMM-beads/Images/WhiteBeadChoiceWrong.png","","","","","","","","","",""
"image-keyboard-response","283","295764","0.0-3.0-6.0-1.0-0.49","5a00a8160fff620001a6b776","666094c154fdc95dca3e206f","6660995a7e25aba66f99e207","403","","j","","","","","","","","./tasks/HMM-beads/Images/NewTrialBC.png","lowH","1","49","1","0","0","1","false","",""
"image-keyboard-response","284","296070","0.0-3.0-6.0-1.0-1.49","5a00a8160fff620001a6b776","666094c154fdc95dca3e206f","6660995a7e25aba66f99e207","null","","null","","","","","","","","./tasks/HMM-beads/Images/WhiteBeadChoice.png","","","","","","","","","",""
"image-keyboard-response","285","296577","0.0-3.0-6.0-1.0-2.49","5a00a8160fff620001a6b776","666094c154fdc95dca3e206f","6660995a7e25aba66f99e207","null","","null","","","","","","","","./tasks/HMM-beads/Images/WhiteBeadChoiceWrong.png","","","","","","","","","",""
"image-keyboard-response","286","296958","0.0-3.0-6.0-1.0-0.50","5a00a8160fff620001a6b776","666094c154fdc95dca3e206f","6660995a7e25aba66f99e207","379","","f","","","","","","","","./tasks/HMM-beads/Images/NewTrialBC.png","lowH","1","50","1","1","0","0","false","",""
"image-keyboard-response","287","297277","0.0-3.0-6.0-1.0-1.50","5a00a8160fff620001a6b776","666094c154fdc95dca3e206f","6660995a7e25aba66f99e207","null","","null","","","","","","","","./tasks/HMM-beads/Images/BlackBeadChoice.png","","","","","","","","","",""
"image-keyboard-response","288","297800","0.0-3.0-6.0-1.0-2.50","5a00a8160fff620001a6b776","666094c154fdc95dca3e206f","6660995a7e25aba66f99e207","null","","null","","","","","","","","./tasks/HMM-beads/Images/BlackBeadChoiceWrong.png","","","","","","","","","",""
"image-keyboard-response","289","298271","0.0-3.0-6.0-1.0-0.51","5a00a8160fff620001a6b776","666094c154fdc95dca3e206f","6660995a7e25aba66f99e207","471","","f","","","","","","","","./tasks/HMM-beads/Images/NewTrialWC.png","lowH","1","51","1","1","1","0","false","",""
"image-keyboard-response","290","298576","0.0-3.0-6.0-1.0-1.51","5a00a8160fff620001a6b776","666094c154fdc95dca3e206f","6660995a7e25aba66f99e207","null","","null","","","","","","","","./tasks/HMM-beads/Images/BlackBeadChoice.png","","","","","","","","","",""
"image-keyboard-response","291","299088","0.0-3.0-6.0-1.0-2.51","5a00a8160fff620001a6b776","666094c154fdc95dca3e206f","6660995a7e25aba66f99e207","null","","null","","","","","","","","./tasks/HMM-beads/Images/BlackBeadChoiceWrong.png","","","","","","","","","",""
"image-keyboard-response","292","299508","0.0-3.0-6.0-1.0-0.52","5a00a8160fff620001a6b776","666094c154fdc95dca3e206f","6660995a7e25aba66f99e207","417","","j","","","","","","","","./tasks/HMM-beads/Images/NewTrialWC.png","lowH","1","52","1","1","1","1","true","",""
"image-keyboard-response","293","299823","0.0-3.0-6.0-1.0-1.52","5a00a8160fff620001a6b776","666094c154fdc95dca3e206f","6660995a7e25aba66f99e207","null","","null","","","","","","","","./tasks/HMM-beads/Images/WhiteBeadChoice.png","","","","","","","","","",""
"image-keyboard-response","294","300338","0.0-3.0-6.0-1.0-2.52","5a00a8160fff620001a6b776","666094c154fdc95dca3e206f","6660995a7e25aba66f99e207","null","","null","","","","","","","","./tasks/HMM-beads/Images/WhiteBeadChoiceCorrect.png","","","","","","","","","",""
"image-keyboard-response","295","300709","0.0-3.0-6.0-1.0-0.53","5a00a8160fff620001a6b776","666094c154fdc95dca3e206f","6660995a7e25aba66f99e207","369","","j","","","","","","","","./tasks/HMM-beads/Images/NewTrialWC.png","lowH","1","53","1","1","1","1","true","",""
"image-keyboard-response","296","301049","0.0-3.0-6.0-1.0-1.53","5a00a8160fff620001a6b776","666094c154fdc95dca3e206f","6660995a7e25aba66f99e207","null","","null","","","","","","","","./tasks/HMM-beads/Images/WhiteBeadChoice.png","","","","","","","","","",""
"image-keyboard-response","297","301579","0.0-3.0-6.0-1.0-2.53","5a00a8160fff620001a6b776","666094c154fdc95dca3e206f","6660995a7e25aba66f99e207","null","","null","","","","","","","","./tasks/HMM-beads/Images/WhiteBeadChoiceCorrect.png","","","","","","","","","",""
"image-keyboard-response","298","301939","0.0-3.0-6.0-1.0-0.54","5a00a8160fff620001a6b776","666094c154fdc95dca3e206f","6660995a7e25aba66f99e207","357","","j","","","","","","","","./tasks/HMM-beads/Images/NewTrialWC.png","lowH","1","54","1","1","1","1","true","",""
"image-keyboard-response","299","302244","0.0-3.0-6.0-1.0-1.54","5a00a8160fff620001a6b776","666094c154fdc95dca3e206f","6660995a7e25aba66f99e207","null","","null","","","","","","","","./tasks/HMM-beads/Images/WhiteBeadChoice.png","","","","","","","","","",""
"image-keyboard-response","300","302756","0.0-3.0-6.0-1.0-2.54","5a00a8160fff620001a6b776","666094c154fdc95dca3e206f","6660995a7e25aba66f99e207","null","","null","","","","","","","","./tasks/HMM-beads/Images/WhiteBeadChoiceCorrect.png","","","","","","","","","",""
"image-keyboard-response","301","303116","0.0-3.0-6.0-1.0-0.55","5a00a8160fff620001a6b776","666094c154fdc95dca3e206f","6660995a7e25aba66f99e207","357","","j","","","","","","","","./tasks/HMM-beads/Images/NewTrialWC.png","lowH","1","55","1","1","1","1","true","",""
"image-keyboard-response","302","303423","0.0-3.0-6.0-1.0-1.55","5a00a8160fff620001a6b776","666094c154fdc95dca3e206f","6660995a7e25aba66f99e207","null","","null","","","","","","","","./tasks/HMM-beads/Images/WhiteBeadChoice.png","","","","","","","","","",""
"image-keyboard-response","303","303931","0.0-3.0-6.0-1.0-2.55","5a00a8160fff620001a6b776","666094c154fdc95dca3e206f","6660995a7e25aba66f99e207","null","","null","","","","","","","","./tasks/HMM-beads/Images/WhiteBeadChoiceCorrect.png","","","","","","","","","",""
"image-keyboard-response","304","304258","0.0-3.0-6.0-1.0-0.56","5a00a8160fff620001a6b776","666094c154fdc95dca3e206f","6660995a7e25aba66f99e207","325","","j","","","","","","","","./tasks/HMM-beads/Images/NewTrialWC.png","lowH","1","56","1","1","1","1","true","",""
"image-keyboard-response","305","304599","0.0-3.0-6.0-1.0-1.56","5a00a8160fff620001a6b776","666094c154fdc95dca3e206f","6660995a7e25aba66f99e207","null","","null","","","","","","","","./tasks/HMM-beads/Images/WhiteBeadChoice.png","","","","","","","","","",""
"image-keyboard-response","306","305109","0.0-3.0-6.0-1.0-2.56","5a00a8160fff620001a6b776","666094c154fdc95dca3e206f","6660995a7e25aba66f99e207","null","","null","","","","","","","","./tasks/HMM-beads/Images/WhiteBeadChoiceCorrect.png","","","","","","","","","",""
"image-keyboard-response","307","305389","0.0-3.0-6.0-1.0-0.57","5a00a8160fff620001a6b776","666094c154fdc95dca3e206f","6660995a7e25aba66f99e207","276","","j","","","","","","","","./tasks/HMM-beads/Images/NewTrialWC.png","lowH","1","57","1","1","1","1","true","",""
"image-keyboard-response","308","305699","0.0-3.0-6.0-1.0-1.57","5a00a8160fff620001a6b776","666094c154fdc95dca3e206f","6660995a7e25aba66f99e207","null","","null","","","","","","","","./tasks/HMM-beads/Images/WhiteBeadChoice.png","","","","","","","","","",""
"image-keyboard-response","309","306261","0.0-3.0-6.0-1.0-2.57","5a00a8160fff620001a6b776","666094c154fdc95dca3e206f","6660995a7e25aba66f99e207","null","","null","","","","","","","","./tasks/HMM-beads/Images/WhiteBeadChoiceCorrect.png","","","","","","","","","",""
"image-keyboard-response","310","306583","0.0-3.0-6.0-1.0-0.58","5a00a8160fff620001a6b776","666094c154fdc95dca3e206f","6660995a7e25aba66f99e207","319","","j","","","","","","","","./tasks/HMM-beads/Images/NewTrialWC.png","lowH","1","58","1","1","1","1","true","",""
"image-keyboard-response","311","306898","0.0-3.0-6.0-1.0-1.58","5a00a8160fff620001a6b776","666094c154fdc95dca3e206f","6660995a7e25aba66f99e207","null","","null","","","","","","","","./tasks/HMM-beads/Images/WhiteBeadChoice.png","","","","","","","","","",""
"image-keyboard-response","312","307410","0.0-3.0-6.0-1.0-2.58","5a00a8160fff620001a6b776","666094c154fdc95dca3e206f","6660995a7e25aba66f99e207","null","","null","","","","","","","","./tasks/HMM-beads/Images/WhiteBeadChoiceCorrect.png","","","","","","","","","",""
"image-keyboard-response","313","307719","0.0-3.0-6.0-1.0-0.59","5a00a8160fff620001a6b776","666094c154fdc95dca3e206f","6660995a7e25aba66f99e207","305","","j","","","","","","","","./tasks/HMM-beads/Images/NewTrialWC.png","lowH","1","59","1","0","1","1","false","",""
"image-keyboard-response","314","308029","0.0-3.0-6.0-1.0-1.59","5a00a8160fff620001a6b776","666094c154fdc95dca3e206f","6660995a7e25aba66f99e207","null","","null","","","","","","","","./tasks/HMM-beads/Images/WhiteBeadChoice.png","","","","","","","","","",""
"image-keyboard-response","315","308590","0.0-3.0-6.0-1.0-2.59","5a00a8160fff620001a6b776","666094c154fdc95dca3e206f","6660995a7e25aba66f99e207","null","","null","","","","","","","","./tasks/HMM-beads/Images/WhiteBeadChoiceWrong.png","","","","","","","","","",""
"image-keyboard-response","316","309065","0.0-3.0-6.0-1.0-0.60","5a00a8160fff620001a6b776","666094c154fdc95dca3e206f","6660995a7e25aba66f99e207","472","","j","","","","","","","","./tasks/HMM-beads/Images/NewTrialBC.png","lowH","1","60","1","1","0","1","true","",""
"image-keyboard-response","317","309369","0.0-3.0-6.0-1.0-1.60","5a00a8160fff620001a6b776","666094c154fdc95dca3e206f","6660995a7e25aba66f99e207","null","","null","","","","","","","","./tasks/HMM-beads/Images/WhiteBeadChoice.png","","","","","","","","","",""
"image-keyboard-response","318","309881","0.0-3.0-6.0-1.0-2.60","5a00a8160fff620001a6b776","666094c154fdc95dca3e206f","6660995a7e25aba66f99e207","null","","null","","","","","","","","./tasks/HMM-beads/Images/WhiteBeadChoiceCorrect.png","","","","","","","","","",""
"image-keyboard-response","319","310192","0.0-3.0-6.0-1.0-0.61","5a00a8160fff620001a6b776","666094c154fdc95dca3e206f","6660995a7e25aba66f99e207","309","","j","","","","","","","","./tasks/HMM-beads/Images/NewTrialWC.png","lowH","1","61","1","1","1","1","true","",""
"image-keyboard-response","320","310499","0.0-3.0-6.0-1.0-1.61","5a00a8160fff620001a6b776","666094c154fdc95dca3e206f","6660995a7e25aba66f99e207","null","","null","","","","","","","","./tasks/HMM-beads/Images/WhiteBeadChoice.png","","","","","","","","","",""
"image-keyboard-response","321","311009","0.0-3.0-6.0-1.0-2.61","5a00a8160fff620001a6b776","666094c154fdc95dca3e206f","6660995a7e25aba66f99e207","null","","null","","","","","","","","./tasks/HMM-beads/Images/WhiteBeadChoiceCorrect.png","","","","","","","","","",""
"image-keyboard-response","322","311406","0.0-3.0-6.0-1.0-0.62","5a00a8160fff620001a6b776","666094c154fdc95dca3e206f","6660995a7e25aba66f99e207","394","","j","","","","","","","","./tasks/HMM-beads/Images/NewTrialWC.png","lowH","1","62","1","0","1","1","false","",""
"image-keyboard-response","323","311721","0.0-3.0-6.0-1.0-1.62","5a00a8160fff620001a6b776","666094c154fdc95dca3e206f","6660995a7e25aba66f99e207","null","","null","","","","","","","","./tasks/HMM-beads/Images/WhiteBeadChoice.png","","","","","","","","","",""
"image-keyboard-response","324","312233","0.0-3.0-6.0-1.0-2.62","5a00a8160fff620001a6b776","666094c154fdc95dca3e206f","6660995a7e25aba66f99e207","null","","null","","","","","","","","./tasks/HMM-beads/Images/WhiteBeadChoiceWrong.png","","","","","","","","","",""
"image-keyboard-response","325","312682","0.0-3.0-6.0-1.0-0.63","5a00a8160fff620001a6b776","666094c154fdc95dca3e206f","6660995a7e25aba66f99e207","445","","j","","","","","","","","./tasks/HMM-beads/Images/NewTrialBC.png","lowH","1","63","1","1","0","1","true","",""
"image-keyboard-response","326","312993","0.0-3.0-6.0-1.0-1.63","5a00a8160fff620001a6b776","666094c154fdc95dca3e206f","6660995a7e25aba66f99e207","null","","null","","","","","","","","./tasks/HMM-beads/Images/WhiteBeadChoice.png","","","","","","","","","",""
"image-keyboard-response","327","313506","0.0-3.0-6.0-1.0-2.63","5a00a8160fff620001a6b776","666094c154fdc95dca3e206f","6660995a7e25aba66f99e207","null","","null","","","","","","","","./tasks/HMM-beads/Images/WhiteBeadChoiceCorrect.png","","","","","","","","","",""
"image-keyboard-response","328","313872","0.0-3.0-6.0-1.0-0.64","5a00a8160fff620001a6b776","666094c154fdc95dca3e206f","6660995a7e25aba66f99e207","364","","j","","","","","","","","./tasks/HMM-beads/Images/NewTrialWC.png","lowH","1","64","1","1","1","1","true","",""
"image-keyboard-response","329","314191","0.0-3.0-6.0-1.0-1.64","5a00a8160fff620001a6b776","666094c154fdc95dca3e206f","6660995a7e25aba66f99e207","null","","null","","","","","","","","./tasks/HMM-beads/Images/WhiteBeadChoice.png","","","","","","","","","",""
"image-keyboard-response","330","314700","0.0-3.0-6.0-1.0-2.64","5a00a8160fff620001a6b776","666094c154fdc95dca3e206f","6660995a7e25aba66f99e207","null","","null","","","","","","","","./tasks/HMM-beads/Images/WhiteBeadChoiceCorrect.png","","","","","","","","","",""
"image-keyboard-response","331","315210","0.0-3.0-6.0-1.0-0.65","5a00a8160fff620001a6b776","666094c154fdc95dca3e206f","6660995a7e25aba66f99e207","508","","j","","","","","","","","./tasks/HMM-beads/Images/NewTrialWC.png","lowH","1","65","1","1","1","1","true","",""
"image-keyboard-response","332","315520","0.0-3.0-6.0-1.0-1.65","5a00a8160fff620001a6b776","666094c154fdc95dca3e206f","6660995a7e25aba66f99e207","null","","null","","","","","","","","./tasks/HMM-beads/Images/WhiteBeadChoice.png","","","","","","","","","",""
"image-keyboard-response","333","316033","0.0-3.0-6.0-1.0-2.65","5a00a8160fff620001a6b776","666094c154fdc95dca3e206f","6660995a7e25aba66f99e207","null","","null","","","","","","","","./tasks/HMM-beads/Images/WhiteBeadChoiceCorrect.png","","","","","","","","","",""
"image-keyboard-response","334","316367","0.0-3.0-6.0-1.0-0.66","5a00a8160fff620001a6b776","666094c154fdc95dca3e206f","6660995a7e25aba66f99e207","329","","j","","","","","","","","./tasks/HMM-beads/Images/NewTrialWC.png","lowH","1","66","1","1","1","1","true","",""
"image-keyboard-response","335","316682","0.0-3.0-6.0-1.0-1.66","5a00a8160fff620001a6b776","666094c154fdc95dca3e206f","6660995a7e25aba66f99e207","null","","null","","","","","","","","./tasks/HMM-beads/Images/WhiteBeadChoice.png","","","","","","","","","",""
"image-keyboard-response","336","317184","0.0-3.0-6.0-1.0-2.66","5a00a8160fff620001a6b776","666094c154fdc95dca3e206f","6660995a7e25aba66f99e207","null","","null","","","","","","","","./tasks/HMM-beads/Images/WhiteBeadChoiceCorrect.png","","","","","","","","","",""
"image-keyboard-response","337","317467","0.0-3.0-6.0-1.0-0.67","5a00a8160fff620001a6b776","666094c154fdc95dca3e206f","6660995a7e25aba66f99e207","282","","j","","","","","","","","./tasks/HMM-beads/Images/NewTrialWC.png","lowH","1","67","1","0","1","1","false","",""
"image-keyboard-response","338","317770","0.0-3.0-6.0-1.0-1.67","5a00a8160fff620001a6b776","666094c154fdc95dca3e206f","6660995a7e25aba66f99e207","null","","null","","","","","","","","./tasks/HMM-beads/Images/WhiteBeadChoice.png","","","","","","","","","",""
"image-keyboard-response","339","318283","0.0-3.0-6.0-1.0-2.67","5a00a8160fff620001a6b776","666094c154fdc95dca3e206f","6660995a7e25aba66f99e207","null","","null","","","","","","","","./tasks/HMM-beads/Images/WhiteBeadChoiceWrong.png","","","","","","","","","",""
"image-keyboard-response","340","318659","0.0-3.0-6.0-1.0-0.68","5a00a8160fff620001a6b776","666094c154fdc95dca3e206f","6660995a7e25aba66f99e207","373","","j","","","","","","","","./tasks/HMM-beads/Images/NewTrialBC.png","lowH","1","68","1","1","0","1","true","",""
"image-keyboard-response","341","318964","0.0-3.0-6.0-1.0-1.68","5a00a8160fff620001a6b776","666094c154fdc95dca3e206f","6660995a7e25aba66f99e207","null","","null","","","","","","","","./tasks/HMM-beads/Images/WhiteBeadChoice.png","","","","","","","","","",""
"image-keyboard-response","342","319476","0.0-3.0-6.0-1.0-2.68","5a00a8160fff620001a6b776","666094c154fdc95dca3e206f","6660995a7e25aba66f99e207","null","","null","","","","","","","","./tasks/HMM-beads/Images/WhiteBeadChoiceCorrect.png","","","","","","","","","",""
"image-keyboard-response","343","319800","0.0-3.0-6.0-1.0-0.69","5a00a8160fff620001a6b776","666094c154fdc95dca3e206f","6660995a7e25aba66f99e207","321","","j","","","","","","","","./tasks/HMM-beads/Images/NewTrialWC.png","lowH","1","69","0","1","1","1","true","",""
"image-keyboard-response","344","320113","0.0-3.0-6.0-1.0-1.69","5a00a8160fff620001a6b776","666094c154fdc95dca3e206f","6660995a7e25aba66f99e207","null","","null","","","","","","","","./tasks/HMM-beads/Images/WhiteBeadChoice.png","","","","","","","","","",""
"image-keyboard-response","345","320639","0.0-3.0-6.0-1.0-2.69","5a00a8160fff620001a6b776","666094c154fdc95dca3e206f","6660995a7e25aba66f99e207","null","","null","","","","","","","","./tasks/HMM-beads/Images/WhiteBeadChoiceCorrect.png","","","","","","","","","",""
"image-keyboard-response","346","320888","0.0-3.0-6.0-1.0-0.70","5a00a8160fff620001a6b776","666094c154fdc95dca3e206f","6660995a7e25aba66f99e207","247","","j","","","","","","","","./tasks/HMM-beads/Images/NewTrialWC.png","lowH","1","70","0","1","1","1","true","",""
"image-keyboard-response","347","321198","0.0-3.0-6.0-1.0-1.70","5a00a8160fff620001a6b776","666094c154fdc95dca3e206f","6660995a7e25aba66f99e207","null","","null","","","","","","","","./tasks/HMM-beads/Images/WhiteBeadChoice.png","","","","","","","","","",""
"image-keyboard-response","348","321711","0.0-3.0-6.0-1.0-2.70","5a00a8160fff620001a6b776","666094c154fdc95dca3e206f","6660995a7e25aba66f99e207","null","","null","","","","","","","","./tasks/HMM-beads/Images/WhiteBeadChoiceCorrect.png","","","","","","","","","",""
"image-keyboard-response","349","321925","0.0-3.0-6.0-1.0-0.71","5a00a8160fff620001a6b776","666094c154fdc95dca3e206f","6660995a7e25aba66f99e207","213","","j","","","","","","","","./tasks/HMM-beads/Images/NewTrialWC.png","lowH","1","71","0","0","1","1","false","",""
"image-keyboard-response","350","322237","0.0-3.0-6.0-1.0-1.71","5a00a8160fff620001a6b776","666094c154fdc95dca3e206f","6660995a7e25aba66f99e207","null","","null","","","","","","","","./tasks/HMM-beads/Images/WhiteBeadChoice.png","","","","","","","","","",""
"image-keyboard-response","351","322747","0.0-3.0-6.0-1.0-2.71","5a00a8160fff620001a6b776","666094c154fdc95dca3e206f","6660995a7e25aba66f99e207","null","","null","","","","","","","","./tasks/HMM-beads/Images/WhiteBeadChoiceWrong.png","","","","","","","","","",""
"image-keyboard-response","352","323019","0.0-3.0-6.0-1.0-0.72","5a00a8160fff620001a6b776","666094c154fdc95dca3e206f","6660995a7e25aba66f99e207","267","","j","","","","","","","","./tasks/HMM-beads/Images/NewTrialBC.png","lowH","1","72","0","0","0","1","false","",""
"image-keyboard-response","353","323335","0.0-3.0-6.0-1.0-1.72","5a00a8160fff620001a6b776","666094c154fdc95dca3e206f","6660995a7e25aba66f99e207","null","","null","","","","","","","","./tasks/HMM-beads/Images/WhiteBeadChoice.png","","","","","","","","","",""
"image-keyboard-response","354","323848","0.0-3.0-6.0-1.0-2.72","5a00a8160fff620001a6b776","666094c154fdc95dca3e206f","6660995a7e25aba66f99e207","null","","null","","","","","","","","./tasks/HMM-beads/Images/WhiteBeadChoiceWrong.png","","","","","","","","","",""
"image-keyboard-response","355","324185","0.0-3.0-6.0-1.0-0.73","5a00a8160fff620001a6b776","666094c154fdc95dca3e206f","6660995a7e25aba66f99e207","333","","j","","","","","","","","./tasks/HMM-beads/Images/NewTrialBC.png","lowH","1","73","0","1","0","1","true","",""
"image-keyboard-response","356","324500","0.0-3.0-6.0-1.0-1.73","5a00a8160fff620001a6b776","666094c154fdc95dca3e206f","6660995a7e25aba66f99e207","null","","null","","","","","","","","./tasks/HMM-beads/Images/WhiteBeadChoice.png","","","","","","","","","",""
"image-keyboard-response","357","325014","0.0-3.0-6.0-1.0-2.73","5a00a8160fff620001a6b776","666094c154fdc95dca3e206f","6660995a7e25aba66f99e207","null","","null","","","","","","","","./tasks/HMM-beads/Images/WhiteBeadChoiceCorrect.png","","","","","","","","","",""
"image-keyboard-response","358","325364","0.0-3.0-6.0-1.0-0.74","5a00a8160fff620001a6b776","666094c154fdc95dca3e206f","6660995a7e25aba66f99e207","348","","j","","","","","","","","./tasks/HMM-beads/Images/NewTrialWC.png","lowH","1","74","0","0","1","1","false","",""
"image-keyboard-response","359","325680","0.0-3.0-6.0-1.0-1.74","5a00a8160fff620001a6b776","666094c154fdc95dca3e206f","6660995a7e25aba66f99e207","null","","null","","","","","","","","./tasks/HMM-beads/Images/WhiteBeadChoice.png","","","","","","","","","",""
"image-keyboard-response","360","326191","0.0-3.0-6.0-1.0-2.74","5a00a8160fff620001a6b776","666094c154fdc95dca3e206f","6660995a7e25aba66f99e207","null","","null","","","","","","","","./tasks/HMM-beads/Images/WhiteBeadChoiceWrong.png","","","","","","","","","",""
"image-keyboard-response","361","326568","0.0-3.0-6.0-1.0-0.75","5a00a8160fff620001a6b776","666094c154fdc95dca3e206f","6660995a7e25aba66f99e207","373","","j","","","","","","","","./tasks/HMM-beads/Images/NewTrialBC.png","lowH","1","75","0","1","0","1","true","",""
"image-keyboard-response","362","326874","0.0-3.0-6.0-1.0-1.75","5a00a8160fff620001a6b776","666094c154fdc95dca3e206f","6660995a7e25aba66f99e207","null","","null","","","","","","","","./tasks/HMM-beads/Images/WhiteBeadChoice.png","","","","","","","","","",""
"image-keyboard-response","363","327383","0.0-3.0-6.0-1.0-2.75","5a00a8160fff620001a6b776","666094c154fdc95dca3e206f","6660995a7e25aba66f99e207","null","","null","","","","","","","","./tasks/HMM-beads/Images/WhiteBeadChoiceCorrect.png","","","","","","","","","",""
"image-keyboard-response","364","327746","0.0-3.0-6.0-1.0-0.76","5a00a8160fff620001a6b776","666094c154fdc95dca3e206f","6660995a7e25aba66f99e207","360","","j","","","","","","","","./tasks/HMM-beads/Images/NewTrialWC.png","lowH","1","76","0","1","1","1","true","",""
"image-keyboard-response","365","328063","0.0-3.0-6.0-1.0-1.76","5a00a8160fff620001a6b776","666094c154fdc95dca3e206f","6660995a7e25aba66f99e207","null","","null","","","","","","","","./tasks/HMM-beads/Images/WhiteBeadChoice.png","","","","","","","","","",""
"image-keyboard-response","366","328576","0.0-3.0-6.0-1.0-2.76","5a00a8160fff620001a6b776","666094c154fdc95dca3e206f","6660995a7e25aba66f99e207","null","","null","","","","","","","","./tasks/HMM-beads/Images/WhiteBeadChoiceCorrect.png","","","","","","","","","",""
"image-keyboard-response","367","328913","0.0-3.0-6.0-1.0-0.77","5a00a8160fff620001a6b776","666094c154fdc95dca3e206f","6660995a7e25aba66f99e207","333","","j","","","","","","","","./tasks/HMM-beads/Images/NewTrialWC.png","lowH","1","77","0","0","1","1","false","",""
"image-keyboard-response","368","329223","0.0-3.0-6.0-1.0-1.77","5a00a8160fff620001a6b776","666094c154fdc95dca3e206f","6660995a7e25aba66f99e207","null","","null","","","","","","","","./tasks/HMM-beads/Images/WhiteBeadChoice.png","","","","","","","","","",""
"image-keyboard-response","369","329749","0.0-3.0-6.0-1.0-2.77","5a00a8160fff620001a6b776","666094c154fdc95dca3e206f","6660995a7e25aba66f99e207","null","","null","","","","","","","","./tasks/HMM-beads/Images/WhiteBeadChoiceWrong.png","","","","","","","","","",""
"image-keyboard-response","370","330066","0.0-3.0-6.0-1.0-0.78","5a00a8160fff620001a6b776","666094c154fdc95dca3e206f","6660995a7e25aba66f99e207","314","","j","","","","","","","","./tasks/HMM-beads/Images/NewTrialBC.png","lowH","1","78","0","0","0","1","false","",""
"image-keyboard-response","371","330371","0.0-3.0-6.0-1.0-1.78","5a00a8160fff620001a6b776","666094c154fdc95dca3e206f","6660995a7e25aba66f99e207","null","","null","","","","","","","","./tasks/HMM-beads/Images/WhiteBeadChoice.png","","","","","","","","","",""
"image-keyboard-response","372","330880","0.0-3.0-6.0-1.0-2.78","5a00a8160fff620001a6b776","666094c154fdc95dca3e206f","6660995a7e25aba66f99e207","null","","null","","","","","","","","./tasks/HMM-beads/Images/WhiteBeadChoiceWrong.png","","","","","","","","","",""
"image-keyboard-response","373","331218","0.0-3.0-6.0-1.0-0.79","5a00a8160fff620001a6b776","666094c154fdc95dca3e206f","6660995a7e25aba66f99e207","335","","j","","","","","","","","./tasks/HMM-beads/Images/NewTrialBC.png","lowH","1","79","0","0","0","1","false","",""
"image-keyboard-response","374","331530","0.0-3.0-6.0-1.0-1.79","5a00a8160fff620001a6b776","666094c154fdc95dca3e206f","6660995a7e25aba66f99e207","null","","null","","","","","","","","./tasks/HMM-beads/Images/WhiteBeadChoice.png","","","","","","","","","",""
