"trial_type","trial_index","time_elapsed","internal_node_id","subject_id","study_id","session_id","rt","url","response","question_order","view_history","success","timeout","failed_images","failed_audio","failed_video","stimulus","block","block_rep","trial_number","jar","bead","previous_bead","choice","correct","lowH_score","total_bonus"
"pavlovia","0","5395","0.0-0.0","60d6befca58e40d0c63bba9f","6662009ae78f21dd82fcd179","6662081d9a2c7c294fca07d3","","","","","","","","","","","","","","","","","","","","",""
"external-html","1","96438","0.0-1.0-0.0","60d6befca58e40d0c63bba9f","6662009ae78f21dd82fcd179","6662081d9a2c7c294fca07d3","89809","new_consent.html","","","","","","","","","","","","","","","","","","",""
"survey-multi-choice","2","108848","0.0-1.0-1.0","60d6befca58e40d0c63bba9f","6662009ae78f21dd82fcd179","6662081d9a2c7c294fca07d3","12396","","{""Q0"":""Male"",""Q1"":""White""}","[0,1]","","","","","","","","","","","","","","","","",""
"survey-text","3","115021","0.0-1.0-2.0","60d6befca58e40d0c63bba9f","6662009ae78f21dd82fcd179","6662081d9a2c7c294fca07d3","6148","","{""Q0"":""46""}","","","","","","","","","","","","","","","","","",""
"instructions","4","117508","0.0-2.0","60d6befca58e40d0c63bba9f","6662009ae78f21dd82fcd179","6662081d9a2c7c294fca07d3","2369","","","","[{""page_index"":0,""viewing_time"":2369}]","","","","","","","","","","","","","","","",""
"preload","5","133049","0.0-3.0-0.0","60d6befca58e40d0c63bba9f","6662009ae78f21dd82fcd179","6662081d9a2c7c294fca07d3","","","","","","true","false","[]","[]","[]","","","","","","","","","","",""
"instructions","6","342242","0.0-3.0-1.0","60d6befca58e40d0c63bba9f","6662009ae78f21dd82fcd179","6662081d9a2c7c294fca07d3","209190","","","","[{""page_index"":0,""viewing_time"":42032},{""page_index"":1,""viewing_time"":12920},{""page_index"":2,""viewing_time"":17057},{""page_index"":3,""viewing_time"":16912},{""page_index"":4,""viewing_time"":21575},{""page_index"":5,""viewing_time"":26866},{""page_index"":6,""viewing_time"":23550},{""page_index"":7,""viewing_time"":3959},{""page_index"":6,""viewing_time"":7538},{""page_index"":7,""viewing_time"":5529},{""page_index"":6,""viewing_time"":5534},{""page_index"":7,""viewing_time"":1892},{""page_index"":8,""viewing_time"":1349},{""page_index"":9,""viewing_time"":1368},{""page_index"":8,""viewing_time"":1214},{""page_index"":7,""viewing_time"":1227},{""page_index"":6,""viewing_time"":2524},{""page_index"":7,""viewing_time"":3643},{""page_index"":6,""viewing_time"":1955},{""page_index"":7,""viewing_time"":722},{""page_index"":6,""viewing_time"":2395},{""page_index"":7,""viewing_time"":862},{""page_index"":8,""viewing_time"":781},{""page_index"":9,""viewing_time"":745},{""page_index"":10,""viewing_time"":1626},{""page_index"":11,""viewing_time"":3415}]","","","","","","","","","","","","","","","",""
"html-button-response","7","376899","0.0-3.0-2.0-0.0-0.0","60d6befca58e40d0c63bba9f","6662009ae78f21dd82fcd179","6662081d9a2c7c294fca07d3","34656","","1","","","","","","","","<div align=center>Your goal is to predict…?<br><br></div>","","","","","","","","","",""
"html-button-response","8","396858","0.0-3.0-2.0-1.0-0.0","60d6befca58e40d0c63bba9f","6662009ae78f21dd82fcd179","6662081d9a2c7c294fca07d3","17826","","2","","","","","","","","<div align=center>In the jar with mostly white beads, there are ___% white beads and ___% black beads?<br><br></div>","","","","","","","","","",""
"html-button-response","9","418259","0.0-3.0-2.0-2.0-0.0","60d6befca58e40d0c63bba9f","6662009ae78f21dd82fcd179","6662081d9a2c7c294fca07d3","19855","","0","","","","","","","","<div align=center>When there is a 1% probability that the jars will switch, the next bead will most likely be drawn from the…<br><br></div>","","","","","","","","","",""
"html-button-response","10","423268","0.0-3.0-2.0-3.0-0.0","60d6befca58e40d0c63bba9f","6662009ae78f21dd82fcd179","6662081d9a2c7c294fca07d3","3222","","1","","","","","","","","<div align=center>When there is a 99% probability that the jars will switch, the next bead will most likely be drawn from the…<br><br></div>","","","","","","","","","",""
"instructions","11","431291","0.0-3.0-3.0","60d6befca58e40d0c63bba9f","6662009ae78f21dd82fcd179","6662081d9a2c7c294fca07d3","6062","","","","[{""page_index"":0,""viewing_time"":6062}]","","","","","","","","","","","","","","","",""
"html-keyboard-response","12","438482","0.0-3.0-4.0-0.0","60d6befca58e40d0c63bba9f","6662009ae78f21dd82fcd179","6662081d9a2c7c294fca07d3","7190",""," ","","","","","","","","<div align=center>In this practice block, there will be a <b>1% chance</b> that the jar on the next trial will be different from the jar on the current trial.<br><br></div>","","","","","","","","","",""
"image-keyboard-response","13","439453","0.0-3.0-4.0-1.0-0.0","60d6befca58e40d0c63bba9f","6662009ae78f21dd82fcd179","6662081d9a2c7c294fca07d3","935","","f","","","","","","","","./tasks/HMM-beads/Images/NoChoice.png","practice","0","0","0","0","9","0","true","",""
"image-keyboard-response","14","439791","0.0-3.0-4.0-1.0-1.0","60d6befca58e40d0c63bba9f","6662009ae78f21dd82fcd179","6662081d9a2c7c294fca07d3","null","","null","","","","","","","","./tasks/HMM-beads/Images/BlackBeadChoice.png","","","","","","","","","",""
"image-keyboard-response","15","440322","0.0-3.0-4.0-1.0-2.0","60d6befca58e40d0c63bba9f","6662009ae78f21dd82fcd179","6662081d9a2c7c294fca07d3","null","","null","","","","","","","","./tasks/HMM-beads/Images/BlackBeadChoiceCorrect.png","","","","","","","","","",""
"image-keyboard-response","16","440377","0.0-3.0-4.0-1.0-0.1","60d6befca58e40d0c63bba9f","6662009ae78f21dd82fcd179","6662081d9a2c7c294fca07d3","31","","f","","","","","","","","./tasks/HMM-beads/Images/NewTrialBC.png","practice","0","1","0","0","0","0","true","",""
"image-keyboard-response","17","440681","0.0-3.0-4.0-1.0-1.1","60d6befca58e40d0c63bba9f","6662009ae78f21dd82fcd179","6662081d9a2c7c294fca07d3","null","","null","","","","","","","","./tasks/HMM-beads/Images/BlackBeadChoice.png","","","","","","","","","",""
"image-keyboard-response","18","441187","0.0-3.0-4.0-1.0-2.1","60d6befca58e40d0c63bba9f","6662009ae78f21dd82fcd179","6662081d9a2c7c294fca07d3","null","","null","","","","","","","","./tasks/HMM-beads/Images/BlackBeadChoiceCorrect.png","","","","","","","","","",""
"image-keyboard-response","19","441976","0.0-3.0-4.0-1.0-0.2","60d6befca58e40d0c63bba9f","6662009ae78f21dd82fcd179","6662081d9a2c7c294fca07d3","787","","f","","","","","","","","./tasks/HMM-beads/Images/NewTrialBC.png","practice","0","2","0","1","0","0","false","",""
"image-keyboard-response","20","442278","0.0-3.0-4.0-1.0-1.2","60d6befca58e40d0c63bba9f","6662009ae78f21dd82fcd179","6662081d9a2c7c294fca07d3","null","","null","","","","","","","","./tasks/HMM-beads/Images/BlackBeadChoice.png","","","","","","","","","",""
"image-keyboard-response","21","442813","0.0-3.0-4.0-1.0-2.2","60d6befca58e40d0c63bba9f","6662009ae78f21dd82fcd179","6662081d9a2c7c294fca07d3","null","","null","","","","","","","","./tasks/HMM-beads/Images/BlackBeadChoiceWrong.png","","","","","","","","","",""
"image-keyboard-response","22","443280","0.0-3.0-4.0-1.0-0.3","60d6befca58e40d0c63bba9f","6662009ae78f21dd82fcd179","6662081d9a2c7c294fca07d3","443","","f","","","","","","","","./tasks/HMM-beads/Images/NewTrialWC.png","practice","0","3","0","0","1","0","true","",""
"image-keyboard-response","23","443584","0.0-3.0-4.0-1.0-1.3","60d6befca58e40d0c63bba9f","6662009ae78f21dd82fcd179","6662081d9a2c7c294fca07d3","null","","null","","","","","","","","./tasks/HMM-beads/Images/BlackBeadChoice.png","","","","","","","","","",""
"image-keyboard-response","24","444088","0.0-3.0-4.0-1.0-2.3","60d6befca58e40d0c63bba9f","6662009ae78f21dd82fcd179","6662081d9a2c7c294fca07d3","null","","null","","","","","","","","./tasks/HMM-beads/Images/BlackBeadChoiceCorrect.png","","","","","","","","","",""
"image-keyboard-response","25","444568","0.0-3.0-4.0-1.0-0.4","60d6befca58e40d0c63bba9f","6662009ae78f21dd82fcd179","6662081d9a2c7c294fca07d3","478","","j","","","","","","","","./tasks/HMM-beads/Images/NewTrialBC.png","practice","0","4","0","0","0","1","false","",""
"image-keyboard-response","26","444912","0.0-3.0-4.0-1.0-1.4","60d6befca58e40d0c63bba9f","6662009ae78f21dd82fcd179","6662081d9a2c7c294fca07d3","null","","null","","","","","","","","./tasks/HMM-beads/Images/WhiteBeadChoice.png","","","","","","","","","",""
"image-keyboard-response","27","445440","0.0-3.0-4.0-1.0-2.4","60d6befca58e40d0c63bba9f","6662009ae78f21dd82fcd179","6662081d9a2c7c294fca07d3","null","","null","","","","","","","","./tasks/HMM-beads/Images/WhiteBeadChoiceWrong.png","","","","","","","","","",""
"image-keyboard-response","28","445618","0.0-3.0-4.0-1.0-0.5","60d6befca58e40d0c63bba9f","6662009ae78f21dd82fcd179","6662081d9a2c7c294fca07d3","175","","j","","","","","","","","./tasks/HMM-beads/Images/NewTrialBC.png","practice","0","5","0","1","0","1","true","",""
"image-keyboard-response","29","445931","0.0-3.0-4.0-1.0-1.5","60d6befca58e40d0c63bba9f","6662009ae78f21dd82fcd179","6662081d9a2c7c294fca07d3","null","","null","","","","","","","","./tasks/HMM-beads/Images/WhiteBeadChoice.png","","","","","","","","","",""
"image-keyboard-response","30","446457","0.0-3.0-4.0-1.0-2.5","60d6befca58e40d0c63bba9f","6662009ae78f21dd82fcd179","6662081d9a2c7c294fca07d3","null","","null","","","","","","","","./tasks/HMM-beads/Images/WhiteBeadChoiceCorrect.png","","","","","","","","","",""
"image-keyboard-response","31","446478","0.0-3.0-4.0-1.0-0.6","60d6befca58e40d0c63bba9f","6662009ae78f21dd82fcd179","6662081d9a2c7c294fca07d3","19","","j","","","","","","","","./tasks/HMM-beads/Images/NewTrialWC.png","practice","0","6","0","0","1","1","false","",""
"image-keyboard-response","32","446799","0.0-3.0-4.0-1.0-1.6","60d6befca58e40d0c63bba9f","6662009ae78f21dd82fcd179","6662081d9a2c7c294fca07d3","null","","null","","","","","","","","./tasks/HMM-beads/Images/WhiteBeadChoice.png","","","","","","","","","",""
"image-keyboard-response","33","447307","0.0-3.0-4.0-1.0-2.6","60d6befca58e40d0c63bba9f","6662009ae78f21dd82fcd179","6662081d9a2c7c294fca07d3","null","","null","","","","","","","","./tasks/HMM-beads/Images/WhiteBeadChoiceWrong.png","","","","","","","","","",""
"image-keyboard-response","34","448103","0.0-3.0-4.0-1.0-0.7","60d6befca58e40d0c63bba9f","6662009ae78f21dd82fcd179","6662081d9a2c7c294fca07d3","795","","f","","","","","","","","./tasks/HMM-beads/Images/NewTrialBC.png","practice","0","7","0","0","0","0","true","",""
"image-keyboard-response","35","448412","0.0-3.0-4.0-1.0-1.7","60d6befca58e40d0c63bba9f","6662009ae78f21dd82fcd179","6662081d9a2c7c294fca07d3","null","","null","","","","","","","","./tasks/HMM-beads/Images/BlackBeadChoice.png","","","","","","","","","",""
"image-keyboard-response","36","448914","0.0-3.0-4.0-1.0-2.7","60d6befca58e40d0c63bba9f","6662009ae78f21dd82fcd179","6662081d9a2c7c294fca07d3","null","","null","","","","","","","","./tasks/HMM-beads/Images/BlackBeadChoiceCorrect.png","","","","","","","","","",""
"image-keyboard-response","37","449491","0.0-3.0-4.0-1.0-0.8","60d6befca58e40d0c63bba9f","6662009ae78f21dd82fcd179","6662081d9a2c7c294fca07d3","575","","f","","","","","","","","./tasks/HMM-beads/Images/NewTrialBC.png","practice","0","8","0","0","0","0","true","",""
"image-keyboard-response","38","449804","0.0-3.0-4.0-1.0-1.8","60d6befca58e40d0c63bba9f","6662009ae78f21dd82fcd179","6662081d9a2c7c294fca07d3","null","","null","","","","","","","","./tasks/HMM-beads/Images/BlackBeadChoice.png","","","","","","","","","",""
"image-keyboard-response","39","450315","0.0-3.0-4.0-1.0-2.8","60d6befca58e40d0c63bba9f","6662009ae78f21dd82fcd179","6662081d9a2c7c294fca07d3","null","","null","","","","","","","","./tasks/HMM-beads/Images/BlackBeadChoiceCorrect.png","","","","","","","","","",""
"image-keyboard-response","40","450806","0.0-3.0-4.0-1.0-0.9","60d6befca58e40d0c63bba9f","6662009ae78f21dd82fcd179","6662081d9a2c7c294fca07d3","490","","j","","","","","","","","./tasks/HMM-beads/Images/NewTrialBC.png","practice","0","9","0","1","0","1","true","",""
"image-keyboard-response","41","451113","0.0-3.0-4.0-1.0-1.9","60d6befca58e40d0c63bba9f","6662009ae78f21dd82fcd179","6662081d9a2c7c294fca07d3","null","","null","","","","","","","","./tasks/HMM-beads/Images/WhiteBeadChoice.png","","","","","","","","","",""
"image-keyboard-response","42","451632","0.0-3.0-4.0-1.0-2.9","60d6befca58e40d0c63bba9f","6662009ae78f21dd82fcd179","6662081d9a2c7c294fca07d3","null","","null","","","","","","","","./tasks/HMM-beads/Images/WhiteBeadChoiceCorrect.png","","","","","","","","","",""
"image-keyboard-response","43","452157","0.0-3.0-4.0-1.0-0.10","60d6befca58e40d0c63bba9f","6662009ae78f21dd82fcd179","6662081d9a2c7c294fca07d3","523","","f","","","","","","","","./tasks/HMM-beads/Images/NewTrialWC.png","practice","0","10","0","0","1","0","true","",""
"image-keyboard-response","44","452465","0.0-3.0-4.0-1.0-1.10","60d6befca58e40d0c63bba9f","6662009ae78f21dd82fcd179","6662081d9a2c7c294fca07d3","null","","null","","","","","","","","./tasks/HMM-beads/Images/BlackBeadChoice.png","","","","","","","","","",""
"image-keyboard-response","45","452967","0.0-3.0-4.0-1.0-2.10","60d6befca58e40d0c63bba9f","6662009ae78f21dd82fcd179","6662081d9a2c7c294fca07d3","null","","null","","","","","","","","./tasks/HMM-beads/Images/BlackBeadChoiceCorrect.png","","","","","","","","","",""
"image-keyboard-response","46","453670","0.0-3.0-4.0-1.0-0.11","60d6befca58e40d0c63bba9f","6662009ae78f21dd82fcd179","6662081d9a2c7c294fca07d3","699","","j","","","","","","","","./tasks/HMM-beads/Images/NewTrialBC.png","practice","0","11","0","1","0","1","true","",""
"image-keyboard-response","47","453983","0.0-3.0-4.0-1.0-1.11","60d6befca58e40d0c63bba9f","6662009ae78f21dd82fcd179","6662081d9a2c7c294fca07d3","null","","null","","","","","","","","./tasks/HMM-beads/Images/WhiteBeadChoice.png","","","","","","","","","",""
"image-keyboard-response","48","454500","0.0-3.0-4.0-1.0-2.11","60d6befca58e40d0c63bba9f","6662009ae78f21dd82fcd179","6662081d9a2c7c294fca07d3","null","","null","","","","","","","","./tasks/HMM-beads/Images/WhiteBeadChoiceCorrect.png","","","","","","","","","",""
"image-keyboard-response","49","455030","0.0-3.0-4.0-1.0-0.12","60d6befca58e40d0c63bba9f","6662009ae78f21dd82fcd179","6662081d9a2c7c294fca07d3","528","","j","","","","","","","","./tasks/HMM-beads/Images/NewTrialWC.png","practice","0","12","0","0","1","1","false","",""
"image-keyboard-response","50","455336","0.0-3.0-4.0-1.0-1.12","60d6befca58e40d0c63bba9f","6662009ae78f21dd82fcd179","6662081d9a2c7c294fca07d3","null","","null","","","","","","","","./tasks/HMM-beads/Images/WhiteBeadChoice.png","","","","","","","","","",""
"image-keyboard-response","51","455844","0.0-3.0-4.0-1.0-2.12","60d6befca58e40d0c63bba9f","6662009ae78f21dd82fcd179","6662081d9a2c7c294fca07d3","null","","null","","","","","","","","./tasks/HMM-beads/Images/WhiteBeadChoiceWrong.png","","","","","","","","","",""
"image-keyboard-response","52","456089","0.0-3.0-4.0-1.0-0.13","60d6befca58e40d0c63bba9f","6662009ae78f21dd82fcd179","6662081d9a2c7c294fca07d3","243","","j","","","","","","","","./tasks/HMM-beads/Images/NewTrialBC.png","practice","0","13","0","0","0","1","false","",""
"image-keyboard-response","53","456404","0.0-3.0-4.0-1.0-1.13","60d6befca58e40d0c63bba9f","6662009ae78f21dd82fcd179","6662081d9a2c7c294fca07d3","null","","null","","","","","","","","./tasks/HMM-beads/Images/WhiteBeadChoice.png","","","","","","","","","",""
"image-keyboard-response","54","456913","0.0-3.0-4.0-1.0-2.13","60d6befca58e40d0c63bba9f","6662009ae78f21dd82fcd179","6662081d9a2c7c294fca07d3","null","","null","","","","","","","","./tasks/HMM-beads/Images/WhiteBeadChoiceWrong.png","","","","","","","","","",""
"image-keyboard-response","55","456914","0.0-3.0-4.0-1.0-0.14","60d6befca58e40d0c63bba9f","6662009ae78f21dd82fcd179","6662081d9a2c7c294fca07d3","1","","f","","","","","","","","./tasks/HMM-beads/Images/NewTrialBC.png","practice","0","14","0","0","0","0","true","",""
"image-keyboard-response","56","457232","0.0-3.0-4.0-1.0-1.14","60d6befca58e40d0c63bba9f","6662009ae78f21dd82fcd179","6662081d9a2c7c294fca07d3","null","","null","","","","","","","","./tasks/HMM-beads/Images/BlackBeadChoice.png","","","","","","","","","",""
"image-keyboard-response","57","457756","0.0-3.0-4.0-1.0-2.14","60d6befca58e40d0c63bba9f","6662009ae78f21dd82fcd179","6662081d9a2c7c294fca07d3","null","","null","","","","","","","","./tasks/HMM-beads/Images/BlackBeadChoiceCorrect.png","","","","","","","","","",""
"image-keyboard-response","58","458003","0.0-3.0-4.0-1.0-0.15","60d6befca58e40d0c63bba9f","6662009ae78f21dd82fcd179","6662081d9a2c7c294fca07d3","246","","f","","","","","","","","./tasks/HMM-beads/Images/NewTrialBC.png","practice","0","15","0","0","0","0","true","",""
"image-keyboard-response","59","458307","0.0-3.0-4.0-1.0-1.15","60d6befca58e40d0c63bba9f","6662009ae78f21dd82fcd179","6662081d9a2c7c294fca07d3","null","","null","","","","","","","","./tasks/HMM-beads/Images/BlackBeadChoice.png","","","","","","","","","",""
"image-keyboard-response","60","458834","0.0-3.0-4.0-1.0-2.15","60d6befca58e40d0c63bba9f","6662009ae78f21dd82fcd179","6662081d9a2c7c294fca07d3","null","","null","","","","","","","","./tasks/HMM-beads/Images/BlackBeadChoiceCorrect.png","","","","","","","","","",""
"image-keyboard-response","61","459108","0.0-3.0-4.0-1.0-0.16","60d6befca58e40d0c63bba9f","6662009ae78f21dd82fcd179","6662081d9a2c7c294fca07d3","272","","f","","","","","","","","./tasks/HMM-beads/Images/NewTrialBC.png","practice","0","16","0","0","0","0","true","",""
"image-keyboard-response","62","459427","0.0-3.0-4.0-1.0-1.16","60d6befca58e40d0c63bba9f","6662009ae78f21dd82fcd179","6662081d9a2c7c294fca07d3","null","","null","","","","","","","","./tasks/HMM-beads/Images/BlackBeadChoice.png","","","","","","","","","",""
"image-keyboard-response","63","459936","0.0-3.0-4.0-1.0-2.16","60d6befca58e40d0c63bba9f","6662009ae78f21dd82fcd179","6662081d9a2c7c294fca07d3","null","","null","","","","","","","","./tasks/HMM-beads/Images/BlackBeadChoiceCorrect.png","","","","","","","","","",""
"image-keyboard-response","64","460226","0.0-3.0-4.0-1.0-0.17","60d6befca58e40d0c63bba9f","6662009ae78f21dd82fcd179","6662081d9a2c7c294fca07d3","290","","j","","","","","","","","./tasks/HMM-beads/Images/NewTrialBC.png","practice","0","17","0","0","0","1","false","",""
"image-keyboard-response","65","460541","0.0-3.0-4.0-1.0-1.17","60d6befca58e40d0c63bba9f","6662009ae78f21dd82fcd179","6662081d9a2c7c294fca07d3","null","","null","","","","","","","","./tasks/HMM-beads/Images/WhiteBeadChoice.png","","","","","","","","","",""
"image-keyboard-response","66","461058","0.0-3.0-4.0-1.0-2.17","60d6befca58e40d0c63bba9f","6662009ae78f21dd82fcd179","6662081d9a2c7c294fca07d3","null","","null","","","","","","","","./tasks/HMM-beads/Images/WhiteBeadChoiceWrong.png","","","","","","","","","",""
"image-keyboard-response","67","461176","0.0-3.0-4.0-1.0-0.18","60d6befca58e40d0c63bba9f","6662009ae78f21dd82fcd179","6662081d9a2c7c294fca07d3","117","","f","","","","","","","","./tasks/HMM-beads/Images/NewTrialBC.png","practice","0","18","0","1","0","0","false","",""
"image-keyboard-response","68","461481","0.0-3.0-4.0-1.0-1.18","60d6befca58e40d0c63bba9f","6662009ae78f21dd82fcd179","6662081d9a2c7c294fca07d3","null","","null","","","","","","","","./tasks/HMM-beads/Images/BlackBeadChoice.png","","","","","","","","","",""
"image-keyboard-response","69","461997","0.0-3.0-4.0-1.0-2.18","60d6befca58e40d0c63bba9f","6662009ae78f21dd82fcd179","6662081d9a2c7c294fca07d3","null","","null","","","","","","","","./tasks/HMM-beads/Images/BlackBeadChoiceWrong.png","","","","","","","","","",""
"image-keyboard-response","70","462081","0.0-3.0-4.0-1.0-0.19","60d6befca58e40d0c63bba9f","6662009ae78f21dd82fcd179","6662081d9a2c7c294fca07d3","82","","f","","","","","","","","./tasks/HMM-beads/Images/NewTrialWC.png","practice","0","19","0","0","1","0","true","",""
"image-keyboard-response","71","462395","0.0-3.0-4.0-1.0-1.19","60d6befca58e40d0c63bba9f","6662009ae78f21dd82fcd179","6662081d9a2c7c294fca07d3","null","","null","","","","","","","","./tasks/HMM-beads/Images/BlackBeadChoice.png","","","","","","","","","",""
"image-keyboard-response","72","462901","0.0-3.0-4.0-1.0-2.19","60d6befca58e40d0c63bba9f","6662009ae78f21dd82fcd179","6662081d9a2c7c294fca07d3","null","","null","","","","","","","","./tasks/HMM-beads/Images/BlackBeadChoiceCorrect.png","","","","","","","","","",""
"image-keyboard-response","73","463189","0.0-3.0-4.0-1.0-0.20","60d6befca58e40d0c63bba9f","6662009ae78f21dd82fcd179","6662081d9a2c7c294fca07d3","286","","j","","","","","","","","./tasks/HMM-beads/Images/NewTrialBC.png","practice","0","20","0","0","0","1","false","",""
"image-keyboard-response","74","463502","0.0-3.0-4.0-1.0-1.20","60d6befca58e40d0c63bba9f","6662009ae78f21dd82fcd179","6662081d9a2c7c294fca07d3","null","","null","","","","","","","","./tasks/HMM-beads/Images/WhiteBeadChoice.png","","","","","","","","","",""
"image-keyboard-response","75","464014","0.0-3.0-4.0-1.0-2.20","60d6befca58e40d0c63bba9f","6662009ae78f21dd82fcd179","6662081d9a2c7c294fca07d3","null","","null","","","","","","","","./tasks/HMM-beads/Images/WhiteBeadChoiceWrong.png","","","","","","","","","",""
"image-keyboard-response","76","464376","0.0-3.0-4.0-1.0-0.21","60d6befca58e40d0c63bba9f","6662009ae78f21dd82fcd179","6662081d9a2c7c294fca07d3","360","","f","","","","","","","","./tasks/HMM-beads/Images/NewTrialBC.png","practice","0","21","0","1","0","0","false","",""
"image-keyboard-response","77","464689","0.0-3.0-4.0-1.0-1.21","60d6befca58e40d0c63bba9f","6662009ae78f21dd82fcd179","6662081d9a2c7c294fca07d3","null","","null","","","","","","","","./tasks/HMM-beads/Images/BlackBeadChoice.png","","","","","","","","","",""
"image-keyboard-response","78","465223","0.0-3.0-4.0-1.0-2.21","60d6befca58e40d0c63bba9f","6662009ae78f21dd82fcd179","6662081d9a2c7c294fca07d3","null","","null","","","","","","","","./tasks/HMM-beads/Images/BlackBeadChoiceWrong.png","","","","","","","","","",""
"image-keyboard-response","79","465818","0.0-3.0-4.0-1.0-0.22","60d6befca58e40d0c63bba9f","6662009ae78f21dd82fcd179","6662081d9a2c7c294fca07d3","593","","j","","","","","","","","./tasks/HMM-beads/Images/NewTrialWC.png","practice","0","22","1","1","1","1","true","",""
"image-keyboard-response","80","466125","0.0-3.0-4.0-1.0-1.22","60d6befca58e40d0c63bba9f","6662009ae78f21dd82fcd179","6662081d9a2c7c294fca07d3","null","","null","","","","","","","","./tasks/HMM-beads/Images/WhiteBeadChoice.png","","","","","","","","","",""
"image-keyboard-response","81","466627","0.0-3.0-4.0-1.0-2.22","60d6befca58e40d0c63bba9f","6662009ae78f21dd82fcd179","6662081d9a2c7c294fca07d3","null","","null","","","","","","","","./tasks/HMM-beads/Images/WhiteBeadChoiceCorrect.png","","","","","","","","","",""
"image-keyboard-response","82","466743","0.0-3.0-4.0-1.0-0.23","60d6befca58e40d0c63bba9f","6662009ae78f21dd82fcd179","6662081d9a2c7c294fca07d3","114","","j","","","","","","","","./tasks/HMM-beads/Images/NewTrialWC.png","practice","0","23","1","0","1","1","false","",""
"image-keyboard-response","83","467057","0.0-3.0-4.0-1.0-1.23","60d6befca58e40d0c63bba9f","6662009ae78f21dd82fcd179","6662081d9a2c7c294fca07d3","null","","null","","","","","","","","./tasks/HMM-beads/Images/WhiteBeadChoice.png","","","","","","","","","",""
"image-keyboard-response","84","467570","0.0-3.0-4.0-1.0-2.23","60d6befca58e40d0c63bba9f","6662009ae78f21dd82fcd179","6662081d9a2c7c294fca07d3","null","","null","","","","","","","","./tasks/HMM-beads/Images/WhiteBeadChoiceWrong.png","","","","","","","","","",""
"image-keyboard-response","85","467973","0.0-3.0-4.0-1.0-0.24","60d6befca58e40d0c63bba9f","6662009ae78f21dd82fcd179","6662081d9a2c7c294fca07d3","401","","j","","","","","","","","./tasks/HMM-beads/Images/NewTrialBC.png","practice","0","24","1","1","0","1","true","",""
"image-keyboard-response","86","468301","0.0-3.0-4.0-1.0-1.24","60d6befca58e40d0c63bba9f","6662009ae78f21dd82fcd179","6662081d9a2c7c294fca07d3","null","","null","","","","","","","","./tasks/HMM-beads/Images/WhiteBeadChoice.png","","","","","","","","","",""
"image-keyboard-response","87","468816","0.0-3.0-4.0-1.0-2.24","60d6befca58e40d0c63bba9f","6662009ae78f21dd82fcd179","6662081d9a2c7c294fca07d3","null","","null","","","","","","","","./tasks/HMM-beads/Images/WhiteBeadChoiceCorrect.png","","","","","","","","","",""
"image-keyboard-response","88","469597","0.0-3.0-4.0-1.0-0.25","60d6befca58e40d0c63bba9f","6662009ae78f21dd82fcd179","6662081d9a2c7c294fca07d3","779","","f","","","","","","","","./tasks/HMM-beads/Images/NewTrialWC.png","practice","0","25","1","1","1","0","false","",""
"image-keyboard-response","89","469902","0.0-3.0-4.0-1.0-1.25","60d6befca58e40d0c63bba9f","6662009ae78f21dd82fcd179","6662081d9a2c7c294fca07d3","null","","null","","","","","","","","./tasks/HMM-beads/Images/BlackBeadChoice.png","","","","","","","","","",""
"image-keyboard-response","90","470422","0.0-3.0-4.0-1.0-2.25","60d6befca58e40d0c63bba9f","6662009ae78f21dd82fcd179","6662081d9a2c7c294fca07d3","null","","null","","","","","","","","./tasks/HMM-beads/Images/BlackBeadChoiceWrong.png","","","","","","","","","",""
"image-keyboard-response","91","470841","0.0-3.0-4.0-1.0-0.26","60d6befca58e40d0c63bba9f","6662009ae78f21dd82fcd179","6662081d9a2c7c294fca07d3","418","","j","","","","","","","","./tasks/HMM-beads/Images/NewTrialWC.png","practice","0","26","1","1","1","1","true","",""
"image-keyboard-response","92","471152","0.0-3.0-4.0-1.0-1.26","60d6befca58e40d0c63bba9f","6662009ae78f21dd82fcd179","6662081d9a2c7c294fca07d3","null","","null","","","","","","","","./tasks/HMM-beads/Images/WhiteBeadChoice.png","","","","","","","","","",""
"image-keyboard-response","93","471667","0.0-3.0-4.0-1.0-2.26","60d6befca58e40d0c63bba9f","6662009ae78f21dd82fcd179","6662081d9a2c7c294fca07d3","null","","null","","","","","","","","./tasks/HMM-beads/Images/WhiteBeadChoiceCorrect.png","","","","","","","","","",""
"image-keyboard-response","94","471745","0.0-3.0-4.0-1.0-0.27","60d6befca58e40d0c63bba9f","6662009ae78f21dd82fcd179","6662081d9a2c7c294fca07d3","77","","j","","","","","","","","./tasks/HMM-beads/Images/NewTrialWC.png","practice","0","27","1","1","1","1","true","",""
"image-keyboard-response","95","472066","0.0-3.0-4.0-1.0-1.27","60d6befca58e40d0c63bba9f","6662009ae78f21dd82fcd179","6662081d9a2c7c294fca07d3","null","","null","","","","","","","","./tasks/HMM-beads/Images/WhiteBeadChoice.png","","","","","","","","","",""
"image-keyboard-response","96","472581","0.0-3.0-4.0-1.0-2.27","60d6befca58e40d0c63bba9f","6662009ae78f21dd82fcd179","6662081d9a2c7c294fca07d3","null","","null","","","","","","","","./tasks/HMM-beads/Images/WhiteBeadChoiceCorrect.png","","","","","","","","","",""
"image-keyboard-response","97","472584","0.0-3.0-4.0-1.0-0.28","60d6befca58e40d0c63bba9f","6662009ae78f21dd82fcd179","6662081d9a2c7c294fca07d3","2","","j","","","","","","","","./tasks/HMM-beads/Images/NewTrialWC.png","practice","0","28","1","0","1","1","false","",""
"image-keyboard-response","98","472895","0.0-3.0-4.0-1.0-1.28","60d6befca58e40d0c63bba9f","6662009ae78f21dd82fcd179","6662081d9a2c7c294fca07d3","null","","null","","","","","","","","./tasks/HMM-beads/Images/WhiteBeadChoice.png","","","","","","","","","",""
"image-keyboard-response","99","473446","0.0-3.0-4.0-1.0-2.28","60d6befca58e40d0c63bba9f","6662009ae78f21dd82fcd179","6662081d9a2c7c294fca07d3","null","","null","","","","","","","","./tasks/HMM-beads/Images/WhiteBeadChoiceWrong.png","","","","","","","","","",""
"image-keyboard-response","100","484019","0.0-3.0-4.0-1.0-0.29","60d6befca58e40d0c63bba9f","6662009ae78f21dd82fcd179","6662081d9a2c7c294fca07d3","10572","","j","","","","","","","","./tasks/HMM-beads/Images/NewTrialBC.png","practice","0","29","1","1","0","1","true","",""
"image-keyboard-response","101","484326","0.0-3.0-4.0-1.0-1.29","60d6befca58e40d0c63bba9f","6662009ae78f21dd82fcd179","6662081d9a2c7c294fca07d3","null","","null","","","","","","","","./tasks/HMM-beads/Images/WhiteBeadChoice.png","","","","","","","","","",""
"image-keyboard-response","102","484834","0.0-3.0-4.0-1.0-2.29","60d6befca58e40d0c63bba9f","6662009ae78f21dd82fcd179","6662081d9a2c7c294fca07d3","null","","null","","","","","","","","./tasks/HMM-beads/Images/WhiteBeadChoiceCorrect.png","","","","","","","","","",""
"image-keyboard-response","103","485167","0.0-3.0-4.0-1.0-0.30","60d6befca58e40d0c63bba9f","6662009ae78f21dd82fcd179","6662081d9a2c7c294fca07d3","333","","j","","","","","","","","./tasks/HMM-beads/Images/NewTrialWC.png","practice","0","30","1","0","1","1","false","",""
"image-keyboard-response","104","485480","0.0-3.0-4.0-1.0-1.30","60d6befca58e40d0c63bba9f","6662009ae78f21dd82fcd179","6662081d9a2c7c294fca07d3","null","","null","","","","","","","","./tasks/HMM-beads/Images/WhiteBeadChoice.png","","","","","","","","","",""
"image-keyboard-response","105","486034","0.0-3.0-4.0-1.0-2.30","60d6befca58e40d0c63bba9f","6662009ae78f21dd82fcd179","6662081d9a2c7c294fca07d3","null","","null","","","","","","","","./tasks/HMM-beads/Images/WhiteBeadChoiceWrong.png","","","","","","","","","",""
"image-keyboard-response","106","486403","0.0-3.0-4.0-1.0-0.31","60d6befca58e40d0c63bba9f","6662009ae78f21dd82fcd179","6662081d9a2c7c294fca07d3","368","","f","","","","","","","","./tasks/HMM-beads/Images/NewTrialBC.png","practice","0","31","1","1","0","0","false","",""
"image-keyboard-response","107","486715","0.0-3.0-4.0-1.0-1.31","60d6befca58e40d0c63bba9f","6662009ae78f21dd82fcd179","6662081d9a2c7c294fca07d3","null","","null","","","","","","","","./tasks/HMM-beads/Images/BlackBeadChoice.png","","","","","","","","","",""
"image-keyboard-response","108","487276","0.0-3.0-4.0-1.0-2.31","60d6befca58e40d0c63bba9f","6662009ae78f21dd82fcd179","6662081d9a2c7c294fca07d3","null","","null","","","","","","","","./tasks/HMM-beads/Images/BlackBeadChoiceWrong.png","","","","","","","","","",""
"image-keyboard-response","109","487711","0.0-3.0-4.0-1.0-0.32","60d6befca58e40d0c63bba9f","6662009ae78f21dd82fcd179","6662081d9a2c7c294fca07d3","434","","f","","","","","","","","./tasks/HMM-beads/Images/NewTrialWC.png","practice","0","32","1","1","1","0","false","",""
"image-keyboard-response","110","488048","0.0-3.0-4.0-1.0-1.32","60d6befca58e40d0c63bba9f","6662009ae78f21dd82fcd179","6662081d9a2c7c294fca07d3","null","","null","","","","","","","","./tasks/HMM-beads/Images/BlackBeadChoice.png","","","","","","","","","",""
"image-keyboard-response","111","488631","0.0-3.0-4.0-1.0-2.32","60d6befca58e40d0c63bba9f","6662009ae78f21dd82fcd179","6662081d9a2c7c294fca07d3","null","","null","","","","","","","","./tasks/HMM-beads/Images/BlackBeadChoiceWrong.png","","","","","","","","","",""
"image-keyboard-response","112","488755","0.0-3.0-4.0-1.0-0.33","60d6befca58e40d0c63bba9f","6662009ae78f21dd82fcd179","6662081d9a2c7c294fca07d3","122","","j","","","","","","","","./tasks/HMM-beads/Images/NewTrialWC.png","practice","0","33","1","1","1","1","true","",""
"image-keyboard-response","113","489065","0.0-3.0-4.0-1.0-1.33","60d6befca58e40d0c63bba9f","6662009ae78f21dd82fcd179","6662081d9a2c7c294fca07d3","null","","null","","","","","","","","./tasks/HMM-beads/Images/WhiteBeadChoice.png","","","","","","","","","",""
"image-keyboard-response","114","489575","0.0-3.0-4.0-1.0-2.33","60d6befca58e40d0c63bba9f","6662009ae78f21dd82fcd179","6662081d9a2c7c294fca07d3","null","","null","","","","","","","","./tasks/HMM-beads/Images/WhiteBeadChoiceCorrect.png","","","","","","","","","",""
"image-keyboard-response","115","489763","0.0-3.0-4.0-1.0-0.34","60d6befca58e40d0c63bba9f","6662009ae78f21dd82fcd179","6662081d9a2c7c294fca07d3","188","","f","","","","","","","","./tasks/HMM-beads/Images/NewTrialWC.png","practice","0","34","1","1","1","0","false","",""
"image-keyboard-response","116","490081","0.0-3.0-4.0-1.0-1.34","60d6befca58e40d0c63bba9f","6662009ae78f21dd82fcd179","6662081d9a2c7c294fca07d3","null","","null","","","","","","","","./tasks/HMM-beads/Images/BlackBeadChoice.png","","","","","","","","","",""
"image-keyboard-response","117","490663","0.0-3.0-4.0-1.0-2.34","60d6befca58e40d0c63bba9f","6662009ae78f21dd82fcd179","6662081d9a2c7c294fca07d3","null","","null","","","","","","","","./tasks/HMM-beads/Images/BlackBeadChoiceWrong.png","","","","","","","","","",""
"image-keyboard-response","118","490794","0.0-3.0-4.0-1.0-0.35","60d6befca58e40d0c63bba9f","6662009ae78f21dd82fcd179","6662081d9a2c7c294fca07d3","131","","j","","","","","","","","./tasks/HMM-beads/Images/NewTrialWC.png","practice","0","35","1","1","1","1","true","",""
"image-keyboard-response","119","491105","0.0-3.0-4.0-1.0-1.35","60d6befca58e40d0c63bba9f","6662009ae78f21dd82fcd179","6662081d9a2c7c294fca07d3","null","","null","","","","","","","","./tasks/HMM-beads/Images/WhiteBeadChoice.png","","","","","","","","","",""
"image-keyboard-response","120","491610","0.0-3.0-4.0-1.0-2.35","60d6befca58e40d0c63bba9f","6662009ae78f21dd82fcd179","6662081d9a2c7c294fca07d3","null","","null","","","","","","","","./tasks/HMM-beads/Images/WhiteBeadChoiceCorrect.png","","","","","","","","","",""
"image-keyboard-response","121","491858","0.0-3.0-4.0-1.0-0.36","60d6befca58e40d0c63bba9f","6662009ae78f21dd82fcd179","6662081d9a2c7c294fca07d3","248","","f","","","","","","","","./tasks/HMM-beads/Images/NewTrialWC.png","practice","0","36","1","0","1","0","true","",""
"image-keyboard-response","122","492174","0.0-3.0-4.0-1.0-1.36","60d6befca58e40d0c63bba9f","6662009ae78f21dd82fcd179","6662081d9a2c7c294fca07d3","null","","null","","","","","","","","./tasks/HMM-beads/Images/BlackBeadChoice.png","","","","","","","","","",""
"image-keyboard-response","123","492676","0.0-3.0-4.0-1.0-2.36","60d6befca58e40d0c63bba9f","6662009ae78f21dd82fcd179","6662081d9a2c7c294fca07d3","null","","null","","","","","","","","./tasks/HMM-beads/Images/BlackBeadChoiceCorrect.png","","","","","","","","","",""
"image-keyboard-response","124","492700","0.0-3.0-4.0-1.0-0.37","60d6befca58e40d0c63bba9f","6662009ae78f21dd82fcd179","6662081d9a2c7c294fca07d3","22","","j","","","","","","","","./tasks/HMM-beads/Images/NewTrialBC.png","practice","0","37","1","1","0","1","true","",""
"image-keyboard-response","125","493003","0.0-3.0-4.0-1.0-1.37","60d6befca58e40d0c63bba9f","6662009ae78f21dd82fcd179","6662081d9a2c7c294fca07d3","null","","null","","","","","","","","./tasks/HMM-beads/Images/WhiteBeadChoice.png","","","","","","","","","",""
"image-keyboard-response","126","493513","0.0-3.0-4.0-1.0-2.37","60d6befca58e40d0c63bba9f","6662009ae78f21dd82fcd179","6662081d9a2c7c294fca07d3","null","","null","","","","","","","","./tasks/HMM-beads/Images/WhiteBeadChoiceCorrect.png","","","","","","","","","",""
"image-keyboard-response","127","493681","0.0-3.0-4.0-1.0-0.38","60d6befca58e40d0c63bba9f","6662009ae78f21dd82fcd179","6662081d9a2c7c294fca07d3","166","","j","","","","","","","","./tasks/HMM-beads/Images/NewTrialWC.png","practice","0","38","1","1","1","1","true","",""
"image-keyboard-response","128","493994","0.0-3.0-4.0-1.0-1.38","60d6befca58e40d0c63bba9f","6662009ae78f21dd82fcd179","6662081d9a2c7c294fca07d3","null","","null","","","","","","","","./tasks/HMM-beads/Images/WhiteBeadChoice.png","","","","","","","","","",""
"image-keyboard-response","129","494504","0.0-3.0-4.0-1.0-2.38","60d6befca58e40d0c63bba9f","6662009ae78f21dd82fcd179","6662081d9a2c7c294fca07d3","null","","null","","","","","","","","./tasks/HMM-beads/Images/WhiteBeadChoiceCorrect.png","","","","","","","","","",""
"image-keyboard-response","130","494518","0.0-3.0-4.0-1.0-0.39","60d6befca58e40d0c63bba9f","6662009ae78f21dd82fcd179","6662081d9a2c7c294fca07d3","13","","j","","","","","","","","./tasks/HMM-beads/Images/NewTrialWC.png","practice","0","39","1","1","1","1","true","",""
"image-keyboard-response","131","494832","0.0-3.0-4.0-1.0-1.39","60d6befca58e40d0c63bba9f","6662009ae78f21dd82fcd179","6662081d9a2c7c294fca07d3","null","","null","","","","","","","","./tasks/HMM-beads/Images/WhiteBeadChoice.png","","","","","","","","","",""
"image-keyboard-response","132","495355","0.0-3.0-4.0-1.0-2.39","60d6befca58e40d0c63bba9f","6662009ae78f21dd82fcd179","6662081d9a2c7c294fca07d3","null","","null","","","","","","","","./tasks/HMM-beads/Images/WhiteBeadChoiceCorrect.png","","","","","","","","","",""
"html-keyboard-response","133","499083","0.0-3.0-4.0-2.0","60d6befca58e40d0c63bba9f","6662009ae78f21dd82fcd179","6662081d9a2c7c294fca07d3","3726",""," ","","","","","","","","","","","","","","","","","",""
"instructions","134","516627","0.0-3.0-5.0","60d6befca58e40d0c63bba9f","6662009ae78f21dd82fcd179","6662081d9a2c7c294fca07d3","17540","","","","[{""page_index"":0,""viewing_time"":14466},{""page_index"":1,""viewing_time"":3074}]","","","","","","","","","","","","","","","",""
"html-keyboard-response","135","519051","0.0-3.0-6.0-0.0","60d6befca58e40d0c63bba9f","6662009ae78f21dd82fcd179","6662081d9a2c7c294fca07d3","2421",""," ","","","","","","","","<div align=center>In this block, there will be a <b>1% chance</b> that the jar on the next trial will be different from the jar on the current trial.<br><br></div>","","","","","","","","","",""
"image-keyboard-response","136","519654","0.0-3.0-6.0-1.0-0.0","60d6befca58e40d0c63bba9f","6662009ae78f21dd82fcd179","6662081d9a2c7c294fca07d3","602","","f","","","","","","","","./tasks/HMM-beads/Images/NoChoice.png","lowH","1","0","1","0","9","0","true","",""
"image-keyboard-response","137","519960","0.0-3.0-6.0-1.0-1.0","60d6befca58e40d0c63bba9f","6662009ae78f21dd82fcd179","6662081d9a2c7c294fca07d3","null","","null","","","","","","","","./tasks/HMM-beads/Images/BlackBeadChoice.png","","","","","","","","","",""
"image-keyboard-response","138","520471","0.0-3.0-6.0-1.0-2.0","60d6befca58e40d0c63bba9f","6662009ae78f21dd82fcd179","6662081d9a2c7c294fca07d3","null","","null","","","","","","","","./tasks/HMM-beads/Images/BlackBeadChoiceCorrect.png","","","","","","","","","",""
"image-keyboard-response","139","520748","0.0-3.0-6.0-1.0-0.1","60d6befca58e40d0c63bba9f","6662009ae78f21dd82fcd179","6662081d9a2c7c294fca07d3","275","","f","","","","","","","","./tasks/HMM-beads/Images/NewTrialBC.png","lowH","1","1","1","1","0","0","false","",""
"image-keyboard-response","140","521060","0.0-3.0-6.0-1.0-1.1","60d6befca58e40d0c63bba9f","6662009ae78f21dd82fcd179","6662081d9a2c7c294fca07d3","null","","null","","","","","","","","./tasks/HMM-beads/Images/BlackBeadChoice.png","","","","","","","","","",""
"image-keyboard-response","141","521572","0.0-3.0-6.0-1.0-2.1","60d6befca58e40d0c63bba9f","6662009ae78f21dd82fcd179","6662081d9a2c7c294fca07d3","null","","null","","","","","","","","./tasks/HMM-beads/Images/BlackBeadChoiceWrong.png","","","","","","","","","",""
"image-keyboard-response","142","521755","0.0-3.0-6.0-1.0-0.2","60d6befca58e40d0c63bba9f","6662009ae78f21dd82fcd179","6662081d9a2c7c294fca07d3","181","","f","","","","","","","","./tasks/HMM-beads/Images/NewTrialWC.png","lowH","1","2","1","1","1","0","false","",""
"image-keyboard-response","143","522070","0.0-3.0-6.0-1.0-1.2","60d6befca58e40d0c63bba9f","6662009ae78f21dd82fcd179","6662081d9a2c7c294fca07d3","null","","null","","","","","","","","./tasks/HMM-beads/Images/BlackBeadChoice.png","","","","","","","","","",""
"image-keyboard-response","144","522591","0.0-3.0-6.0-1.0-2.2","60d6befca58e40d0c63bba9f","6662009ae78f21dd82fcd179","6662081d9a2c7c294fca07d3","null","","null","","","","","","","","./tasks/HMM-beads/Images/BlackBeadChoiceWrong.png","","","","","","","","","",""
"image-keyboard-response","145","522826","0.0-3.0-6.0-1.0-0.3","60d6befca58e40d0c63bba9f","6662009ae78f21dd82fcd179","6662081d9a2c7c294fca07d3","235","","j","","","","","","","","./tasks/HMM-beads/Images/NewTrialWC.png","lowH","1","3","1","1","1","1","true","",""
"image-keyboard-response","146","523140","0.0-3.0-6.0-1.0-1.3","60d6befca58e40d0c63bba9f","6662009ae78f21dd82fcd179","6662081d9a2c7c294fca07d3","null","","null","","","","","","","","./tasks/HMM-beads/Images/WhiteBeadChoice.png","","","","","","","","","",""
"image-keyboard-response","147","523644","0.0-3.0-6.0-1.0-2.3","60d6befca58e40d0c63bba9f","6662009ae78f21dd82fcd179","6662081d9a2c7c294fca07d3","null","","null","","","","","","","","./tasks/HMM-beads/Images/WhiteBeadChoiceCorrect.png","","","","","","","","","",""
"image-keyboard-response","148","524045","0.0-3.0-6.0-1.0-0.4","60d6befca58e40d0c63bba9f","6662009ae78f21dd82fcd179","6662081d9a2c7c294fca07d3","400","","j","","","","","","","","./tasks/HMM-beads/Images/NewTrialWC.png","lowH","1","4","1","1","1","1","true","",""
"image-keyboard-response","149","524357","0.0-3.0-6.0-1.0-1.4","60d6befca58e40d0c63bba9f","6662009ae78f21dd82fcd179","6662081d9a2c7c294fca07d3","null","","null","","","","","","","","./tasks/HMM-beads/Images/WhiteBeadChoice.png","","","","","","","","","",""
"image-keyboard-response","150","524860","0.0-3.0-6.0-1.0-2.4","60d6befca58e40d0c63bba9f","6662009ae78f21dd82fcd179","6662081d9a2c7c294fca07d3","null","","null","","","","","","","","./tasks/HMM-beads/Images/WhiteBeadChoiceCorrect.png","","","","","","","","","",""
"image-keyboard-response","151","524906","0.0-3.0-6.0-1.0-0.5","60d6befca58e40d0c63bba9f","6662009ae78f21dd82fcd179","6662081d9a2c7c294fca07d3","45","","f","","","","","","","","./tasks/HMM-beads/Images/NewTrialWC.png","lowH","1","5","1","1","1","0","false","",""
"image-keyboard-response","152","525213","0.0-3.0-6.0-1.0-1.5","60d6befca58e40d0c63bba9f","6662009ae78f21dd82fcd179","6662081d9a2c7c294fca07d3","null","","null","","","","","","","","./tasks/HMM-beads/Images/BlackBeadChoice.png","","","","","","","","","",""
"image-keyboard-response","153","525727","0.0-3.0-6.0-1.0-2.5","60d6befca58e40d0c63bba9f","6662009ae78f21dd82fcd179","6662081d9a2c7c294fca07d3","null","","null","","","","","","","","./tasks/HMM-beads/Images/BlackBeadChoiceWrong.png","","","","","","","","","",""
"image-keyboard-response","154","525728","0.0-3.0-6.0-1.0-0.6","60d6befca58e40d0c63bba9f","6662009ae78f21dd82fcd179","6662081d9a2c7c294fca07d3","0","","f","","","","","","","","./tasks/HMM-beads/Images/NewTrialWC.png","lowH","1","6","1","0","1","0","true","",""
"image-keyboard-response","155","526046","0.0-3.0-6.0-1.0-1.6","60d6befca58e40d0c63bba9f","6662009ae78f21dd82fcd179","6662081d9a2c7c294fca07d3","null","","null","","","","","","","","./tasks/HMM-beads/Images/BlackBeadChoice.png","","","","","","","","","",""
"image-keyboard-response","156","526551","0.0-3.0-6.0-1.0-2.6","60d6befca58e40d0c63bba9f","6662009ae78f21dd82fcd179","6662081d9a2c7c294fca07d3","null","","null","","","","","","","","./tasks/HMM-beads/Images/BlackBeadChoiceCorrect.png","","","","","","","","","",""
"image-keyboard-response","157","526777","0.0-3.0-6.0-1.0-0.7","60d6befca58e40d0c63bba9f","6662009ae78f21dd82fcd179","6662081d9a2c7c294fca07d3","225","","j","","","","","","","","./tasks/HMM-beads/Images/NewTrialBC.png","lowH","1","7","1","1","0","1","true","",""
"image-keyboard-response","158","527085","0.0-3.0-6.0-1.0-1.7","60d6befca58e40d0c63bba9f","6662009ae78f21dd82fcd179","6662081d9a2c7c294fca07d3","null","","null","","","","","","","","./tasks/HMM-beads/Images/WhiteBeadChoice.png","","","","","","","","","",""
"image-keyboard-response","159","527592","0.0-3.0-6.0-1.0-2.7","60d6befca58e40d0c63bba9f","6662009ae78f21dd82fcd179","6662081d9a2c7c294fca07d3","null","","null","","","","","","","","./tasks/HMM-beads/Images/WhiteBeadChoiceCorrect.png","","","","","","","","","",""
"image-keyboard-response","160","527811","0.0-3.0-6.0-1.0-0.8","60d6befca58e40d0c63bba9f","6662009ae78f21dd82fcd179","6662081d9a2c7c294fca07d3","220","","f","","","","","","","","./tasks/HMM-beads/Images/NewTrialWC.png","lowH","1","8","1","1","1","0","false","",""
"image-keyboard-response","161","528123","0.0-3.0-6.0-1.0-1.8","60d6befca58e40d0c63bba9f","6662009ae78f21dd82fcd179","6662081d9a2c7c294fca07d3","null","","null","","","","","","","","./tasks/HMM-beads/Images/BlackBeadChoice.png","","","","","","","","","",""
"image-keyboard-response","162","528636","0.0-3.0-6.0-1.0-2.8","60d6befca58e40d0c63bba9f","6662009ae78f21dd82fcd179","6662081d9a2c7c294fca07d3","null","","null","","","","","","","","./tasks/HMM-beads/Images/BlackBeadChoiceWrong.png","","","","","","","","","",""
"image-keyboard-response","163","528773","0.0-3.0-6.0-1.0-0.9","60d6befca58e40d0c63bba9f","6662009ae78f21dd82fcd179","6662081d9a2c7c294fca07d3","136","","f","","","","","","","","./tasks/HMM-beads/Images/NewTrialWC.png","lowH","1","9","1","1","1","0","false","",""
"image-keyboard-response","164","529084","0.0-3.0-6.0-1.0-1.9","60d6befca58e40d0c63bba9f","6662009ae78f21dd82fcd179","6662081d9a2c7c294fca07d3","null","","null","","","","","","","","./tasks/HMM-beads/Images/BlackBeadChoice.png","","","","","","","","","",""
"image-keyboard-response","165","529595","0.0-3.0-6.0-1.0-2.9","60d6befca58e40d0c63bba9f","6662009ae78f21dd82fcd179","6662081d9a2c7c294fca07d3","null","","null","","","","","","","","./tasks/HMM-beads/Images/BlackBeadChoiceWrong.png","","","","","","","","","",""
"image-keyboard-response","166","529832","0.0-3.0-6.0-1.0-0.10","60d6befca58e40d0c63bba9f","6662009ae78f21dd82fcd179","6662081d9a2c7c294fca07d3","235","","j","","","","","","","","./tasks/HMM-beads/Images/NewTrialWC.png","lowH","1","10","1","1","1","1","true","",""
"image-keyboard-response","167","530136","0.0-3.0-6.0-1.0-1.10","60d6befca58e40d0c63bba9f","6662009ae78f21dd82fcd179","6662081d9a2c7c294fca07d3","null","","null","","","","","","","","./tasks/HMM-beads/Images/WhiteBeadChoice.png","","","","","","","","","",""
"image-keyboard-response","168","530650","0.0-3.0-6.0-1.0-2.10","60d6befca58e40d0c63bba9f","6662009ae78f21dd82fcd179","6662081d9a2c7c294fca07d3","null","","null","","","","","","","","./tasks/HMM-beads/Images/WhiteBeadChoiceCorrect.png","","","","","","","","","",""
"image-keyboard-response","169","532383","0.0-3.0-6.0-1.0-0.11","60d6befca58e40d0c63bba9f","6662009ae78f21dd82fcd179","6662081d9a2c7c294fca07d3","1729","","j","","","","","","","","./tasks/HMM-beads/Images/NewTrialWC.png","lowH","1","11","1","1","1","1","true","",""
"image-keyboard-response","170","532696","0.0-3.0-6.0-1.0-1.11","60d6befca58e40d0c63bba9f","6662009ae78f21dd82fcd179","6662081d9a2c7c294fca07d3","null","","null","","","","","","","","./tasks/HMM-beads/Images/WhiteBeadChoice.png","","","","","","","","","",""
"image-keyboard-response","171","533207","0.0-3.0-6.0-1.0-2.11","60d6befca58e40d0c63bba9f","6662009ae78f21dd82fcd179","6662081d9a2c7c294fca07d3","null","","null","","","","","","","","./tasks/HMM-beads/Images/WhiteBeadChoiceCorrect.png","","","","","","","","","",""
"image-keyboard-response","172","533239","0.0-3.0-6.0-1.0-0.12","60d6befca58e40d0c63bba9f","6662009ae78f21dd82fcd179","6662081d9a2c7c294fca07d3","32","","j","","","","","","","","./tasks/HMM-beads/Images/NewTrialWC.png","lowH","1","12","1","1","1","1","true","",""
"image-keyboard-response","173","533557","0.0-3.0-6.0-1.0-1.12","60d6befca58e40d0c63bba9f","6662009ae78f21dd82fcd179","6662081d9a2c7c294fca07d3","null","","null","","","","","","","","./tasks/HMM-beads/Images/WhiteBeadChoice.png","","","","","","","","","",""
"image-keyboard-response","174","534062","0.0-3.0-6.0-1.0-2.12","60d6befca58e40d0c63bba9f","6662009ae78f21dd82fcd179","6662081d9a2c7c294fca07d3","null","","null","","","","","","","","./tasks/HMM-beads/Images/WhiteBeadChoiceCorrect.png","","","","","","","","","",""
"image-keyboard-response","175","534906","0.0-3.0-6.0-1.0-0.13","60d6befca58e40d0c63bba9f","6662009ae78f21dd82fcd179","6662081d9a2c7c294fca07d3","843","","j","","","","","","","","./tasks/HMM-beads/Images/NewTrialWC.png","lowH","1","13","1","0","1","1","false","",""
"image-keyboard-response","176","535215","0.0-3.0-6.0-1.0-1.13","60d6befca58e40d0c63bba9f","6662009ae78f21dd82fcd179","6662081d9a2c7c294fca07d3","null","","null","","","","","","","","./tasks/HMM-beads/Images/WhiteBeadChoice.png","","","","","","","","","",""
"image-keyboard-response","177","535732","0.0-3.0-6.0-1.0-2.13","60d6befca58e40d0c63bba9f","6662009ae78f21dd82fcd179","6662081d9a2c7c294fca07d3","null","","null","","","","","","","","./tasks/HMM-beads/Images/WhiteBeadChoiceWrong.png","","","","","","","","","",""
"image-keyboard-response","178","535897","0.0-3.0-6.0-1.0-0.14","60d6befca58e40d0c63bba9f","6662009ae78f21dd82fcd179","6662081d9a2c7c294fca07d3","163","","j","","","","","","","","./tasks/HMM-beads/Images/NewTrialBC.png","lowH","1","14","1","0","0","1","false","",""
"image-keyboard-response","179","536216","0.0-3.0-6.0-1.0-1.14","60d6befca58e40d0c63bba9f","6662009ae78f21dd82fcd179","6662081d9a2c7c294fca07d3","null","","null","","","","","","","","./tasks/HMM-beads/Images/WhiteBeadChoice.png","","","","","","","","","",""
"image-keyboard-response","180","536735","0.0-3.0-6.0-1.0-2.14","60d6befca58e40d0c63bba9f","6662009ae78f21dd82fcd179","6662081d9a2c7c294fca07d3","null","","null","","","","","","","","./tasks/HMM-beads/Images/WhiteBeadChoiceWrong.png","","","","","","","","","",""
"image-keyboard-response","181","537036","0.0-3.0-6.0-1.0-0.15","60d6befca58e40d0c63bba9f","6662009ae78f21dd82fcd179","6662081d9a2c7c294fca07d3","299","","j","","","","","","","","./tasks/HMM-beads/Images/NewTrialBC.png","lowH","1","15","1","1","0","1","true","",""
"image-keyboard-response","182","537354","0.0-3.0-6.0-1.0-1.15","60d6befca58e40d0c63bba9f","6662009ae78f21dd82fcd179","6662081d9a2c7c294fca07d3","null","","null","","","","","","","","./tasks/HMM-beads/Images/WhiteBeadChoice.png","","","","","","","","","",""
"image-keyboard-response","183","537867","0.0-3.0-6.0-1.0-2.15","60d6befca58e40d0c63bba9f","6662009ae78f21dd82fcd179","6662081d9a2c7c294fca07d3","null","","null","","","","","","","","./tasks/HMM-beads/Images/WhiteBeadChoiceCorrect.png","","","","","","","","","",""
"image-keyboard-response","184","545078","0.0-3.0-6.0-1.0-0.16","60d6befca58e40d0c63bba9f","6662009ae78f21dd82fcd179","6662081d9a2c7c294fca07d3","7209","","j","","","","","","","","./tasks/HMM-beads/Images/NewTrialWC.png","lowH","1","16","1","1","1","1","true","",""
"image-keyboard-response","185","545398","0.0-3.0-6.0-1.0-1.16","60d6befca58e40d0c63bba9f","6662009ae78f21dd82fcd179","6662081d9a2c7c294fca07d3","null","","null","","","","","","","","./tasks/HMM-beads/Images/WhiteBeadChoice.png","","","","","","","","","",""
"image-keyboard-response","186","545919","0.0-3.0-6.0-1.0-2.16","60d6befca58e40d0c63bba9f","6662009ae78f21dd82fcd179","6662081d9a2c7c294fca07d3","null","","null","","","","","","","","./tasks/HMM-beads/Images/WhiteBeadChoiceCorrect.png","","","","","","","","","",""
"image-keyboard-response","187","546273","0.0-3.0-6.0-1.0-0.17","60d6befca58e40d0c63bba9f","6662009ae78f21dd82fcd179","6662081d9a2c7c294fca07d3","352","","f","","","","","","","","./tasks/HMM-beads/Images/NewTrialWC.png","lowH","1","17","1","1","1","0","false","",""
"image-keyboard-response","188","546575","0.0-3.0-6.0-1.0-1.17","60d6befca58e40d0c63bba9f","6662009ae78f21dd82fcd179","6662081d9a2c7c294fca07d3","null","","null","","","","","","","","./tasks/HMM-beads/Images/BlackBeadChoice.png","","","","","","","","","",""
"image-keyboard-response","189","547108","0.0-3.0-6.0-1.0-2.17","60d6befca58e40d0c63bba9f","6662009ae78f21dd82fcd179","6662081d9a2c7c294fca07d3","null","","null","","","","","","","","./tasks/HMM-beads/Images/BlackBeadChoiceWrong.png","","","","","","","","","",""
"image-keyboard-response","190","547593","0.0-3.0-6.0-1.0-0.18","60d6befca58e40d0c63bba9f","6662009ae78f21dd82fcd179","6662081d9a2c7c294fca07d3","484","","j","","","","","","","","./tasks/HMM-beads/Images/NewTrialWC.png","lowH","1","18","1","1","1","1","true","",""
"image-keyboard-response","191","547909","0.0-3.0-6.0-1.0-1.18","60d6befca58e40d0c63bba9f","6662009ae78f21dd82fcd179","6662081d9a2c7c294fca07d3","null","","null","","","","","","","","./tasks/HMM-beads/Images/WhiteBeadChoice.png","","","","","","","","","",""
"image-keyboard-response","192","548448","0.0-3.0-6.0-1.0-2.18","60d6befca58e40d0c63bba9f","6662009ae78f21dd82fcd179","6662081d9a2c7c294fca07d3","null","","null","","","","","","","","./tasks/HMM-beads/Images/WhiteBeadChoiceCorrect.png","","","","","","","","","",""
"image-keyboard-response","193","548505","0.0-3.0-6.0-1.0-0.19","60d6befca58e40d0c63bba9f","6662009ae78f21dd82fcd179","6662081d9a2c7c294fca07d3","55","","j","","","","","","","","./tasks/HMM-beads/Images/NewTrialWC.png","lowH","1","19","1","1","1","1","true","",""
"image-keyboard-response","194","548812","0.0-3.0-6.0-1.0-1.19","60d6befca58e40d0c63bba9f","6662009ae78f21dd82fcd179","6662081d9a2c7c294fca07d3","null","","null","","","","","","","","./tasks/HMM-beads/Images/WhiteBeadChoice.png","","","","","","","","","",""
"image-keyboard-response","195","549315","0.0-3.0-6.0-1.0-2.19","60d6befca58e40d0c63bba9f","6662009ae78f21dd82fcd179","6662081d9a2c7c294fca07d3","null","","null","","","","","","","","./tasks/HMM-beads/Images/WhiteBeadChoiceCorrect.png","","","","","","","","","",""
"image-keyboard-response","196","549503","0.0-3.0-6.0-1.0-0.20","60d6befca58e40d0c63bba9f","6662009ae78f21dd82fcd179","6662081d9a2c7c294fca07d3","186","","j","","","","","","","","./tasks/HMM-beads/Images/NewTrialWC.png","lowH","1","20","1","1","1","1","true","",""
"image-keyboard-response","197","549808","0.0-3.0-6.0-1.0-1.20","60d6befca58e40d0c63bba9f","6662009ae78f21dd82fcd179","6662081d9a2c7c294fca07d3","null","","null","","","","","","","","./tasks/HMM-beads/Images/WhiteBeadChoice.png","","","","","","","","","",""
"image-keyboard-response","198","550320","0.0-3.0-6.0-1.0-2.20","60d6befca58e40d0c63bba9f","6662009ae78f21dd82fcd179","6662081d9a2c7c294fca07d3","null","","null","","","","","","","","./tasks/HMM-beads/Images/WhiteBeadChoiceCorrect.png","","","","","","","","","",""
"image-keyboard-response","199","551729","0.0-3.0-6.0-1.0-0.21","60d6befca58e40d0c63bba9f","6662009ae78f21dd82fcd179","6662081d9a2c7c294fca07d3","1407","","f","","","","","","","","./tasks/HMM-beads/Images/NewTrialWC.png","lowH","1","21","1","1","1","0","false","",""
"image-keyboard-response","200","552042","0.0-3.0-6.0-1.0-1.21","60d6befca58e40d0c63bba9f","6662009ae78f21dd82fcd179","6662081d9a2c7c294fca07d3","null","","null","","","","","","","","./tasks/HMM-beads/Images/BlackBeadChoice.png","","","","","","","","","",""
"image-keyboard-response","201","552559","0.0-3.0-6.0-1.0-2.21","60d6befca58e40d0c63bba9f","6662009ae78f21dd82fcd179","6662081d9a2c7c294fca07d3","null","","null","","","","","","","","./tasks/HMM-beads/Images/BlackBeadChoiceWrong.png","","","","","","","","","",""
"image-keyboard-response","202","552928","0.0-3.0-6.0-1.0-0.22","60d6befca58e40d0c63bba9f","6662009ae78f21dd82fcd179","6662081d9a2c7c294fca07d3","367","","f","","","","","","","","./tasks/HMM-beads/Images/NewTrialWC.png","lowH","1","22","1","1","1","0","false","",""
"image-keyboard-response","203","553242","0.0-3.0-6.0-1.0-1.22","60d6befca58e40d0c63bba9f","6662009ae78f21dd82fcd179","6662081d9a2c7c294fca07d3","null","","null","","","","","","","","./tasks/HMM-beads/Images/BlackBeadChoice.png","","","","","","","","","",""
"image-keyboard-response","204","553755","0.0-3.0-6.0-1.0-2.22","60d6befca58e40d0c63bba9f","6662009ae78f21dd82fcd179","6662081d9a2c7c294fca07d3","null","","null","","","","","","","","./tasks/HMM-beads/Images/BlackBeadChoiceWrong.png","","","","","","","","","",""
"image-keyboard-response","205","553961","0.0-3.0-6.0-1.0-0.23","60d6befca58e40d0c63bba9f","6662009ae78f21dd82fcd179","6662081d9a2c7c294fca07d3","204","","f","","","","","","","","./tasks/HMM-beads/Images/NewTrialWC.png","lowH","1","23","1","1","1","0","false","",""
"image-keyboard-response","206","554273","0.0-3.0-6.0-1.0-1.23","60d6befca58e40d0c63bba9f","6662009ae78f21dd82fcd179","6662081d9a2c7c294fca07d3","null","","null","","","","","","","","./tasks/HMM-beads/Images/BlackBeadChoice.png","","","","","","","","","",""
"image-keyboard-response","207","554791","0.0-3.0-6.0-1.0-2.23","60d6befca58e40d0c63bba9f","6662009ae78f21dd82fcd179","6662081d9a2c7c294fca07d3","null","","null","","","","","","","","./tasks/HMM-beads/Images/BlackBeadChoiceWrong.png","","","","","","","","","",""
"image-keyboard-response","208","555150","0.0-3.0-6.0-1.0-0.24","60d6befca58e40d0c63bba9f","6662009ae78f21dd82fcd179","6662081d9a2c7c294fca07d3","357","","j","","","","","","","","./tasks/HMM-beads/Images/NewTrialWC.png","lowH","1","24","1","0","1","1","false","",""
"image-keyboard-response","209","555468","0.0-3.0-6.0-1.0-1.24","60d6befca58e40d0c63bba9f","6662009ae78f21dd82fcd179","6662081d9a2c7c294fca07d3","null","","null","","","","","","","","./tasks/HMM-beads/Images/WhiteBeadChoice.png","","","","","","","","","",""
"image-keyboard-response","210","555986","0.0-3.0-6.0-1.0-2.24","60d6befca58e40d0c63bba9f","6662009ae78f21dd82fcd179","6662081d9a2c7c294fca07d3","null","","null","","","","","","","","./tasks/HMM-beads/Images/WhiteBeadChoiceWrong.png","","","","","","","","","",""
"image-keyboard-response","211","561790","0.0-3.0-6.0-1.0-0.25","60d6befca58e40d0c63bba9f","6662009ae78f21dd82fcd179","6662081d9a2c7c294fca07d3","5802","","j","","","","","","","","./tasks/HMM-beads/Images/NewTrialBC.png","lowH","1","25","1","1","0","1","true","",""
"image-keyboard-response","212","562110","0.0-3.0-6.0-1.0-1.25","60d6befca58e40d0c63bba9f","6662009ae78f21dd82fcd179","6662081d9a2c7c294fca07d3","null","","null","","","","","","","","./tasks/HMM-beads/Images/WhiteBeadChoice.png","","","","","","","","","",""
"image-keyboard-response","213","562635","0.0-3.0-6.0-1.0-2.25","60d6befca58e40d0c63bba9f","6662009ae78f21dd82fcd179","6662081d9a2c7c294fca07d3","null","","null","","","","","","","","./tasks/HMM-beads/Images/WhiteBeadChoiceCorrect.png","","","","","","","","","",""
"image-keyboard-response","214","562715","0.0-3.0-6.0-1.0-0.26","60d6befca58e40d0c63bba9f","6662009ae78f21dd82fcd179","6662081d9a2c7c294fca07d3","77","","j","","","","","","","","./tasks/HMM-beads/Images/NewTrialWC.png","lowH","1","26","1","0","1","1","false","",""
"image-keyboard-response","215","563026","0.0-3.0-6.0-1.0-1.26","60d6befca58e40d0c63bba9f","6662009ae78f21dd82fcd179","6662081d9a2c7c294fca07d3","null","","null","","","","","","","","./tasks/HMM-beads/Images/WhiteBeadChoice.png","","","","","","","","","",""
"image-keyboard-response","216","563539","0.0-3.0-6.0-1.0-2.26","60d6befca58e40d0c63bba9f","6662009ae78f21dd82fcd179","6662081d9a2c7c294fca07d3","null","","null","","","","","","","","./tasks/HMM-beads/Images/WhiteBeadChoiceWrong.png","","","","","","","","","",""
"image-keyboard-response","217","563542","0.0-3.0-6.0-1.0-0.27","60d6befca58e40d0c63bba9f","6662009ae78f21dd82fcd179","6662081d9a2c7c294fca07d3","1","","f","","","","","","","","./tasks/HMM-beads/Images/NewTrialBC.png","lowH","1","27","1","1","0","0","false","",""
"image-keyboard-response","218","563852","0.0-3.0-6.0-1.0-1.27","60d6befca58e40d0c63bba9f","6662009ae78f21dd82fcd179","6662081d9a2c7c294fca07d3","null","","null","","","","","","","","./tasks/HMM-beads/Images/BlackBeadChoice.png","","","","","","","","","",""
"image-keyboard-response","219","564364","0.0-3.0-6.0-1.0-2.27","60d6befca58e40d0c63bba9f","6662009ae78f21dd82fcd179","6662081d9a2c7c294fca07d3","null","","null","","","","","","","","./tasks/HMM-beads/Images/BlackBeadChoiceWrong.png","","","","","","","","","",""
"image-keyboard-response","220","564508","0.0-3.0-6.0-1.0-0.28","60d6befca58e40d0c63bba9f","6662009ae78f21dd82fcd179","6662081d9a2c7c294fca07d3","143","","j","","","","","","","","./tasks/HMM-beads/Images/NewTrialWC.png","lowH","1","28","1","1","1","1","true","",""
"image-keyboard-response","221","564818","0.0-3.0-6.0-1.0-1.28","60d6befca58e40d0c63bba9f","6662009ae78f21dd82fcd179","6662081d9a2c7c294fca07d3","null","","null","","","","","","","","./tasks/HMM-beads/Images/WhiteBeadChoice.png","","","","","","","","","",""
"image-keyboard-response","222","565333","0.0-3.0-6.0-1.0-2.28","60d6befca58e40d0c63bba9f","6662009ae78f21dd82fcd179","6662081d9a2c7c294fca07d3","null","","null","","","","","","","","./tasks/HMM-beads/Images/WhiteBeadChoiceCorrect.png","","","","","","","","","",""
"image-keyboard-response","223","565508","0.0-3.0-6.0-1.0-0.29","60d6befca58e40d0c63bba9f","6662009ae78f21dd82fcd179","6662081d9a2c7c294fca07d3","174","","f","","","","","","","","./tasks/HMM-beads/Images/NewTrialWC.png","lowH","1","29","1","1","1","0","false","",""
"image-keyboard-response","224","565824","0.0-3.0-6.0-1.0-1.29","60d6befca58e40d0c63bba9f","6662009ae78f21dd82fcd179","6662081d9a2c7c294fca07d3","null","","null","","","","","","","","./tasks/HMM-beads/Images/BlackBeadChoice.png","","","","","","","","","",""
"image-keyboard-response","225","566356","0.0-3.0-6.0-1.0-2.29","60d6befca58e40d0c63bba9f","6662009ae78f21dd82fcd179","6662081d9a2c7c294fca07d3","null","","null","","","","","","","","./tasks/HMM-beads/Images/BlackBeadChoiceWrong.png","","","","","","","","","",""
"image-keyboard-response","226","566541","0.0-3.0-6.0-1.0-0.30","60d6befca58e40d0c63bba9f","6662009ae78f21dd82fcd179","6662081d9a2c7c294fca07d3","184","","j","","","","","","","","./tasks/HMM-beads/Images/NewTrialWC.png","lowH","1","30","1","1","1","1","true","",""
"image-keyboard-response","227","566847","0.0-3.0-6.0-1.0-1.30","60d6befca58e40d0c63bba9f","6662009ae78f21dd82fcd179","6662081d9a2c7c294fca07d3","null","","null","","","","","","","","./tasks/HMM-beads/Images/WhiteBeadChoice.png","","","","","","","","","",""
"image-keyboard-response","228","567359","0.0-3.0-6.0-1.0-2.30","60d6befca58e40d0c63bba9f","6662009ae78f21dd82fcd179","6662081d9a2c7c294fca07d3","null","","null","","","","","","","","./tasks/HMM-beads/Images/WhiteBeadChoiceCorrect.png","","","","","","","","","",""
"image-keyboard-response","229","567466","0.0-3.0-6.0-1.0-0.31","60d6befca58e40d0c63bba9f","6662009ae78f21dd82fcd179","6662081d9a2c7c294fca07d3","104","","f","","","","","","","","./tasks/HMM-beads/Images/NewTrialWC.png","lowH","1","31","1","1","1","0","false","",""
"image-keyboard-response","230","567771","0.0-3.0-6.0-1.0-1.31","60d6befca58e40d0c63bba9f","6662009ae78f21dd82fcd179","6662081d9a2c7c294fca07d3","null","","null","","","","","","","","./tasks/HMM-beads/Images/BlackBeadChoice.png","","","","","","","","","",""
"image-keyboard-response","231","568292","0.0-3.0-6.0-1.0-2.31","60d6befca58e40d0c63bba9f","6662009ae78f21dd82fcd179","6662081d9a2c7c294fca07d3","null","","null","","","","","","","","./tasks/HMM-beads/Images/BlackBeadChoiceWrong.png","","","","","","","","","",""
"image-keyboard-response","232","568299","0.0-3.0-6.0-1.0-0.32","60d6befca58e40d0c63bba9f","6662009ae78f21dd82fcd179","6662081d9a2c7c294fca07d3","5","","j","","","","","","","","./tasks/HMM-beads/Images/NewTrialWC.png","lowH","1","32","1","1","1","1","true","",""
"image-keyboard-response","233","568612","0.0-3.0-6.0-1.0-1.32","60d6befca58e40d0c63bba9f","6662009ae78f21dd82fcd179","6662081d9a2c7c294fca07d3","null","","null","","","","","","","","./tasks/HMM-beads/Images/WhiteBeadChoice.png","","","","","","","","","",""
"image-keyboard-response","234","569129","0.0-3.0-6.0-1.0-2.32","60d6befca58e40d0c63bba9f","6662009ae78f21dd82fcd179","6662081d9a2c7c294fca07d3","null","","null","","","","","","","","./tasks/HMM-beads/Images/WhiteBeadChoiceCorrect.png","","","","","","","","","",""
"image-keyboard-response","235","569442","0.0-3.0-6.0-1.0-0.33","60d6befca58e40d0c63bba9f","6662009ae78f21dd82fcd179","6662081d9a2c7c294fca07d3","312","","f","","","","","","","","./tasks/HMM-beads/Images/NewTrialWC.png","lowH","1","33","1","1","1","0","false","",""
"image-keyboard-response","236","569749","0.0-3.0-6.0-1.0-1.33","60d6befca58e40d0c63bba9f","6662009ae78f21dd82fcd179","6662081d9a2c7c294fca07d3","null","","null","","","","","","","","./tasks/HMM-beads/Images/BlackBeadChoice.png","","","","","","","","","",""
"image-keyboard-response","237","570260","0.0-3.0-6.0-1.0-2.33","60d6befca58e40d0c63bba9f","6662009ae78f21dd82fcd179","6662081d9a2c7c294fca07d3","null","","null","","","","","","","","./tasks/HMM-beads/Images/BlackBeadChoiceWrong.png","","","","","","","","","",""
"image-keyboard-response","238","570544","0.0-3.0-6.0-1.0-0.34","60d6befca58e40d0c63bba9f","6662009ae78f21dd82fcd179","6662081d9a2c7c294fca07d3","283","","j","","","","","","","","./tasks/HMM-beads/Images/NewTrialWC.png","lowH","1","34","1","1","1","1","true","",""
"image-keyboard-response","239","570872","0.0-3.0-6.0-1.0-1.34","60d6befca58e40d0c63bba9f","6662009ae78f21dd82fcd179","6662081d9a2c7c294fca07d3","null","","null","","","","","","","","./tasks/HMM-beads/Images/WhiteBeadChoice.png","","","","","","","","","",""
"image-keyboard-response","240","571376","0.0-3.0-6.0-1.0-2.34","60d6befca58e40d0c63bba9f","6662009ae78f21dd82fcd179","6662081d9a2c7c294fca07d3","null","","null","","","","","","","","./tasks/HMM-beads/Images/WhiteBeadChoiceCorrect.png","","","","","","","","","",""
"image-keyboard-response","241","571570","0.0-3.0-6.0-1.0-0.35","60d6befca58e40d0c63bba9f","6662009ae78f21dd82fcd179","6662081d9a2c7c294fca07d3","193","","j","","","","","","","","./tasks/HMM-beads/Images/NewTrialWC.png","lowH","1","35","1","1","1","1","true","",""
"image-keyboard-response","242","571883","0.0-3.0-6.0-1.0-1.35","60d6befca58e40d0c63bba9f","6662009ae78f21dd82fcd179","6662081d9a2c7c294fca07d3","null","","null","","","","","","","","./tasks/HMM-beads/Images/WhiteBeadChoice.png","","","","","","","","","",""
"image-keyboard-response","243","572430","0.0-3.0-6.0-1.0-2.35","60d6befca58e40d0c63bba9f","6662009ae78f21dd82fcd179","6662081d9a2c7c294fca07d3","null","","null","","","","","","","","./tasks/HMM-beads/Images/WhiteBeadChoiceCorrect.png","","","","","","","","","",""
"image-keyboard-response","244","572647","0.0-3.0-6.0-1.0-0.36","60d6befca58e40d0c63bba9f","6662009ae78f21dd82fcd179","6662081d9a2c7c294fca07d3","214","","j","","","","","","","","./tasks/HMM-beads/Images/NewTrialWC.png","lowH","1","36","1","1","1","1","true","",""
"image-keyboard-response","245","572957","0.0-3.0-6.0-1.0-1.36","60d6befca58e40d0c63bba9f","6662009ae78f21dd82fcd179","6662081d9a2c7c294fca07d3","null","","null","","","","","","","","./tasks/HMM-beads/Images/WhiteBeadChoice.png","","","","","","","","","",""
"image-keyboard-response","246","573463","0.0-3.0-6.0-1.0-2.36","60d6befca58e40d0c63bba9f","6662009ae78f21dd82fcd179","6662081d9a2c7c294fca07d3","null","","null","","","","","","","","./tasks/HMM-beads/Images/WhiteBeadChoiceCorrect.png","","","","","","","","","",""
"image-keyboard-response","247","573809","0.0-3.0-6.0-1.0-0.37","60d6befca58e40d0c63bba9f","6662009ae78f21dd82fcd179","6662081d9a2c7c294fca07d3","345","","f","","","","","","","","./tasks/HMM-beads/Images/NewTrialWC.png","lowH","1","37","1","1","1","0","false","",""
"image-keyboard-response","248","574125","0.0-3.0-6.0-1.0-1.37","60d6befca58e40d0c63bba9f","6662009ae78f21dd82fcd179","6662081d9a2c7c294fca07d3","null","","null","","","","","","","","./tasks/HMM-beads/Images/BlackBeadChoice.png","","","","","","","","","",""
"image-keyboard-response","249","574627","0.0-3.0-6.0-1.0-2.37","60d6befca58e40d0c63bba9f","6662009ae78f21dd82fcd179","6662081d9a2c7c294fca07d3","null","","null","","","","","","","","./tasks/HMM-beads/Images/BlackBeadChoiceWrong.png","","","","","","","","","",""
"image-keyboard-response","250","574807","0.0-3.0-6.0-1.0-0.38","60d6befca58e40d0c63bba9f","6662009ae78f21dd82fcd179","6662081d9a2c7c294fca07d3","178","","j","","","","","","","","./tasks/HMM-beads/Images/NewTrialWC.png","lowH","1","38","1","1","1","1","true","",""
"image-keyboard-response","251","575124","0.0-3.0-6.0-1.0-1.38","60d6befca58e40d0c63bba9f","6662009ae78f21dd82fcd179","6662081d9a2c7c294fca07d3","null","","null","","","","","","","","./tasks/HMM-beads/Images/WhiteBeadChoice.png","","","","","","","","","",""
"image-keyboard-response","252","575630","0.0-3.0-6.0-1.0-2.38","60d6befca58e40d0c63bba9f","6662009ae78f21dd82fcd179","6662081d9a2c7c294fca07d3","null","","null","","","","","","","","./tasks/HMM-beads/Images/WhiteBeadChoiceCorrect.png","","","","","","","","","",""
"image-keyboard-response","253","575688","0.0-3.0-6.0-1.0-0.39","60d6befca58e40d0c63bba9f","6662009ae78f21dd82fcd179","6662081d9a2c7c294fca07d3","56","","f","","","","","","","","./tasks/HMM-beads/Images/NewTrialWC.png","lowH","1","39","1","1","1","0","false","",""
"image-keyboard-response","254","575999","0.0-3.0-6.0-1.0-1.39","60d6befca58e40d0c63bba9f","6662009ae78f21dd82fcd179","6662081d9a2c7c294fca07d3","null","","null","","","","","","","","./tasks/HMM-beads/Images/BlackBeadChoice.png","","","","","","","","","",""
"image-keyboard-response","255","576523","0.0-3.0-6.0-1.0-2.39","60d6befca58e40d0c63bba9f","6662009ae78f21dd82fcd179","6662081d9a2c7c294fca07d3","null","","null","","","","","","","","./tasks/HMM-beads/Images/BlackBeadChoiceWrong.png","","","","","","","","","",""
"image-keyboard-response","256","576653","0.0-3.0-6.0-1.0-0.40","60d6befca58e40d0c63bba9f","6662009ae78f21dd82fcd179","6662081d9a2c7c294fca07d3","125","","f","","","","","","","","./tasks/HMM-beads/Images/NewTrialWC.png","lowH","1","40","1","1","1","0","false","",""
"image-keyboard-response","257","576986","0.0-3.0-6.0-1.0-1.40","60d6befca58e40d0c63bba9f","6662009ae78f21dd82fcd179","6662081d9a2c7c294fca07d3","null","","null","","","","","","","","./tasks/HMM-beads/Images/BlackBeadChoice.png","","","","","","","","","",""
"image-keyboard-response","258","577503","0.0-3.0-6.0-1.0-2.40","60d6befca58e40d0c63bba9f","6662009ae78f21dd82fcd179","6662081d9a2c7c294fca07d3","null","","null","","","","","","","","./tasks/HMM-beads/Images/BlackBeadChoiceWrong.png","","","","","","","","","",""
"image-keyboard-response","259","578223","0.0-3.0-6.0-1.0-0.41","60d6befca58e40d0c63bba9f","6662009ae78f21dd82fcd179","6662081d9a2c7c294fca07d3","719","","f","","","","","","","","./tasks/HMM-beads/Images/NewTrialWC.png","lowH","1","41","1","1","1","0","false","",""
"image-keyboard-response","260","578546","0.0-3.0-6.0-1.0-1.41","60d6befca58e40d0c63bba9f","6662009ae78f21dd82fcd179","6662081d9a2c7c294fca07d3","null","","null","","","","","","","","./tasks/HMM-beads/Images/BlackBeadChoice.png","","","","","","","","","",""
"image-keyboard-response","261","579050","0.0-3.0-6.0-1.0-2.41","60d6befca58e40d0c63bba9f","6662009ae78f21dd82fcd179","6662081d9a2c7c294fca07d3","null","","null","","","","","","","","./tasks/HMM-beads/Images/BlackBeadChoiceWrong.png","","","","","","","","","",""
"image-keyboard-response","262","579287","0.0-3.0-6.0-1.0-0.42","60d6befca58e40d0c63bba9f","6662009ae78f21dd82fcd179","6662081d9a2c7c294fca07d3","235","","f","","","","","","","","./tasks/HMM-beads/Images/NewTrialWC.png","lowH","1","42","1","1","1","0","false","",""
"image-keyboard-response","263","579594","0.0-3.0-6.0-1.0-1.42","60d6befca58e40d0c63bba9f","6662009ae78f21dd82fcd179","6662081d9a2c7c294fca07d3","null","","null","","","","","","","","./tasks/HMM-beads/Images/BlackBeadChoice.png","","","","","","","","","",""
"image-keyboard-response","264","580153","0.0-3.0-6.0-1.0-2.42","60d6befca58e40d0c63bba9f","6662009ae78f21dd82fcd179","6662081d9a2c7c294fca07d3","null","","null","","","","","","","","./tasks/HMM-beads/Images/BlackBeadChoiceWrong.png","","","","","","","","","",""
"image-keyboard-response","265","580317","0.0-3.0-6.0-1.0-0.43","60d6befca58e40d0c63bba9f","6662009ae78f21dd82fcd179","6662081d9a2c7c294fca07d3","162","","j","","","","","","","","./tasks/HMM-beads/Images/NewTrialWC.png","lowH","1","43","1","1","1","1","true","",""
"image-keyboard-response","266","580622","0.0-3.0-6.0-1.0-1.43","60d6befca58e40d0c63bba9f","6662009ae78f21dd82fcd179","6662081d9a2c7c294fca07d3","null","","null","","","","","","","","./tasks/HMM-beads/Images/WhiteBeadChoice.png","","","","","","","","","",""
"image-keyboard-response","267","581128","0.0-3.0-6.0-1.0-2.43","60d6befca58e40d0c63bba9f","6662009ae78f21dd82fcd179","6662081d9a2c7c294fca07d3","null","","null","","","","","","","","./tasks/HMM-beads/Images/WhiteBeadChoiceCorrect.png","","","","","","","","","",""
"image-keyboard-response","268","581209","0.0-3.0-6.0-1.0-0.44","60d6befca58e40d0c63bba9f","6662009ae78f21dd82fcd179","6662081d9a2c7c294fca07d3","78","","j","","","","","","","","./tasks/HMM-beads/Images/NewTrialWC.png","lowH","1","44","1","1","1","1","true","",""
"image-keyboard-response","269","581512","0.0-3.0-6.0-1.0-1.44","60d6befca58e40d0c63bba9f","6662009ae78f21dd82fcd179","6662081d9a2c7c294fca07d3","null","","null","","","","","","","","./tasks/HMM-beads/Images/WhiteBeadChoice.png","","","","","","","","","",""
"image-keyboard-response","270","582037","0.0-3.0-6.0-1.0-2.44","60d6befca58e40d0c63bba9f","6662009ae78f21dd82fcd179","6662081d9a2c7c294fca07d3","null","","null","","","","","","","","./tasks/HMM-beads/Images/WhiteBeadChoiceCorrect.png","","","","","","","","","",""
"image-keyboard-response","271","582227","0.0-3.0-6.0-1.0-0.45","60d6befca58e40d0c63bba9f","6662009ae78f21dd82fcd179","6662081d9a2c7c294fca07d3","189","","j","","","","","","","","./tasks/HMM-beads/Images/NewTrialWC.png","lowH","1","45","1","1","1","1","true","",""
"image-keyboard-response","272","582528","0.0-3.0-6.0-1.0-1.45","60d6befca58e40d0c63bba9f","6662009ae78f21dd82fcd179","6662081d9a2c7c294fca07d3","null","","null","","","","","","","","./tasks/HMM-beads/Images/WhiteBeadChoice.png","","","","","","","","","",""
"image-keyboard-response","273","583048","0.0-3.0-6.0-1.0-2.45","60d6befca58e40d0c63bba9f","6662009ae78f21dd82fcd179","6662081d9a2c7c294fca07d3","null","","null","","","","","","","","./tasks/HMM-beads/Images/WhiteBeadChoiceCorrect.png","","","","","","","","","",""
"image-keyboard-response","274","583265","0.0-3.0-6.0-1.0-0.46","60d6befca58e40d0c63bba9f","6662009ae78f21dd82fcd179","6662081d9a2c7c294fca07d3","216","","f","","","","","","","","./tasks/HMM-beads/Images/NewTrialWC.png","lowH","1","46","1","1","1","0","false","",""
"image-keyboard-response","275","583581","0.0-3.0-6.0-1.0-1.46","60d6befca58e40d0c63bba9f","6662009ae78f21dd82fcd179","6662081d9a2c7c294fca07d3","null","","null","","","","","","","","./tasks/HMM-beads/Images/BlackBeadChoice.png","","","","","","","","","",""
"image-keyboard-response","276","584086","0.0-3.0-6.0-1.0-2.46","60d6befca58e40d0c63bba9f","6662009ae78f21dd82fcd179","6662081d9a2c7c294fca07d3","null","","null","","","","","","","","./tasks/HMM-beads/Images/BlackBeadChoiceWrong.png","","","","","","","","","",""
"image-keyboard-response","277","584349","0.0-3.0-6.0-1.0-0.47","60d6befca58e40d0c63bba9f","6662009ae78f21dd82fcd179","6662081d9a2c7c294fca07d3","263","","f","","","","","","","","./tasks/HMM-beads/Images/NewTrialWC.png","lowH","1","47","1","0","1","0","true","",""
"image-keyboard-response","278","584667","0.0-3.0-6.0-1.0-1.47","60d6befca58e40d0c63bba9f","6662009ae78f21dd82fcd179","6662081d9a2c7c294fca07d3","null","","null","","","","","","","","./tasks/HMM-beads/Images/BlackBeadChoice.png","","","","","","","","","",""
"image-keyboard-response","279","585175","0.0-3.0-6.0-1.0-2.47","60d6befca58e40d0c63bba9f","6662009ae78f21dd82fcd179","6662081d9a2c7c294fca07d3","null","","null","","","","","","","","./tasks/HMM-beads/Images/BlackBeadChoiceCorrect.png","","","","","","","","","",""
"image-keyboard-response","280","585227","0.0-3.0-6.0-1.0-0.48","60d6befca58e40d0c63bba9f","6662009ae78f21dd82fcd179","6662081d9a2c7c294fca07d3","50","","f","","","","","","","","./tasks/HMM-beads/Images/NewTrialBC.png","lowH","1","48","1","0","0","0","true","",""
"image-keyboard-response","281","585543","0.0-3.0-6.0-1.0-1.48","60d6befca58e40d0c63bba9f","6662009ae78f21dd82fcd179","6662081d9a2c7c294fca07d3","null","","null","","","","","","","","./tasks/HMM-beads/Images/BlackBeadChoice.png","","","","","","","","","",""
"image-keyboard-response","282","586056","0.0-3.0-6.0-1.0-2.48","60d6befca58e40d0c63bba9f","6662009ae78f21dd82fcd179","6662081d9a2c7c294fca07d3","null","","null","","","","","","","","./tasks/HMM-beads/Images/BlackBeadChoiceCorrect.png","","","","","","","","","",""
"image-keyboard-response","283","586230","0.0-3.0-6.0-1.0-0.49","60d6befca58e40d0c63bba9f","6662009ae78f21dd82fcd179","6662081d9a2c7c294fca07d3","172","","f","","","","","","","","./tasks/HMM-beads/Images/NewTrialBC.png","lowH","1","49","1","0","0","0","true","",""
"image-keyboard-response","284","586534","0.0-3.0-6.0-1.0-1.49","60d6befca58e40d0c63bba9f","6662009ae78f21dd82fcd179","6662081d9a2c7c294fca07d3","null","","null","","","","","","","","./tasks/HMM-beads/Images/BlackBeadChoice.png","","","","","","","","","",""
"image-keyboard-response","285","587042","0.0-3.0-6.0-1.0-2.49","60d6befca58e40d0c63bba9f","6662009ae78f21dd82fcd179","6662081d9a2c7c294fca07d3","null","","null","","","","","","","","./tasks/HMM-beads/Images/BlackBeadChoiceCorrect.png","","","","","","","","","",""
"image-keyboard-response","286","587075","0.0-3.0-6.0-1.0-0.50","60d6befca58e40d0c63bba9f","6662009ae78f21dd82fcd179","6662081d9a2c7c294fca07d3","31","","j","","","","","","","","./tasks/HMM-beads/Images/NewTrialBC.png","lowH","1","50","1","1","0","1","true","",""
"image-keyboard-response","287","587379","0.0-3.0-6.0-1.0-1.50","60d6befca58e40d0c63bba9f","6662009ae78f21dd82fcd179","6662081d9a2c7c294fca07d3","null","","null","","","","","","","","./tasks/HMM-beads/Images/WhiteBeadChoice.png","","","","","","","","","",""
"image-keyboard-response","288","587897","0.0-3.0-6.0-1.0-2.50","60d6befca58e40d0c63bba9f","6662009ae78f21dd82fcd179","6662081d9a2c7c294fca07d3","null","","null","","","","","","","","./tasks/HMM-beads/Images/WhiteBeadChoiceCorrect.png","","","","","","","","","",""
"image-keyboard-response","289","587963","0.0-3.0-6.0-1.0-0.51","60d6befca58e40d0c63bba9f","6662009ae78f21dd82fcd179","6662081d9a2c7c294fca07d3","63","","j","","","","","","","","./tasks/HMM-beads/Images/NewTrialWC.png","lowH","1","51","1","1","1","1","true","",""
"image-keyboard-response","290","588276","0.0-3.0-6.0-1.0-1.51","60d6befca58e40d0c63bba9f","6662009ae78f21dd82fcd179","6662081d9a2c7c294fca07d3","null","","null","","","","","","","","./tasks/HMM-beads/Images/WhiteBeadChoice.png","","","","","","","","","",""
"image-keyboard-response","291","588824","0.0-3.0-6.0-1.0-2.51","60d6befca58e40d0c63bba9f","6662009ae78f21dd82fcd179","6662081d9a2c7c294fca07d3","null","","null","","","","","","","","./tasks/HMM-beads/Images/WhiteBeadChoiceCorrect.png","","","","","","","","","",""
"image-keyboard-response","292","589142","0.0-3.0-6.0-1.0-0.52","60d6befca58e40d0c63bba9f","6662009ae78f21dd82fcd179","6662081d9a2c7c294fca07d3","317","","j","","","","","","","","./tasks/HMM-beads/Images/NewTrialWC.png","lowH","1","52","1","1","1","1","true","",""
"image-keyboard-response","293","589458","0.0-3.0-6.0-1.0-1.52","60d6befca58e40d0c63bba9f","6662009ae78f21dd82fcd179","6662081d9a2c7c294fca07d3","null","","null","","","","","","","","./tasks/HMM-beads/Images/WhiteBeadChoice.png","","","","","","","","","",""
"image-keyboard-response","294","589975","0.0-3.0-6.0-1.0-2.52","60d6befca58e40d0c63bba9f","6662009ae78f21dd82fcd179","6662081d9a2c7c294fca07d3","null","","null","","","","","","","","./tasks/HMM-beads/Images/WhiteBeadChoiceCorrect.png","","","","","","","","","",""
"image-keyboard-response","295","590051","0.0-3.0-6.0-1.0-0.53","60d6befca58e40d0c63bba9f","6662009ae78f21dd82fcd179","6662081d9a2c7c294fca07d3","75","","j","","","","","","","","./tasks/HMM-beads/Images/NewTrialWC.png","lowH","1","53","1","1","1","1","true","",""
"image-keyboard-response","296","590366","0.0-3.0-6.0-1.0-1.53","60d6befca58e40d0c63bba9f","6662009ae78f21dd82fcd179","6662081d9a2c7c294fca07d3","null","","null","","","","","","","","./tasks/HMM-beads/Images/WhiteBeadChoice.png","","","","","","","","","",""
"image-keyboard-response","297","590885","0.0-3.0-6.0-1.0-2.53","60d6befca58e40d0c63bba9f","6662009ae78f21dd82fcd179","6662081d9a2c7c294fca07d3","null","","null","","","","","","","","./tasks/HMM-beads/Images/WhiteBeadChoiceCorrect.png","","","","","","","","","",""
"image-keyboard-response","298","591145","0.0-3.0-6.0-1.0-0.54","60d6befca58e40d0c63bba9f","6662009ae78f21dd82fcd179","6662081d9a2c7c294fca07d3","257","","j","","","","","","","","./tasks/HMM-beads/Images/NewTrialWC.png","lowH","1","54","1","1","1","1","true","",""
"image-keyboard-response","299","591456","0.0-3.0-6.0-1.0-1.54","60d6befca58e40d0c63bba9f","6662009ae78f21dd82fcd179","6662081d9a2c7c294fca07d3","null","","null","","","","","","","","./tasks/HMM-beads/Images/WhiteBeadChoice.png","","","","","","","","","",""
"image-keyboard-response","300","591966","0.0-3.0-6.0-1.0-2.54","60d6befca58e40d0c63bba9f","6662009ae78f21dd82fcd179","6662081d9a2c7c294fca07d3","null","","null","","","","","","","","./tasks/HMM-beads/Images/WhiteBeadChoiceCorrect.png","","","","","","","","","",""
"image-keyboard-response","301","592037","0.0-3.0-6.0-1.0-0.55","60d6befca58e40d0c63bba9f","6662009ae78f21dd82fcd179","6662081d9a2c7c294fca07d3","69","","j","","","","","","","","./tasks/HMM-beads/Images/NewTrialWC.png","lowH","1","55","1","1","1","1","true","",""
"image-keyboard-response","302","592350","0.0-3.0-6.0-1.0-1.55","60d6befca58e40d0c63bba9f","6662009ae78f21dd82fcd179","6662081d9a2c7c294fca07d3","null","","null","","","","","","","","./tasks/HMM-beads/Images/WhiteBeadChoice.png","","","","","","","","","",""
"image-keyboard-response","303","592903","0.0-3.0-6.0-1.0-2.55","60d6befca58e40d0c63bba9f","6662009ae78f21dd82fcd179","6662081d9a2c7c294fca07d3","null","","null","","","","","","","","./tasks/HMM-beads/Images/WhiteBeadChoiceCorrect.png","","","","","","","","","",""
"image-keyboard-response","304","593198","0.0-3.0-6.0-1.0-0.56","60d6befca58e40d0c63bba9f","6662009ae78f21dd82fcd179","6662081d9a2c7c294fca07d3","293","","f","","","","","","","","./tasks/HMM-beads/Images/NewTrialWC.png","lowH","1","56","1","1","1","0","false","",""
"image-keyboard-response","305","593503","0.0-3.0-6.0-1.0-1.56","60d6befca58e40d0c63bba9f","6662009ae78f21dd82fcd179","6662081d9a2c7c294fca07d3","null","","null","","","","","","","","./tasks/HMM-beads/Images/BlackBeadChoice.png","","","","","","","","","",""
"image-keyboard-response","306","594025","0.0-3.0-6.0-1.0-2.56","60d6befca58e40d0c63bba9f","6662009ae78f21dd82fcd179","6662081d9a2c7c294fca07d3","null","","null","","","","","","","","./tasks/HMM-beads/Images/BlackBeadChoiceWrong.png","","","","","","","","","",""
"image-keyboard-response","307","594789","0.0-3.0-6.0-1.0-0.57","60d6befca58e40d0c63bba9f","6662009ae78f21dd82fcd179","6662081d9a2c7c294fca07d3","762","","j","","","","","","","","./tasks/HMM-beads/Images/NewTrialWC.png","lowH","1","57","1","1","1","1","true","",""
"image-keyboard-response","308","595110","0.0-3.0-6.0-1.0-1.57","60d6befca58e40d0c63bba9f","6662009ae78f21dd82fcd179","6662081d9a2c7c294fca07d3","null","","null","","","","","","","","./tasks/HMM-beads/Images/WhiteBeadChoice.png","","","","","","","","","",""
"image-keyboard-response","309","595613","0.0-3.0-6.0-1.0-2.57","60d6befca58e40d0c63bba9f","6662009ae78f21dd82fcd179","6662081d9a2c7c294fca07d3","null","","null","","","","","","","","./tasks/HMM-beads/Images/WhiteBeadChoiceCorrect.png","","","","","","","","","",""
"image-keyboard-response","310","600836","0.0-3.0-6.0-1.0-0.58","60d6befca58e40d0c63bba9f","6662009ae78f21dd82fcd179","6662081d9a2c7c294fca07d3","5219","","j","","","","","","","","./tasks/HMM-beads/Images/NewTrialWC.png","lowH","1","58","1","1","1","1","true","",""
"image-keyboard-response","311","601147","0.0-3.0-6.0-1.0-1.58","60d6befca58e40d0c63bba9f","6662009ae78f21dd82fcd179","6662081d9a2c7c294fca07d3","null","","null","","","","","","","","./tasks/HMM-beads/Images/WhiteBeadChoice.png","","","","","","","","","",""
"image-keyboard-response","312","601648","0.0-3.0-6.0-1.0-2.58","60d6befca58e40d0c63bba9f","6662009ae78f21dd82fcd179","6662081d9a2c7c294fca07d3","null","","null","","","","","","","","./tasks/HMM-beads/Images/WhiteBeadChoiceCorrect.png","","","","","","","","","",""
"image-keyboard-response","313","601866","0.0-3.0-6.0-1.0-0.59","60d6befca58e40d0c63bba9f","6662009ae78f21dd82fcd179","6662081d9a2c7c294fca07d3","215","","j","","","","","","","","./tasks/HMM-beads/Images/NewTrialWC.png","lowH","1","59","1","0","1","1","false","",""
"image-keyboard-response","314","602167","0.0-3.0-6.0-1.0-1.59","60d6befca58e40d0c63bba9f","6662009ae78f21dd82fcd179","6662081d9a2c7c294fca07d3","null","","null","","","","","","","","./tasks/HMM-beads/Images/WhiteBeadChoice.png","","","","","","","","","",""
"image-keyboard-response","315","602670","0.0-3.0-6.0-1.0-2.59","60d6befca58e40d0c63bba9f","6662009ae78f21dd82fcd179","6662081d9a2c7c294fca07d3","null","","null","","","","","","","","./tasks/HMM-beads/Images/WhiteBeadChoiceWrong.png","","","","","","","","","",""
"image-keyboard-response","316","602866","0.0-3.0-6.0-1.0-0.60","60d6befca58e40d0c63bba9f","6662009ae78f21dd82fcd179","6662081d9a2c7c294fca07d3","196","","f","","","","","","","","./tasks/HMM-beads/Images/NewTrialBC.png","lowH","1","60","1","1","0","0","false","",""
"image-keyboard-response","317","603175","0.0-3.0-6.0-1.0-1.60","60d6befca58e40d0c63bba9f","6662009ae78f21dd82fcd179","6662081d9a2c7c294fca07d3","null","","null","","","","","","","","./tasks/HMM-beads/Images/BlackBeadChoice.png","","","","","","","","","",""
"image-keyboard-response","318","603690","0.0-3.0-6.0-1.0-2.60","60d6befca58e40d0c63bba9f","6662009ae78f21dd82fcd179","6662081d9a2c7c294fca07d3","null","","null","","","","","","","","./tasks/HMM-beads/Images/BlackBeadChoiceWrong.png","","","","","","","","","",""
"image-keyboard-response","319","603856","0.0-3.0-6.0-1.0-0.61","60d6befca58e40d0c63bba9f","6662009ae78f21dd82fcd179","6662081d9a2c7c294fca07d3","164","","j","","","","","","","","./tasks/HMM-beads/Images/NewTrialWC.png","lowH","1","61","1","1","1","1","true","",""
"image-keyboard-response","320","604163","0.0-3.0-6.0-1.0-1.61","60d6befca58e40d0c63bba9f","6662009ae78f21dd82fcd179","6662081d9a2c7c294fca07d3","null","","null","","","","","","","","./tasks/HMM-beads/Images/WhiteBeadChoice.png","","","","","","","","","",""
"image-keyboard-response","321","604680","0.0-3.0-6.0-1.0-2.61","60d6befca58e40d0c63bba9f","6662009ae78f21dd82fcd179","6662081d9a2c7c294fca07d3","null","","null","","","","","","","","./tasks/HMM-beads/Images/WhiteBeadChoiceCorrect.png","","","","","","","","","",""
"image-keyboard-response","322","604864","0.0-3.0-6.0-1.0-0.62","60d6befca58e40d0c63bba9f","6662009ae78f21dd82fcd179","6662081d9a2c7c294fca07d3","182","","j","","","","","","","","./tasks/HMM-beads/Images/NewTrialWC.png","lowH","1","62","1","0","1","1","false","",""
"image-keyboard-response","323","605183","0.0-3.0-6.0-1.0-1.62","60d6befca58e40d0c63bba9f","6662009ae78f21dd82fcd179","6662081d9a2c7c294fca07d3","null","","null","","","","","","","","./tasks/HMM-beads/Images/WhiteBeadChoice.png","","","","","","","","","",""
"image-keyboard-response","324","605691","0.0-3.0-6.0-1.0-2.62","60d6befca58e40d0c63bba9f","6662009ae78f21dd82fcd179","6662081d9a2c7c294fca07d3","null","","null","","","","","","","","./tasks/HMM-beads/Images/WhiteBeadChoiceWrong.png","","","","","","","","","",""
"image-keyboard-response","325","605881","0.0-3.0-6.0-1.0-0.63","60d6befca58e40d0c63bba9f","6662009ae78f21dd82fcd179","6662081d9a2c7c294fca07d3","189","","j","","","","","","","","./tasks/HMM-beads/Images/NewTrialBC.png","lowH","1","63","1","1","0","1","true","",""
"image-keyboard-response","326","606194","0.0-3.0-6.0-1.0-1.63","60d6befca58e40d0c63bba9f","6662009ae78f21dd82fcd179","6662081d9a2c7c294fca07d3","null","","null","","","","","","","","./tasks/HMM-beads/Images/WhiteBeadChoice.png","","","","","","","","","",""
"image-keyboard-response","327","606704","0.0-3.0-6.0-1.0-2.63","60d6befca58e40d0c63bba9f","6662009ae78f21dd82fcd179","6662081d9a2c7c294fca07d3","null","","null","","","","","","","","./tasks/HMM-beads/Images/WhiteBeadChoiceCorrect.png","","","","","","","","","",""
"image-keyboard-response","328","607043","0.0-3.0-6.0-1.0-0.64","60d6befca58e40d0c63bba9f","6662009ae78f21dd82fcd179","6662081d9a2c7c294fca07d3","337","","f","","","","","","","","./tasks/HMM-beads/Images/NewTrialWC.png","lowH","1","64","1","1","1","0","false","",""
"image-keyboard-response","329","607348","0.0-3.0-6.0-1.0-1.64","60d6befca58e40d0c63bba9f","6662009ae78f21dd82fcd179","6662081d9a2c7c294fca07d3","null","","null","","","","","","","","./tasks/HMM-beads/Images/BlackBeadChoice.png","","","","","","","","","",""
"image-keyboard-response","330","607857","0.0-3.0-6.0-1.0-2.64","60d6befca58e40d0c63bba9f","6662009ae78f21dd82fcd179","6662081d9a2c7c294fca07d3","null","","null","","","","","","","","./tasks/HMM-beads/Images/BlackBeadChoiceWrong.png","","","","","","","","","",""
"image-keyboard-response","331","608044","0.0-3.0-6.0-1.0-0.65","60d6befca58e40d0c63bba9f","6662009ae78f21dd82fcd179","6662081d9a2c7c294fca07d3","186","","j","","","","","","","","./tasks/HMM-beads/Images/NewTrialWC.png","lowH","1","65","1","1","1","1","true","",""
"image-keyboard-response","332","608348","0.0-3.0-6.0-1.0-1.65","60d6befca58e40d0c63bba9f","6662009ae78f21dd82fcd179","6662081d9a2c7c294fca07d3","null","","null","","","","","","","","./tasks/HMM-beads/Images/WhiteBeadChoice.png","","","","","","","","","",""
"image-keyboard-response","333","608853","0.0-3.0-6.0-1.0-2.65","60d6befca58e40d0c63bba9f","6662009ae78f21dd82fcd179","6662081d9a2c7c294fca07d3","null","","null","","","","","","","","./tasks/HMM-beads/Images/WhiteBeadChoiceCorrect.png","","","","","","","","","",""
"image-keyboard-response","334","609002","0.0-3.0-6.0-1.0-0.66","60d6befca58e40d0c63bba9f","6662009ae78f21dd82fcd179","6662081d9a2c7c294fca07d3","148","","j","","","","","","","","./tasks/HMM-beads/Images/NewTrialWC.png","lowH","1","66","1","1","1","1","true","",""
"image-keyboard-response","335","609306","0.0-3.0-6.0-1.0-1.66","60d6befca58e40d0c63bba9f","6662009ae78f21dd82fcd179","6662081d9a2c7c294fca07d3","null","","null","","","","","","","","./tasks/HMM-beads/Images/WhiteBeadChoice.png","","","","","","","","","",""
"image-keyboard-response","336","609824","0.0-3.0-6.0-1.0-2.66","60d6befca58e40d0c63bba9f","6662009ae78f21dd82fcd179","6662081d9a2c7c294fca07d3","null","","null","","","","","","","","./tasks/HMM-beads/Images/WhiteBeadChoiceCorrect.png","","","","","","","","","",""
"image-keyboard-response","337","609888","0.0-3.0-6.0-1.0-0.67","60d6befca58e40d0c63bba9f","6662009ae78f21dd82fcd179","6662081d9a2c7c294fca07d3","62","","j","","","","","","","","./tasks/HMM-beads/Images/NewTrialWC.png","lowH","1","67","1","0","1","1","false","",""
"image-keyboard-response","338","610202","0.0-3.0-6.0-1.0-1.67","60d6befca58e40d0c63bba9f","6662009ae78f21dd82fcd179","6662081d9a2c7c294fca07d3","null","","null","","","","","","","","./tasks/HMM-beads/Images/WhiteBeadChoice.png","","","","","","","","","",""
"image-keyboard-response","339","610709","0.0-3.0-6.0-1.0-2.67","60d6befca58e40d0c63bba9f","6662009ae78f21dd82fcd179","6662081d9a2c7c294fca07d3","null","","null","","","","","","","","./tasks/HMM-beads/Images/WhiteBeadChoiceWrong.png","","","","","","","","","",""
"image-keyboard-response","340","610892","0.0-3.0-6.0-1.0-0.68","60d6befca58e40d0c63bba9f","6662009ae78f21dd82fcd179","6662081d9a2c7c294fca07d3","181","","j","","","","","","","","./tasks/HMM-beads/Images/NewTrialBC.png","lowH","1","68","1","1","0","1","true","",""
"image-keyboard-response","341","611210","0.0-3.0-6.0-1.0-1.68","60d6befca58e40d0c63bba9f","6662009ae78f21dd82fcd179","6662081d9a2c7c294fca07d3","null","","null","","","","","","","","./tasks/HMM-beads/Images/WhiteBeadChoice.png","","","","","","","","","",""
"image-keyboard-response","342","611727","0.0-3.0-6.0-1.0-2.68","60d6befca58e40d0c63bba9f","6662009ae78f21dd82fcd179","6662081d9a2c7c294fca07d3","null","","null","","","","","","","","./tasks/HMM-beads/Images/WhiteBeadChoiceCorrect.png","","","","","","","","","",""
"image-keyboard-response","343","611839","0.0-3.0-6.0-1.0-0.69","60d6befca58e40d0c63bba9f","6662009ae78f21dd82fcd179","6662081d9a2c7c294fca07d3","110","","j","","","","","","","","./tasks/HMM-beads/Images/NewTrialWC.png","lowH","1","69","0","1","1","1","true","",""
"image-keyboard-response","344","612146","0.0-3.0-6.0-1.0-1.69","60d6befca58e40d0c63bba9f","6662009ae78f21dd82fcd179","6662081d9a2c7c294fca07d3","null","","null","","","","","","","","./tasks/HMM-beads/Images/WhiteBeadChoice.png","","","","","","","","","",""
"image-keyboard-response","345","612663","0.0-3.0-6.0-1.0-2.69","60d6befca58e40d0c63bba9f","6662009ae78f21dd82fcd179","6662081d9a2c7c294fca07d3","null","","null","","","","","","","","./tasks/HMM-beads/Images/WhiteBeadChoiceCorrect.png","","","","","","","","","",""
"image-keyboard-response","346","614909","0.0-3.0-6.0-1.0-0.70","60d6befca58e40d0c63bba9f","6662009ae78f21dd82fcd179","6662081d9a2c7c294fca07d3","2245","","j","","","","","","","","./tasks/HMM-beads/Images/NewTrialWC.png","lowH","1","70","0","1","1","1","true","",""
"image-keyboard-response","347","615226","0.0-3.0-6.0-1.0-1.70","60d6befca58e40d0c63bba9f","6662009ae78f21dd82fcd179","6662081d9a2c7c294fca07d3","null","","null","","","","","","","","./tasks/HMM-beads/Images/WhiteBeadChoice.png","","","","","","","","","",""
"image-keyboard-response","348","615734","0.0-3.0-6.0-1.0-2.70","60d6befca58e40d0c63bba9f","6662009ae78f21dd82fcd179","6662081d9a2c7c294fca07d3","null","","null","","","","","","","","./tasks/HMM-beads/Images/WhiteBeadChoiceCorrect.png","","","","","","","","","",""
"image-keyboard-response","349","615911","0.0-3.0-6.0-1.0-0.71","60d6befca58e40d0c63bba9f","6662009ae78f21dd82fcd179","6662081d9a2c7c294fca07d3","175","","j","","","","","","","","./tasks/HMM-beads/Images/NewTrialWC.png","lowH","1","71","0","0","1","1","false","",""
"image-keyboard-response","350","616223","0.0-3.0-6.0-1.0-1.71","60d6befca58e40d0c63bba9f","6662009ae78f21dd82fcd179","6662081d9a2c7c294fca07d3","null","","null","","","","","","","","./tasks/HMM-beads/Images/WhiteBeadChoice.png","","","","","","","","","",""
"image-keyboard-response","351","616736","0.0-3.0-6.0-1.0-2.71","60d6befca58e40d0c63bba9f","6662009ae78f21dd82fcd179","6662081d9a2c7c294fca07d3","null","","null","","","","","","","","./tasks/HMM-beads/Images/WhiteBeadChoiceWrong.png","","","","","","","","","",""
"image-keyboard-response","352","616753","0.0-3.0-6.0-1.0-0.72","60d6befca58e40d0c63bba9f","6662009ae78f21dd82fcd179","6662081d9a2c7c294fca07d3","16","","f","","","","","","","","./tasks/HMM-beads/Images/NewTrialBC.png","lowH","1","72","0","0","0","0","true","",""
"image-keyboard-response","353","617056","0.0-3.0-6.0-1.0-1.72","60d6befca58e40d0c63bba9f","6662009ae78f21dd82fcd179","6662081d9a2c7c294fca07d3","null","","null","","","","","","","","./tasks/HMM-beads/Images/BlackBeadChoice.png","","","","","","","","","",""
"image-keyboard-response","354","617581","0.0-3.0-6.0-1.0-2.72","60d6befca58e40d0c63bba9f","6662009ae78f21dd82fcd179","6662081d9a2c7c294fca07d3","null","","null","","","","","","","","./tasks/HMM-beads/Images/BlackBeadChoiceCorrect.png","","","","","","","","","",""
"image-keyboard-response","355","617966","0.0-3.0-6.0-1.0-0.73","60d6befca58e40d0c63bba9f","6662009ae78f21dd82fcd179","6662081d9a2c7c294fca07d3","384","","f","","","","","","","","./tasks/HMM-beads/Images/NewTrialBC.png","lowH","1","73","0","1","0","0","false","",""
"image-keyboard-response","356","618276","0.0-3.0-6.0-1.0-1.73","60d6befca58e40d0c63bba9f","6662009ae78f21dd82fcd179","6662081d9a2c7c294fca07d3","null","","null","","","","","","","","./tasks/HMM-beads/Images/BlackBeadChoice.png","","","","","","","","","",""
"image-keyboard-response","357","618793","0.0-3.0-6.0-1.0-2.73","60d6befca58e40d0c63bba9f","6662009ae78f21dd82fcd179","6662081d9a2c7c294fca07d3","null","","null","","","","","","","","./tasks/HMM-beads/Images/BlackBeadChoiceWrong.png","","","","","","","","","",""
"image-keyboard-response","358","619199","0.0-3.0-6.0-1.0-0.74","60d6befca58e40d0c63bba9f","6662009ae78f21dd82fcd179","6662081d9a2c7c294fca07d3","405","","f","","","","","","","","./tasks/HMM-beads/Images/NewTrialWC.png","lowH","1","74","0","0","1","0","true","",""
"image-keyboard-response","359","619509","0.0-3.0-6.0-1.0-1.74","60d6befca58e40d0c63bba9f","6662009ae78f21dd82fcd179","6662081d9a2c7c294fca07d3","null","","null","","","","","","","","./tasks/HMM-beads/Images/BlackBeadChoice.png","","","","","","","","","",""
"image-keyboard-response","360","620016","0.0-3.0-6.0-1.0-2.74","60d6befca58e40d0c63bba9f","6662009ae78f21dd82fcd179","6662081d9a2c7c294fca07d3","null","","null","","","","","","","","./tasks/HMM-beads/Images/BlackBeadChoiceCorrect.png","","","","","","","","","",""
"image-keyboard-response","361","620171","0.0-3.0-6.0-1.0-0.75","60d6befca58e40d0c63bba9f","6662009ae78f21dd82fcd179","6662081d9a2c7c294fca07d3","155","","j","","","","","","","","./tasks/HMM-beads/Images/NewTrialBC.png","lowH","1","75","0","1","0","1","true","",""
"image-keyboard-response","362","620488","0.0-3.0-6.0-1.0-1.75","60d6befca58e40d0c63bba9f","6662009ae78f21dd82fcd179","6662081d9a2c7c294fca07d3","null","","null","","","","","","","","./tasks/HMM-beads/Images/WhiteBeadChoice.png","","","","","","","","","",""
"image-keyboard-response","363","621001","0.0-3.0-6.0-1.0-2.75","60d6befca58e40d0c63bba9f","6662009ae78f21dd82fcd179","6662081d9a2c7c294fca07d3","null","","null","","","","","","","","./tasks/HMM-beads/Images/WhiteBeadChoiceCorrect.png","","","","","","","","","",""
"image-keyboard-response","364","621279","0.0-3.0-6.0-1.0-0.76","60d6befca58e40d0c63bba9f","6662009ae78f21dd82fcd179","6662081d9a2c7c294fca07d3","276","","j","","","","","","","","./tasks/HMM-beads/Images/NewTrialWC.png","lowH","1","76","0","1","1","1","true","",""
"image-keyboard-response","365","621581","0.0-3.0-6.0-1.0-1.76","60d6befca58e40d0c63bba9f","6662009ae78f21dd82fcd179","6662081d9a2c7c294fca07d3","null","","null","","","","","","","","./tasks/HMM-beads/Images/WhiteBeadChoice.png","","","","","","","","","",""
"image-keyboard-response","366","622099","0.0-3.0-6.0-1.0-2.76","60d6befca58e40d0c63bba9f","6662009ae78f21dd82fcd179","6662081d9a2c7c294fca07d3","null","","null","","","","","","","","./tasks/HMM-beads/Images/WhiteBeadChoiceCorrect.png","","","","","","","","","",""
"image-keyboard-response","367","622417","0.0-3.0-6.0-1.0-0.77","60d6befca58e40d0c63bba9f","6662009ae78f21dd82fcd179","6662081d9a2c7c294fca07d3","317","","j","","","","","","","","./tasks/HMM-beads/Images/NewTrialWC.png","lowH","1","77","0","0","1","1","false","",""
"image-keyboard-response","368","622730","0.0-3.0-6.0-1.0-1.77","60d6befca58e40d0c63bba9f","6662009ae78f21dd82fcd179","6662081d9a2c7c294fca07d3","null","","null","","","","","","","","./tasks/HMM-beads/Images/WhiteBeadChoice.png","","","","","","","","","",""
"image-keyboard-response","369","623240","0.0-3.0-6.0-1.0-2.77","60d6befca58e40d0c63bba9f","6662009ae78f21dd82fcd179","6662081d9a2c7c294fca07d3","null","","null","","","","","","","","./tasks/HMM-beads/Images/WhiteBeadChoiceWrong.png","","","","","","","","","",""
"image-keyboard-response","370","624118","0.0-3.0-6.0-1.0-0.78","60d6befca58e40d0c63bba9f","6662009ae78f21dd82fcd179","6662081d9a2c7c294fca07d3","877","","j","","","","","","","","./tasks/HMM-beads/Images/NewTrialBC.png","lowH","1","78","0","0","0","1","false","",""
"image-keyboard-response","371","624422","0.0-3.0-6.0-1.0-1.78","60d6befca58e40d0c63bba9f","6662009ae78f21dd82fcd179","6662081d9a2c7c294fca07d3","null","","null","","","","","","","","./tasks/HMM-beads/Images/WhiteBeadChoice.png","","","","","","","","","",""
"image-keyboard-response","372","624938","0.0-3.0-6.0-1.0-2.78","60d6befca58e40d0c63bba9f","6662009ae78f21dd82fcd179","6662081d9a2c7c294fca07d3","null","","null","","","","","","","","./tasks/HMM-beads/Images/WhiteBeadChoiceWrong.png","","","","","","","","","",""
