"trial_type","trial_index","time_elapsed","internal_node_id","subject_id","study_id","session_id","rt","url","response","question_order","view_history","success","timeout","failed_images","failed_audio","failed_video","stimulus","block","block_rep","trial_number","jar","bead","previous_bead","choice","correct","lowH_score","total_bonus"
"pavlovia","0","1200","0.0-0.0","663a5538ea4ded3dd872258e","666094c154fdc95dca3e206f","6660994ce249b8d2e28a4500","","","","","","","","","","","","","","","","","","","","",""
"external-html","1","89548","0.0-1.0-0.0","663a5538ea4ded3dd872258e","666094c154fdc95dca3e206f","6660994ce249b8d2e28a4500","88205","new_consent.html","","","","","","","","","","","","","","","","","","",""
"survey-multi-choice","2","95135","0.0-1.0-1.0","663a5538ea4ded3dd872258e","666094c154fdc95dca3e206f","6660994ce249b8d2e28a4500","5576","","{""Q0"":""Female"",""Q1"":""Black or African American""}","[0,1]","","","","","","","","","","","","","","","","",""
"survey-text","3","98326","0.0-1.0-2.0","663a5538ea4ded3dd872258e","666094c154fdc95dca3e206f","6660994ce249b8d2e28a4500","3174","","{""Q0"":""18""}","","","","","","","","","","","","","","","","","",""
"instructions","4","100288","0.0-2.0","663a5538ea4ded3dd872258e","666094c154fdc95dca3e206f","6660994ce249b8d2e28a4500","1855","","","","[{""page_index"":0,""viewing_time"":1854}]","","","","","","","","","","","","","","","",""
"preload","5","101988","0.0-3.0-0.0","663a5538ea4ded3dd872258e","666094c154fdc95dca3e206f","6660994ce249b8d2e28a4500","","","","","","true","false","[]","[]","[]","","","","","","","","","","",""
"instructions","6","618373","0.0-3.0-1.0","663a5538ea4ded3dd872258e","666094c154fdc95dca3e206f","6660994ce249b8d2e28a4500","516384","","","","[{""page_index"":0,""viewing_time"":202904},{""page_index"":1,""viewing_time"":166673},{""page_index"":2,""viewing_time"":3557},{""page_index"":3,""viewing_time"":1631},{""page_index"":4,""viewing_time"":8278},{""page_index"":5,""viewing_time"":19845},{""page_index"":6,""viewing_time"":51058},{""page_index"":7,""viewing_time"":41031},{""page_index"":8,""viewing_time"":4989},{""page_index"":9,""viewing_time"":3019},{""page_index"":10,""viewing_time"":8651},{""page_index"":11,""viewing_time"":4746}]","","","","","","","","","","","","","","","",""
"html-button-response","7","624712","0.0-3.0-2.0-0.0-0.0","663a5538ea4ded3dd872258e","666094c154fdc95dca3e206f","6660994ce249b8d2e28a4500","6334","","1","","","","","","","","<div align=center>Your goal is to predict…?<br><br></div>","","","","","","","","","",""
"html-button-response","8","630738","0.0-3.0-2.0-1.0-0.0","663a5538ea4ded3dd872258e","666094c154fdc95dca3e206f","6660994ce249b8d2e28a4500","3993","","2","","","","","","","","<div align=center>In the jar with mostly white beads, there are ___% white beads and ___% black beads?<br><br></div>","","","","","","","","","",""
"html-button-response","9","636671","0.0-3.0-2.0-2.0-0.0","663a5538ea4ded3dd872258e","666094c154fdc95dca3e206f","6660994ce249b8d2e28a4500","4689","","0","","","","","","","","<div align=center>When there is a 1% probability that the jars will switch, the next bead will most likely be drawn from the…<br><br></div>","","","","","","","","","",""
"html-button-response","10","642160","0.0-3.0-2.0-3.0-0.0","663a5538ea4ded3dd872258e","666094c154fdc95dca3e206f","6660994ce249b8d2e28a4500","4215","","1","","","","","","","","<div align=center>When there is a 99% probability that the jars will switch, the next bead will most likely be drawn from the…<br><br></div>","","","","","","","","","",""
"instructions","11","720655","0.0-3.0-3.0","663a5538ea4ded3dd872258e","666094c154fdc95dca3e206f","6660994ce249b8d2e28a4500","77463","","","","[{""page_index"":0,""viewing_time"":77463}]","","","","","","","","","","","","","","","",""
"html-keyboard-response","12","728131","0.0-3.0-4.0-0.0","663a5538ea4ded3dd872258e","666094c154fdc95dca3e206f","6660994ce249b8d2e28a4500","7473",""," ","","","","","","","","<div align=center>In this practice block, there will be a <b>1% chance</b> that the jar on the next trial will be different from the jar on the current trial.<br><br></div>","","","","","","","","","",""
"image-keyboard-response","13","733707","0.0-3.0-4.0-1.0-0.0","663a5538ea4ded3dd872258e","666094c154fdc95dca3e206f","6660994ce249b8d2e28a4500","5569","","f","","","","","","","","./tasks/HMM-beads/Images/NoChoice.png","practice","0","0","0","0","9","0","true","",""
"image-keyboard-response","14","734025","0.0-3.0-4.0-1.0-1.0","663a5538ea4ded3dd872258e","666094c154fdc95dca3e206f","6660994ce249b8d2e28a4500","null","","null","","","","","","","","./tasks/HMM-beads/Images/BlackBeadChoice.png","","","","","","","","","",""
"image-keyboard-response","15","734529","0.0-3.0-4.0-1.0-2.0","663a5538ea4ded3dd872258e","666094c154fdc95dca3e206f","6660994ce249b8d2e28a4500","null","","null","","","","","","","","./tasks/HMM-beads/Images/BlackBeadChoiceCorrect.png","","","","","","","","","",""
"image-keyboard-response","16","735463","0.0-3.0-4.0-1.0-0.1","663a5538ea4ded3dd872258e","666094c154fdc95dca3e206f","6660994ce249b8d2e28a4500","932","","f","","","","","","","","./tasks/HMM-beads/Images/NewTrialBC.png","practice","0","1","0","0","0","0","true","",""
"image-keyboard-response","17","735775","0.0-3.0-4.0-1.0-1.1","663a5538ea4ded3dd872258e","666094c154fdc95dca3e206f","6660994ce249b8d2e28a4500","null","","null","","","","","","","","./tasks/HMM-beads/Images/BlackBeadChoice.png","","","","","","","","","",""
"image-keyboard-response","18","736293","0.0-3.0-4.0-1.0-2.1","663a5538ea4ded3dd872258e","666094c154fdc95dca3e206f","6660994ce249b8d2e28a4500","null","","null","","","","","","","","./tasks/HMM-beads/Images/BlackBeadChoiceCorrect.png","","","","","","","","","",""
"image-keyboard-response","19","737194","0.0-3.0-4.0-1.0-0.2","663a5538ea4ded3dd872258e","666094c154fdc95dca3e206f","6660994ce249b8d2e28a4500","898","","f","","","","","","","","./tasks/HMM-beads/Images/NewTrialBC.png","practice","0","2","0","1","0","0","false","",""
"image-keyboard-response","20","737507","0.0-3.0-4.0-1.0-1.2","663a5538ea4ded3dd872258e","666094c154fdc95dca3e206f","6660994ce249b8d2e28a4500","null","","null","","","","","","","","./tasks/HMM-beads/Images/BlackBeadChoice.png","","","","","","","","","",""
"image-keyboard-response","21","738012","0.0-3.0-4.0-1.0-2.2","663a5538ea4ded3dd872258e","666094c154fdc95dca3e206f","6660994ce249b8d2e28a4500","null","","null","","","","","","","","./tasks/HMM-beads/Images/BlackBeadChoiceWrong.png","","","","","","","","","",""
"image-keyboard-response","22","739404","0.0-3.0-4.0-1.0-0.3","663a5538ea4ded3dd872258e","666094c154fdc95dca3e206f","6660994ce249b8d2e28a4500","1390","","f","","","","","","","","./tasks/HMM-beads/Images/NewTrialWC.png","practice","0","3","0","0","1","0","true","",""
"image-keyboard-response","23","739707","0.0-3.0-4.0-1.0-1.3","663a5538ea4ded3dd872258e","666094c154fdc95dca3e206f","6660994ce249b8d2e28a4500","null","","null","","","","","","","","./tasks/HMM-beads/Images/BlackBeadChoice.png","","","","","","","","","",""
"image-keyboard-response","24","740210","0.0-3.0-4.0-1.0-2.3","663a5538ea4ded3dd872258e","666094c154fdc95dca3e206f","6660994ce249b8d2e28a4500","null","","null","","","","","","","","./tasks/HMM-beads/Images/BlackBeadChoiceCorrect.png","","","","","","","","","",""
"image-keyboard-response","25","741247","0.0-3.0-4.0-1.0-0.4","663a5538ea4ded3dd872258e","666094c154fdc95dca3e206f","6660994ce249b8d2e28a4500","1033","","j","","","","","","","","./tasks/HMM-beads/Images/NewTrialBC.png","practice","0","4","0","0","0","1","false","",""
"image-keyboard-response","26","741558","0.0-3.0-4.0-1.0-1.4","663a5538ea4ded3dd872258e","666094c154fdc95dca3e206f","6660994ce249b8d2e28a4500","null","","null","","","","","","","","./tasks/HMM-beads/Images/WhiteBeadChoice.png","","","","","","","","","",""
"image-keyboard-response","27","742061","0.0-3.0-4.0-1.0-2.4","663a5538ea4ded3dd872258e","666094c154fdc95dca3e206f","6660994ce249b8d2e28a4500","null","","null","","","","","","","","./tasks/HMM-beads/Images/WhiteBeadChoiceWrong.png","","","","","","","","","",""
"image-keyboard-response","28","744373","0.0-3.0-4.0-1.0-0.5","663a5538ea4ded3dd872258e","666094c154fdc95dca3e206f","6660994ce249b8d2e28a4500","2309","","j","","","","","","","","./tasks/HMM-beads/Images/NewTrialBC.png","practice","0","5","0","1","0","1","true","",""
"image-keyboard-response","29","744691","0.0-3.0-4.0-1.0-1.5","663a5538ea4ded3dd872258e","666094c154fdc95dca3e206f","6660994ce249b8d2e28a4500","null","","null","","","","","","","","./tasks/HMM-beads/Images/WhiteBeadChoice.png","","","","","","","","","",""
"image-keyboard-response","30","745195","0.0-3.0-4.0-1.0-2.5","663a5538ea4ded3dd872258e","666094c154fdc95dca3e206f","6660994ce249b8d2e28a4500","null","","null","","","","","","","","./tasks/HMM-beads/Images/WhiteBeadChoiceCorrect.png","","","","","","","","","",""
"image-keyboard-response","31","746082","0.0-3.0-4.0-1.0-0.6","663a5538ea4ded3dd872258e","666094c154fdc95dca3e206f","6660994ce249b8d2e28a4500","885","","f","","","","","","","","./tasks/HMM-beads/Images/NewTrialWC.png","practice","0","6","0","0","1","0","true","",""
"image-keyboard-response","32","746391","0.0-3.0-4.0-1.0-1.6","663a5538ea4ded3dd872258e","666094c154fdc95dca3e206f","6660994ce249b8d2e28a4500","null","","null","","","","","","","","./tasks/HMM-beads/Images/BlackBeadChoice.png","","","","","","","","","",""
"image-keyboard-response","33","746902","0.0-3.0-4.0-1.0-2.6","663a5538ea4ded3dd872258e","666094c154fdc95dca3e206f","6660994ce249b8d2e28a4500","null","","null","","","","","","","","./tasks/HMM-beads/Images/BlackBeadChoiceCorrect.png","","","","","","","","","",""
"image-keyboard-response","34","747289","0.0-3.0-4.0-1.0-0.7","663a5538ea4ded3dd872258e","666094c154fdc95dca3e206f","6660994ce249b8d2e28a4500","384","","f","","","","","","","","./tasks/HMM-beads/Images/NewTrialBC.png","practice","0","7","0","0","0","0","true","",""
"image-keyboard-response","35","747591","0.0-3.0-4.0-1.0-1.7","663a5538ea4ded3dd872258e","666094c154fdc95dca3e206f","6660994ce249b8d2e28a4500","null","","null","","","","","","","","./tasks/HMM-beads/Images/BlackBeadChoice.png","","","","","","","","","",""
"image-keyboard-response","36","748102","0.0-3.0-4.0-1.0-2.7","663a5538ea4ded3dd872258e","666094c154fdc95dca3e206f","6660994ce249b8d2e28a4500","null","","null","","","","","","","","./tasks/HMM-beads/Images/BlackBeadChoiceCorrect.png","","","","","","","","","",""
"image-keyboard-response","37","749222","0.0-3.0-4.0-1.0-0.8","663a5538ea4ded3dd872258e","666094c154fdc95dca3e206f","6660994ce249b8d2e28a4500","1116","","f","","","","","","","","./tasks/HMM-beads/Images/NewTrialBC.png","practice","0","8","0","0","0","0","true","",""
"image-keyboard-response","38","749555","0.0-3.0-4.0-1.0-1.8","663a5538ea4ded3dd872258e","666094c154fdc95dca3e206f","6660994ce249b8d2e28a4500","null","","null","","","","","","","","./tasks/HMM-beads/Images/BlackBeadChoice.png","","","","","","","","","",""
"image-keyboard-response","39","750068","0.0-3.0-4.0-1.0-2.8","663a5538ea4ded3dd872258e","666094c154fdc95dca3e206f","6660994ce249b8d2e28a4500","null","","null","","","","","","","","./tasks/HMM-beads/Images/BlackBeadChoiceCorrect.png","","","","","","","","","",""
"image-keyboard-response","40","750524","0.0-3.0-4.0-1.0-0.9","663a5538ea4ded3dd872258e","666094c154fdc95dca3e206f","6660994ce249b8d2e28a4500","454","","j","","","","","","","","./tasks/HMM-beads/Images/NewTrialBC.png","practice","0","9","0","1","0","1","true","",""
"image-keyboard-response","41","750834","0.0-3.0-4.0-1.0-1.9","663a5538ea4ded3dd872258e","666094c154fdc95dca3e206f","6660994ce249b8d2e28a4500","null","","null","","","","","","","","./tasks/HMM-beads/Images/WhiteBeadChoice.png","","","","","","","","","",""
"image-keyboard-response","42","751345","0.0-3.0-4.0-1.0-2.9","663a5538ea4ded3dd872258e","666094c154fdc95dca3e206f","6660994ce249b8d2e28a4500","null","","null","","","","","","","","./tasks/HMM-beads/Images/WhiteBeadChoiceCorrect.png","","","","","","","","","",""
"image-keyboard-response","43","752132","0.0-3.0-4.0-1.0-0.10","663a5538ea4ded3dd872258e","666094c154fdc95dca3e206f","6660994ce249b8d2e28a4500","785","","f","","","","","","","","./tasks/HMM-beads/Images/NewTrialWC.png","practice","0","10","0","0","1","0","true","",""
"image-keyboard-response","44","752439","0.0-3.0-4.0-1.0-1.10","663a5538ea4ded3dd872258e","666094c154fdc95dca3e206f","6660994ce249b8d2e28a4500","null","","null","","","","","","","","./tasks/HMM-beads/Images/BlackBeadChoice.png","","","","","","","","","",""
"image-keyboard-response","45","752951","0.0-3.0-4.0-1.0-2.10","663a5538ea4ded3dd872258e","666094c154fdc95dca3e206f","6660994ce249b8d2e28a4500","null","","null","","","","","","","","./tasks/HMM-beads/Images/BlackBeadChoiceCorrect.png","","","","","","","","","",""
"image-keyboard-response","46","753844","0.0-3.0-4.0-1.0-0.11","663a5538ea4ded3dd872258e","666094c154fdc95dca3e206f","6660994ce249b8d2e28a4500","890","","f","","","","","","","","./tasks/HMM-beads/Images/NewTrialBC.png","practice","0","11","0","1","0","0","false","",""
"image-keyboard-response","47","754155","0.0-3.0-4.0-1.0-1.11","663a5538ea4ded3dd872258e","666094c154fdc95dca3e206f","6660994ce249b8d2e28a4500","null","","null","","","","","","","","./tasks/HMM-beads/Images/BlackBeadChoice.png","","","","","","","","","",""
"image-keyboard-response","48","754669","0.0-3.0-4.0-1.0-2.11","663a5538ea4ded3dd872258e","666094c154fdc95dca3e206f","6660994ce249b8d2e28a4500","null","","null","","","","","","","","./tasks/HMM-beads/Images/BlackBeadChoiceWrong.png","","","","","","","","","",""
"image-keyboard-response","49","755061","0.0-3.0-4.0-1.0-0.12","663a5538ea4ded3dd872258e","666094c154fdc95dca3e206f","6660994ce249b8d2e28a4500","389","","f","","","","","","","","./tasks/HMM-beads/Images/NewTrialWC.png","practice","0","12","0","0","1","0","true","",""
"image-keyboard-response","50","755372","0.0-3.0-4.0-1.0-1.12","663a5538ea4ded3dd872258e","666094c154fdc95dca3e206f","6660994ce249b8d2e28a4500","null","","null","","","","","","","","./tasks/HMM-beads/Images/BlackBeadChoice.png","","","","","","","","","",""
"image-keyboard-response","51","755893","0.0-3.0-4.0-1.0-2.12","663a5538ea4ded3dd872258e","666094c154fdc95dca3e206f","6660994ce249b8d2e28a4500","null","","null","","","","","","","","./tasks/HMM-beads/Images/BlackBeadChoiceCorrect.png","","","","","","","","","",""
"image-keyboard-response","52","757034","0.0-3.0-4.0-1.0-0.13","663a5538ea4ded3dd872258e","666094c154fdc95dca3e206f","6660994ce249b8d2e28a4500","1139","","j","","","","","","","","./tasks/HMM-beads/Images/NewTrialBC.png","practice","0","13","0","0","0","1","false","",""
"image-keyboard-response","53","757340","0.0-3.0-4.0-1.0-1.13","663a5538ea4ded3dd872258e","666094c154fdc95dca3e206f","6660994ce249b8d2e28a4500","null","","null","","","","","","","","./tasks/HMM-beads/Images/WhiteBeadChoice.png","","","","","","","","","",""
"image-keyboard-response","54","757853","0.0-3.0-4.0-1.0-2.13","663a5538ea4ded3dd872258e","666094c154fdc95dca3e206f","6660994ce249b8d2e28a4500","null","","null","","","","","","","","./tasks/HMM-beads/Images/WhiteBeadChoiceWrong.png","","","","","","","","","",""
"image-keyboard-response","55","758678","0.0-3.0-4.0-1.0-0.14","663a5538ea4ded3dd872258e","666094c154fdc95dca3e206f","6660994ce249b8d2e28a4500","822","","j","","","","","","","","./tasks/HMM-beads/Images/NewTrialBC.png","practice","0","14","0","0","0","1","false","",""
"image-keyboard-response","56","758988","0.0-3.0-4.0-1.0-1.14","663a5538ea4ded3dd872258e","666094c154fdc95dca3e206f","6660994ce249b8d2e28a4500","null","","null","","","","","","","","./tasks/HMM-beads/Images/WhiteBeadChoice.png","","","","","","","","","",""
"image-keyboard-response","57","759507","0.0-3.0-4.0-1.0-2.14","663a5538ea4ded3dd872258e","666094c154fdc95dca3e206f","6660994ce249b8d2e28a4500","null","","null","","","","","","","","./tasks/HMM-beads/Images/WhiteBeadChoiceWrong.png","","","","","","","","","",""
"image-keyboard-response","58","759854","0.0-3.0-4.0-1.0-0.15","663a5538ea4ded3dd872258e","666094c154fdc95dca3e206f","6660994ce249b8d2e28a4500","344","","f","","","","","","","","./tasks/HMM-beads/Images/NewTrialBC.png","practice","0","15","0","0","0","0","true","",""
"image-keyboard-response","59","760171","0.0-3.0-4.0-1.0-1.15","663a5538ea4ded3dd872258e","666094c154fdc95dca3e206f","6660994ce249b8d2e28a4500","null","","null","","","","","","","","./tasks/HMM-beads/Images/BlackBeadChoice.png","","","","","","","","","",""
"image-keyboard-response","60","760684","0.0-3.0-4.0-1.0-2.15","663a5538ea4ded3dd872258e","666094c154fdc95dca3e206f","6660994ce249b8d2e28a4500","null","","null","","","","","","","","./tasks/HMM-beads/Images/BlackBeadChoiceCorrect.png","","","","","","","","","",""
"image-keyboard-response","61","761398","0.0-3.0-4.0-1.0-0.16","663a5538ea4ded3dd872258e","666094c154fdc95dca3e206f","6660994ce249b8d2e28a4500","710","","j","","","","","","","","./tasks/HMM-beads/Images/NewTrialBC.png","practice","0","16","0","0","0","1","false","",""
"image-keyboard-response","62","761713","0.0-3.0-4.0-1.0-1.16","663a5538ea4ded3dd872258e","666094c154fdc95dca3e206f","6660994ce249b8d2e28a4500","null","","null","","","","","","","","./tasks/HMM-beads/Images/WhiteBeadChoice.png","","","","","","","","","",""
"image-keyboard-response","63","762224","0.0-3.0-4.0-1.0-2.16","663a5538ea4ded3dd872258e","666094c154fdc95dca3e206f","6660994ce249b8d2e28a4500","null","","null","","","","","","","","./tasks/HMM-beads/Images/WhiteBeadChoiceWrong.png","","","","","","","","","",""
"image-keyboard-response","64","762523","0.0-3.0-4.0-1.0-0.17","663a5538ea4ded3dd872258e","666094c154fdc95dca3e206f","6660994ce249b8d2e28a4500","295","","f","","","","","","","","./tasks/HMM-beads/Images/NewTrialBC.png","practice","0","17","0","0","0","0","true","",""
"image-keyboard-response","65","762833","0.0-3.0-4.0-1.0-1.17","663a5538ea4ded3dd872258e","666094c154fdc95dca3e206f","6660994ce249b8d2e28a4500","null","","null","","","","","","","","./tasks/HMM-beads/Images/BlackBeadChoice.png","","","","","","","","","",""
"image-keyboard-response","66","763343","0.0-3.0-4.0-1.0-2.17","663a5538ea4ded3dd872258e","666094c154fdc95dca3e206f","6660994ce249b8d2e28a4500","null","","null","","","","","","","","./tasks/HMM-beads/Images/BlackBeadChoiceCorrect.png","","","","","","","","","",""
"image-keyboard-response","67","763759","0.0-3.0-4.0-1.0-0.18","663a5538ea4ded3dd872258e","666094c154fdc95dca3e206f","6660994ce249b8d2e28a4500","413","","f","","","","","","","","./tasks/HMM-beads/Images/NewTrialBC.png","practice","0","18","0","1","0","0","false","",""
"image-keyboard-response","68","764072","0.0-3.0-4.0-1.0-1.18","663a5538ea4ded3dd872258e","666094c154fdc95dca3e206f","6660994ce249b8d2e28a4500","null","","null","","","","","","","","./tasks/HMM-beads/Images/BlackBeadChoice.png","","","","","","","","","",""
"image-keyboard-response","69","764586","0.0-3.0-4.0-1.0-2.18","663a5538ea4ded3dd872258e","666094c154fdc95dca3e206f","6660994ce249b8d2e28a4500","null","","null","","","","","","","","./tasks/HMM-beads/Images/BlackBeadChoiceWrong.png","","","","","","","","","",""
"image-keyboard-response","70","765133","0.0-3.0-4.0-1.0-0.19","663a5538ea4ded3dd872258e","666094c154fdc95dca3e206f","6660994ce249b8d2e28a4500","545","","j","","","","","","","","./tasks/HMM-beads/Images/NewTrialWC.png","practice","0","19","0","0","1","1","false","",""
"image-keyboard-response","71","765440","0.0-3.0-4.0-1.0-1.19","663a5538ea4ded3dd872258e","666094c154fdc95dca3e206f","6660994ce249b8d2e28a4500","null","","null","","","","","","","","./tasks/HMM-beads/Images/WhiteBeadChoice.png","","","","","","","","","",""
"image-keyboard-response","72","765943","0.0-3.0-4.0-1.0-2.19","663a5538ea4ded3dd872258e","666094c154fdc95dca3e206f","6660994ce249b8d2e28a4500","null","","null","","","","","","","","./tasks/HMM-beads/Images/WhiteBeadChoiceWrong.png","","","","","","","","","",""
"image-keyboard-response","73","766616","0.0-3.0-4.0-1.0-0.20","663a5538ea4ded3dd872258e","666094c154fdc95dca3e206f","6660994ce249b8d2e28a4500","670","","f","","","","","","","","./tasks/HMM-beads/Images/NewTrialBC.png","practice","0","20","0","0","0","0","true","",""
"image-keyboard-response","74","766930","0.0-3.0-4.0-1.0-1.20","663a5538ea4ded3dd872258e","666094c154fdc95dca3e206f","6660994ce249b8d2e28a4500","null","","null","","","","","","","","./tasks/HMM-beads/Images/BlackBeadChoice.png","","","","","","","","","",""
"image-keyboard-response","75","767442","0.0-3.0-4.0-1.0-2.20","663a5538ea4ded3dd872258e","666094c154fdc95dca3e206f","6660994ce249b8d2e28a4500","null","","null","","","","","","","","./tasks/HMM-beads/Images/BlackBeadChoiceCorrect.png","","","","","","","","","",""
"image-keyboard-response","76","767952","0.0-3.0-4.0-1.0-0.21","663a5538ea4ded3dd872258e","666094c154fdc95dca3e206f","6660994ce249b8d2e28a4500","507","","f","","","","","","","","./tasks/HMM-beads/Images/NewTrialBC.png","practice","0","21","0","1","0","0","false","",""
"image-keyboard-response","77","768286","0.0-3.0-4.0-1.0-1.21","663a5538ea4ded3dd872258e","666094c154fdc95dca3e206f","6660994ce249b8d2e28a4500","null","","null","","","","","","","","./tasks/HMM-beads/Images/BlackBeadChoice.png","","","","","","","","","",""
"image-keyboard-response","78","768794","0.0-3.0-4.0-1.0-2.21","663a5538ea4ded3dd872258e","666094c154fdc95dca3e206f","6660994ce249b8d2e28a4500","null","","null","","","","","","","","./tasks/HMM-beads/Images/BlackBeadChoiceWrong.png","","","","","","","","","",""
"image-keyboard-response","79","769461","0.0-3.0-4.0-1.0-0.22","663a5538ea4ded3dd872258e","666094c154fdc95dca3e206f","6660994ce249b8d2e28a4500","664","","f","","","","","","","","./tasks/HMM-beads/Images/NewTrialWC.png","practice","0","22","1","1","1","0","false","",""
"image-keyboard-response","80","769769","0.0-3.0-4.0-1.0-1.22","663a5538ea4ded3dd872258e","666094c154fdc95dca3e206f","6660994ce249b8d2e28a4500","null","","null","","","","","","","","./tasks/HMM-beads/Images/BlackBeadChoice.png","","","","","","","","","",""
"image-keyboard-response","81","770284","0.0-3.0-4.0-1.0-2.22","663a5538ea4ded3dd872258e","666094c154fdc95dca3e206f","6660994ce249b8d2e28a4500","null","","null","","","","","","","","./tasks/HMM-beads/Images/BlackBeadChoiceWrong.png","","","","","","","","","",""
"image-keyboard-response","82","770769","0.0-3.0-4.0-1.0-0.23","663a5538ea4ded3dd872258e","666094c154fdc95dca3e206f","6660994ce249b8d2e28a4500","482","","j","","","","","","","","./tasks/HMM-beads/Images/NewTrialWC.png","practice","0","23","1","0","1","1","false","",""
"image-keyboard-response","83","771081","0.0-3.0-4.0-1.0-1.23","663a5538ea4ded3dd872258e","666094c154fdc95dca3e206f","6660994ce249b8d2e28a4500","null","","null","","","","","","","","./tasks/HMM-beads/Images/WhiteBeadChoice.png","","","","","","","","","",""
"image-keyboard-response","84","771592","0.0-3.0-4.0-1.0-2.23","663a5538ea4ded3dd872258e","666094c154fdc95dca3e206f","6660994ce249b8d2e28a4500","null","","null","","","","","","","","./tasks/HMM-beads/Images/WhiteBeadChoiceWrong.png","","","","","","","","","",""
"image-keyboard-response","85","771899","0.0-3.0-4.0-1.0-0.24","663a5538ea4ded3dd872258e","666094c154fdc95dca3e206f","6660994ce249b8d2e28a4500","303","","f","","","","","","","","./tasks/HMM-beads/Images/NewTrialBC.png","practice","0","24","1","1","0","0","false","",""
"image-keyboard-response","86","772203","0.0-3.0-4.0-1.0-1.24","663a5538ea4ded3dd872258e","666094c154fdc95dca3e206f","6660994ce249b8d2e28a4500","null","","null","","","","","","","","./tasks/HMM-beads/Images/BlackBeadChoice.png","","","","","","","","","",""
"image-keyboard-response","87","772707","0.0-3.0-4.0-1.0-2.24","663a5538ea4ded3dd872258e","666094c154fdc95dca3e206f","6660994ce249b8d2e28a4500","null","","null","","","","","","","","./tasks/HMM-beads/Images/BlackBeadChoiceWrong.png","","","","","","","","","",""
"image-keyboard-response","88","774234","0.0-3.0-4.0-1.0-0.25","663a5538ea4ded3dd872258e","666094c154fdc95dca3e206f","6660994ce249b8d2e28a4500","1523","","f","","","","","","","","./tasks/HMM-beads/Images/NewTrialWC.png","practice","0","25","1","1","1","0","false","",""
"image-keyboard-response","89","774538","0.0-3.0-4.0-1.0-1.25","663a5538ea4ded3dd872258e","666094c154fdc95dca3e206f","6660994ce249b8d2e28a4500","null","","null","","","","","","","","./tasks/HMM-beads/Images/BlackBeadChoice.png","","","","","","","","","",""
"image-keyboard-response","90","775066","0.0-3.0-4.0-1.0-2.25","663a5538ea4ded3dd872258e","666094c154fdc95dca3e206f","6660994ce249b8d2e28a4500","null","","null","","","","","","","","./tasks/HMM-beads/Images/BlackBeadChoiceWrong.png","","","","","","","","","",""
"image-keyboard-response","91","775693","0.0-3.0-4.0-1.0-0.26","663a5538ea4ded3dd872258e","666094c154fdc95dca3e206f","6660994ce249b8d2e28a4500","625","","f","","","","","","","","./tasks/HMM-beads/Images/NewTrialWC.png","practice","0","26","1","1","1","0","false","",""
"image-keyboard-response","92","776002","0.0-3.0-4.0-1.0-1.26","663a5538ea4ded3dd872258e","666094c154fdc95dca3e206f","6660994ce249b8d2e28a4500","null","","null","","","","","","","","./tasks/HMM-beads/Images/BlackBeadChoice.png","","","","","","","","","",""
"image-keyboard-response","93","776515","0.0-3.0-4.0-1.0-2.26","663a5538ea4ded3dd872258e","666094c154fdc95dca3e206f","6660994ce249b8d2e28a4500","null","","null","","","","","","","","./tasks/HMM-beads/Images/BlackBeadChoiceWrong.png","","","","","","","","","",""
"image-keyboard-response","94","776954","0.0-3.0-4.0-1.0-0.27","663a5538ea4ded3dd872258e","666094c154fdc95dca3e206f","6660994ce249b8d2e28a4500","436","","j","","","","","","","","./tasks/HMM-beads/Images/NewTrialWC.png","practice","0","27","1","1","1","1","true","",""
"image-keyboard-response","95","777270","0.0-3.0-4.0-1.0-1.27","663a5538ea4ded3dd872258e","666094c154fdc95dca3e206f","6660994ce249b8d2e28a4500","null","","null","","","","","","","","./tasks/HMM-beads/Images/WhiteBeadChoice.png","","","","","","","","","",""
"image-keyboard-response","96","777774","0.0-3.0-4.0-1.0-2.27","663a5538ea4ded3dd872258e","666094c154fdc95dca3e206f","6660994ce249b8d2e28a4500","null","","null","","","","","","","","./tasks/HMM-beads/Images/WhiteBeadChoiceCorrect.png","","","","","","","","","",""
"image-keyboard-response","97","778267","0.0-3.0-4.0-1.0-0.28","663a5538ea4ded3dd872258e","666094c154fdc95dca3e206f","6660994ce249b8d2e28a4500","490","","j","","","","","","","","./tasks/HMM-beads/Images/NewTrialWC.png","practice","0","28","1","0","1","1","false","",""
"image-keyboard-response","98","778584","0.0-3.0-4.0-1.0-1.28","663a5538ea4ded3dd872258e","666094c154fdc95dca3e206f","6660994ce249b8d2e28a4500","null","","null","","","","","","","","./tasks/HMM-beads/Images/WhiteBeadChoice.png","","","","","","","","","",""
"image-keyboard-response","99","779092","0.0-3.0-4.0-1.0-2.28","663a5538ea4ded3dd872258e","666094c154fdc95dca3e206f","6660994ce249b8d2e28a4500","null","","null","","","","","","","","./tasks/HMM-beads/Images/WhiteBeadChoiceWrong.png","","","","","","","","","",""
"image-keyboard-response","100","779948","0.0-3.0-4.0-1.0-0.29","663a5538ea4ded3dd872258e","666094c154fdc95dca3e206f","6660994ce249b8d2e28a4500","853","","f","","","","","","","","./tasks/HMM-beads/Images/NewTrialBC.png","practice","0","29","1","1","0","0","false","",""
"image-keyboard-response","101","780262","0.0-3.0-4.0-1.0-1.29","663a5538ea4ded3dd872258e","666094c154fdc95dca3e206f","6660994ce249b8d2e28a4500","null","","null","","","","","","","","./tasks/HMM-beads/Images/BlackBeadChoice.png","","","","","","","","","",""
"image-keyboard-response","102","780773","0.0-3.0-4.0-1.0-2.29","663a5538ea4ded3dd872258e","666094c154fdc95dca3e206f","6660994ce249b8d2e28a4500","null","","null","","","","","","","","./tasks/HMM-beads/Images/BlackBeadChoiceWrong.png","","","","","","","","","",""
"image-keyboard-response","103","783805","0.0-3.0-4.0-1.0-0.30","663a5538ea4ded3dd872258e","666094c154fdc95dca3e206f","6660994ce249b8d2e28a4500","3027","","f","","","","","","","","./tasks/HMM-beads/Images/NewTrialWC.png","practice","0","30","1","0","1","0","true","",""
"image-keyboard-response","104","784120","0.0-3.0-4.0-1.0-1.30","663a5538ea4ded3dd872258e","666094c154fdc95dca3e206f","6660994ce249b8d2e28a4500","null","","null","","","","","","","","./tasks/HMM-beads/Images/BlackBeadChoice.png","","","","","","","","","",""
"image-keyboard-response","105","784633","0.0-3.0-4.0-1.0-2.30","663a5538ea4ded3dd872258e","666094c154fdc95dca3e206f","6660994ce249b8d2e28a4500","null","","null","","","","","","","","./tasks/HMM-beads/Images/BlackBeadChoiceCorrect.png","","","","","","","","","",""
"image-keyboard-response","106","785380","0.0-3.0-4.0-1.0-0.31","663a5538ea4ded3dd872258e","666094c154fdc95dca3e206f","6660994ce249b8d2e28a4500","745","","j","","","","","","","","./tasks/HMM-beads/Images/NewTrialBC.png","practice","0","31","1","1","0","1","true","",""
"image-keyboard-response","107","785686","0.0-3.0-4.0-1.0-1.31","663a5538ea4ded3dd872258e","666094c154fdc95dca3e206f","6660994ce249b8d2e28a4500","null","","null","","","","","","","","./tasks/HMM-beads/Images/WhiteBeadChoice.png","","","","","","","","","",""
"image-keyboard-response","108","786199","0.0-3.0-4.0-1.0-2.31","663a5538ea4ded3dd872258e","666094c154fdc95dca3e206f","6660994ce249b8d2e28a4500","null","","null","","","","","","","","./tasks/HMM-beads/Images/WhiteBeadChoiceCorrect.png","","","","","","","","","",""
"image-keyboard-response","109","787095","0.0-3.0-4.0-1.0-0.32","663a5538ea4ded3dd872258e","666094c154fdc95dca3e206f","6660994ce249b8d2e28a4500","894","","f","","","","","","","","./tasks/HMM-beads/Images/NewTrialWC.png","practice","0","32","1","1","1","0","false","",""
"image-keyboard-response","110","787401","0.0-3.0-4.0-1.0-1.32","663a5538ea4ded3dd872258e","666094c154fdc95dca3e206f","6660994ce249b8d2e28a4500","null","","null","","","","","","","","./tasks/HMM-beads/Images/BlackBeadChoice.png","","","","","","","","","",""
"image-keyboard-response","111","787908","0.0-3.0-4.0-1.0-2.32","663a5538ea4ded3dd872258e","666094c154fdc95dca3e206f","6660994ce249b8d2e28a4500","null","","null","","","","","","","","./tasks/HMM-beads/Images/BlackBeadChoiceWrong.png","","","","","","","","","",""
"image-keyboard-response","112","788920","0.0-3.0-4.0-1.0-0.33","663a5538ea4ded3dd872258e","666094c154fdc95dca3e206f","6660994ce249b8d2e28a4500","1009","","f","","","","","","","","./tasks/HMM-beads/Images/NewTrialWC.png","practice","0","33","1","1","1","0","false","",""
"image-keyboard-response","113","789235","0.0-3.0-4.0-1.0-1.33","663a5538ea4ded3dd872258e","666094c154fdc95dca3e206f","6660994ce249b8d2e28a4500","null","","null","","","","","","","","./tasks/HMM-beads/Images/BlackBeadChoice.png","","","","","","","","","",""
"image-keyboard-response","114","789753","0.0-3.0-4.0-1.0-2.33","663a5538ea4ded3dd872258e","666094c154fdc95dca3e206f","6660994ce249b8d2e28a4500","null","","null","","","","","","","","./tasks/HMM-beads/Images/BlackBeadChoiceWrong.png","","","","","","","","","",""
"image-keyboard-response","115","790344","0.0-3.0-4.0-1.0-0.34","663a5538ea4ded3dd872258e","666094c154fdc95dca3e206f","6660994ce249b8d2e28a4500","587","","j","","","","","","","","./tasks/HMM-beads/Images/NewTrialWC.png","practice","0","34","1","1","1","1","true","",""
"image-keyboard-response","116","790669","0.0-3.0-4.0-1.0-1.34","663a5538ea4ded3dd872258e","666094c154fdc95dca3e206f","6660994ce249b8d2e28a4500","null","","null","","","","","","","","./tasks/HMM-beads/Images/WhiteBeadChoice.png","","","","","","","","","",""
"image-keyboard-response","117","791183","0.0-3.0-4.0-1.0-2.34","663a5538ea4ded3dd872258e","666094c154fdc95dca3e206f","6660994ce249b8d2e28a4500","null","","null","","","","","","","","./tasks/HMM-beads/Images/WhiteBeadChoiceCorrect.png","","","","","","","","","",""
"image-keyboard-response","118","791782","0.0-3.0-4.0-1.0-0.35","663a5538ea4ded3dd872258e","666094c154fdc95dca3e206f","6660994ce249b8d2e28a4500","596","","j","","","","","","","","./tasks/HMM-beads/Images/NewTrialWC.png","practice","0","35","1","1","1","1","true","",""
"image-keyboard-response","119","792100","0.0-3.0-4.0-1.0-1.35","663a5538ea4ded3dd872258e","666094c154fdc95dca3e206f","6660994ce249b8d2e28a4500","null","","null","","","","","","","","./tasks/HMM-beads/Images/WhiteBeadChoice.png","","","","","","","","","",""
"image-keyboard-response","120","792605","0.0-3.0-4.0-1.0-2.35","663a5538ea4ded3dd872258e","666094c154fdc95dca3e206f","6660994ce249b8d2e28a4500","null","","null","","","","","","","","./tasks/HMM-beads/Images/WhiteBeadChoiceCorrect.png","","","","","","","","","",""
"image-keyboard-response","121","793260","0.0-3.0-4.0-1.0-0.36","663a5538ea4ded3dd872258e","666094c154fdc95dca3e206f","6660994ce249b8d2e28a4500","652","","j","","","","","","","","./tasks/HMM-beads/Images/NewTrialWC.png","practice","0","36","1","0","1","1","false","",""
"image-keyboard-response","122","793576","0.0-3.0-4.0-1.0-1.36","663a5538ea4ded3dd872258e","666094c154fdc95dca3e206f","6660994ce249b8d2e28a4500","null","","null","","","","","","","","./tasks/HMM-beads/Images/WhiteBeadChoice.png","","","","","","","","","",""
"image-keyboard-response","123","794089","0.0-3.0-4.0-1.0-2.36","663a5538ea4ded3dd872258e","666094c154fdc95dca3e206f","6660994ce249b8d2e28a4500","null","","null","","","","","","","","./tasks/HMM-beads/Images/WhiteBeadChoiceWrong.png","","","","","","","","","",""
"image-keyboard-response","124","794623","0.0-3.0-4.0-1.0-0.37","663a5538ea4ded3dd872258e","666094c154fdc95dca3e206f","6660994ce249b8d2e28a4500","532","","f","","","","","","","","./tasks/HMM-beads/Images/NewTrialBC.png","practice","0","37","1","1","0","0","false","",""
"image-keyboard-response","125","794934","0.0-3.0-4.0-1.0-1.37","663a5538ea4ded3dd872258e","666094c154fdc95dca3e206f","6660994ce249b8d2e28a4500","null","","null","","","","","","","","./tasks/HMM-beads/Images/BlackBeadChoice.png","","","","","","","","","",""
"image-keyboard-response","126","795438","0.0-3.0-4.0-1.0-2.37","663a5538ea4ded3dd872258e","666094c154fdc95dca3e206f","6660994ce249b8d2e28a4500","null","","null","","","","","","","","./tasks/HMM-beads/Images/BlackBeadChoiceWrong.png","","","","","","","","","",""
"image-keyboard-response","127","796051","0.0-3.0-4.0-1.0-0.38","663a5538ea4ded3dd872258e","666094c154fdc95dca3e206f","6660994ce249b8d2e28a4500","610","","f","","","","","","","","./tasks/HMM-beads/Images/NewTrialWC.png","practice","0","38","1","1","1","0","false","",""
"image-keyboard-response","128","796368","0.0-3.0-4.0-1.0-1.38","663a5538ea4ded3dd872258e","666094c154fdc95dca3e206f","6660994ce249b8d2e28a4500","null","","null","","","","","","","","./tasks/HMM-beads/Images/BlackBeadChoice.png","","","","","","","","","",""
"image-keyboard-response","129","796873","0.0-3.0-4.0-1.0-2.38","663a5538ea4ded3dd872258e","666094c154fdc95dca3e206f","6660994ce249b8d2e28a4500","null","","null","","","","","","","","./tasks/HMM-beads/Images/BlackBeadChoiceWrong.png","","","","","","","","","",""
"image-keyboard-response","130","797696","0.0-3.0-4.0-1.0-0.39","663a5538ea4ded3dd872258e","666094c154fdc95dca3e206f","6660994ce249b8d2e28a4500","820","","j","","","","","","","","./tasks/HMM-beads/Images/NewTrialWC.png","practice","0","39","1","1","1","1","true","",""
"image-keyboard-response","131","798002","0.0-3.0-4.0-1.0-1.39","663a5538ea4ded3dd872258e","666094c154fdc95dca3e206f","6660994ce249b8d2e28a4500","null","","null","","","","","","","","./tasks/HMM-beads/Images/WhiteBeadChoice.png","","","","","","","","","",""
"image-keyboard-response","132","798515","0.0-3.0-4.0-1.0-2.39","663a5538ea4ded3dd872258e","666094c154fdc95dca3e206f","6660994ce249b8d2e28a4500","null","","null","","","","","","","","./tasks/HMM-beads/Images/WhiteBeadChoiceCorrect.png","","","","","","","","","",""
"html-keyboard-response","133","802098","0.0-3.0-4.0-2.0","663a5538ea4ded3dd872258e","666094c154fdc95dca3e206f","6660994ce249b8d2e28a4500","3579",""," ","","","","","","","","","","","","","","","","","",""
"instructions","134","936654","0.0-3.0-5.0","663a5538ea4ded3dd872258e","666094c154fdc95dca3e206f","6660994ce249b8d2e28a4500","134549","","","","[{""page_index"":0,""viewing_time"":116058},{""page_index"":1,""viewing_time"":18489}]","","","","","","","","","","","","","","","",""
"html-keyboard-response","135","941166","0.0-3.0-6.0-0.0","663a5538ea4ded3dd872258e","666094c154fdc95dca3e206f","6660994ce249b8d2e28a4500","4508",""," ","","","","","","","","<div align=center>In this block, there will be a <b>1% chance</b> that the jar on the next trial will be different from the jar on the current trial.<br><br></div>","","","","","","","","","",""
"image-keyboard-response","136","943465","0.0-3.0-6.0-1.0-0.0","663a5538ea4ded3dd872258e","666094c154fdc95dca3e206f","6660994ce249b8d2e28a4500","2297","","f","","","","","","","","./tasks/HMM-beads/Images/NoChoice.png","lowH","1","0","1","0","9","0","true","",""
"image-keyboard-response","137","943771","0.0-3.0-6.0-1.0-1.0","663a5538ea4ded3dd872258e","666094c154fdc95dca3e206f","6660994ce249b8d2e28a4500","null","","null","","","","","","","","./tasks/HMM-beads/Images/BlackBeadChoice.png","","","","","","","","","",""
"image-keyboard-response","138","944274","0.0-3.0-6.0-1.0-2.0","663a5538ea4ded3dd872258e","666094c154fdc95dca3e206f","6660994ce249b8d2e28a4500","null","","null","","","","","","","","./tasks/HMM-beads/Images/BlackBeadChoiceCorrect.png","","","","","","","","","",""
"image-keyboard-response","139","945743","0.0-3.0-6.0-1.0-0.1","663a5538ea4ded3dd872258e","666094c154fdc95dca3e206f","6660994ce249b8d2e28a4500","1468","","f","","","","","","","","./tasks/HMM-beads/Images/NewTrialBC.png","lowH","1","1","1","1","0","0","false","",""
"image-keyboard-response","140","946061","0.0-3.0-6.0-1.0-1.1","663a5538ea4ded3dd872258e","666094c154fdc95dca3e206f","6660994ce249b8d2e28a4500","null","","null","","","","","","","","./tasks/HMM-beads/Images/BlackBeadChoice.png","","","","","","","","","",""
"image-keyboard-response","141","946572","0.0-3.0-6.0-1.0-2.1","663a5538ea4ded3dd872258e","666094c154fdc95dca3e206f","6660994ce249b8d2e28a4500","null","","null","","","","","","","","./tasks/HMM-beads/Images/BlackBeadChoiceWrong.png","","","","","","","","","",""
"image-keyboard-response","142","947041","0.0-3.0-6.0-1.0-0.2","663a5538ea4ded3dd872258e","666094c154fdc95dca3e206f","6660994ce249b8d2e28a4500","466","","f","","","","","","","","./tasks/HMM-beads/Images/NewTrialWC.png","lowH","1","2","1","1","1","0","false","",""
"image-keyboard-response","143","947352","0.0-3.0-6.0-1.0-1.2","663a5538ea4ded3dd872258e","666094c154fdc95dca3e206f","6660994ce249b8d2e28a4500","null","","null","","","","","","","","./tasks/HMM-beads/Images/BlackBeadChoice.png","","","","","","","","","",""
"image-keyboard-response","144","947864","0.0-3.0-6.0-1.0-2.2","663a5538ea4ded3dd872258e","666094c154fdc95dca3e206f","6660994ce249b8d2e28a4500","null","","null","","","","","","","","./tasks/HMM-beads/Images/BlackBeadChoiceWrong.png","","","","","","","","","",""
"image-keyboard-response","145","948257","0.0-3.0-6.0-1.0-0.3","663a5538ea4ded3dd872258e","666094c154fdc95dca3e206f","6660994ce249b8d2e28a4500","389","","j","","","","","","","","./tasks/HMM-beads/Images/NewTrialWC.png","lowH","1","3","1","1","1","1","true","",""
"image-keyboard-response","146","948570","0.0-3.0-6.0-1.0-1.3","663a5538ea4ded3dd872258e","666094c154fdc95dca3e206f","6660994ce249b8d2e28a4500","null","","null","","","","","","","","./tasks/HMM-beads/Images/WhiteBeadChoice.png","","","","","","","","","",""
"image-keyboard-response","147","949083","0.0-3.0-6.0-1.0-2.3","663a5538ea4ded3dd872258e","666094c154fdc95dca3e206f","6660994ce249b8d2e28a4500","null","","null","","","","","","","","./tasks/HMM-beads/Images/WhiteBeadChoiceCorrect.png","","","","","","","","","",""
"image-keyboard-response","148","949972","0.0-3.0-6.0-1.0-0.4","663a5538ea4ded3dd872258e","666094c154fdc95dca3e206f","6660994ce249b8d2e28a4500","886","","f","","","","","","","","./tasks/HMM-beads/Images/NewTrialWC.png","lowH","1","4","1","1","1","0","false","",""
"image-keyboard-response","149","950288","0.0-3.0-6.0-1.0-1.4","663a5538ea4ded3dd872258e","666094c154fdc95dca3e206f","6660994ce249b8d2e28a4500","null","","null","","","","","","","","./tasks/HMM-beads/Images/BlackBeadChoice.png","","","","","","","","","",""
"image-keyboard-response","150","950791","0.0-3.0-6.0-1.0-2.4","663a5538ea4ded3dd872258e","666094c154fdc95dca3e206f","6660994ce249b8d2e28a4500","null","","null","","","","","","","","./tasks/HMM-beads/Images/BlackBeadChoiceWrong.png","","","","","","","","","",""
"image-keyboard-response","151","951173","0.0-3.0-6.0-1.0-0.5","663a5538ea4ded3dd872258e","666094c154fdc95dca3e206f","6660994ce249b8d2e28a4500","379","","j","","","","","","","","./tasks/HMM-beads/Images/NewTrialWC.png","lowH","1","5","1","1","1","1","true","",""
"image-keyboard-response","152","951483","0.0-3.0-6.0-1.0-1.5","663a5538ea4ded3dd872258e","666094c154fdc95dca3e206f","6660994ce249b8d2e28a4500","null","","null","","","","","","","","./tasks/HMM-beads/Images/WhiteBeadChoice.png","","","","","","","","","",""
"image-keyboard-response","153","951989","0.0-3.0-6.0-1.0-2.5","663a5538ea4ded3dd872258e","666094c154fdc95dca3e206f","6660994ce249b8d2e28a4500","null","","null","","","","","","","","./tasks/HMM-beads/Images/WhiteBeadChoiceCorrect.png","","","","","","","","","",""
"image-keyboard-response","154","953073","0.0-3.0-6.0-1.0-0.6","663a5538ea4ded3dd872258e","666094c154fdc95dca3e206f","6660994ce249b8d2e28a4500","1082","","f","","","","","","","","./tasks/HMM-beads/Images/NewTrialWC.png","lowH","1","6","1","0","1","0","true","",""
"image-keyboard-response","155","953384","0.0-3.0-6.0-1.0-1.6","663a5538ea4ded3dd872258e","666094c154fdc95dca3e206f","6660994ce249b8d2e28a4500","null","","null","","","","","","","","./tasks/HMM-beads/Images/BlackBeadChoice.png","","","","","","","","","",""
"image-keyboard-response","156","953889","0.0-3.0-6.0-1.0-2.6","663a5538ea4ded3dd872258e","666094c154fdc95dca3e206f","6660994ce249b8d2e28a4500","null","","null","","","","","","","","./tasks/HMM-beads/Images/BlackBeadChoiceCorrect.png","","","","","","","","","",""
"image-keyboard-response","157","954576","0.0-3.0-6.0-1.0-0.7","663a5538ea4ded3dd872258e","666094c154fdc95dca3e206f","6660994ce249b8d2e28a4500","685","","f","","","","","","","","./tasks/HMM-beads/Images/NewTrialBC.png","lowH","1","7","1","1","0","0","false","",""
"image-keyboard-response","158","954911","0.0-3.0-6.0-1.0-1.7","663a5538ea4ded3dd872258e","666094c154fdc95dca3e206f","6660994ce249b8d2e28a4500","null","","null","","","","","","","","./tasks/HMM-beads/Images/BlackBeadChoice.png","","","","","","","","","",""
"image-keyboard-response","159","955422","0.0-3.0-6.0-1.0-2.7","663a5538ea4ded3dd872258e","666094c154fdc95dca3e206f","6660994ce249b8d2e28a4500","null","","null","","","","","","","","./tasks/HMM-beads/Images/BlackBeadChoiceWrong.png","","","","","","","","","",""
"image-keyboard-response","160","955601","0.0-3.0-6.0-1.0-0.8","663a5538ea4ded3dd872258e","666094c154fdc95dca3e206f","6660994ce249b8d2e28a4500","177","","j","","","","","","","","./tasks/HMM-beads/Images/NewTrialWC.png","lowH","1","8","1","1","1","1","true","",""
"image-keyboard-response","161","955918","0.0-3.0-6.0-1.0-1.8","663a5538ea4ded3dd872258e","666094c154fdc95dca3e206f","6660994ce249b8d2e28a4500","null","","null","","","","","","","","./tasks/HMM-beads/Images/WhiteBeadChoice.png","","","","","","","","","",""
"image-keyboard-response","162","956423","0.0-3.0-6.0-1.0-2.8","663a5538ea4ded3dd872258e","666094c154fdc95dca3e206f","6660994ce249b8d2e28a4500","null","","null","","","","","","","","./tasks/HMM-beads/Images/WhiteBeadChoiceCorrect.png","","","","","","","","","",""
"image-keyboard-response","163","957145","0.0-3.0-6.0-1.0-0.9","663a5538ea4ded3dd872258e","666094c154fdc95dca3e206f","6660994ce249b8d2e28a4500","719","","j","","","","","","","","./tasks/HMM-beads/Images/NewTrialWC.png","lowH","1","9","1","1","1","1","true","",""
"image-keyboard-response","164","957452","0.0-3.0-6.0-1.0-1.9","663a5538ea4ded3dd872258e","666094c154fdc95dca3e206f","6660994ce249b8d2e28a4500","null","","null","","","","","","","","./tasks/HMM-beads/Images/WhiteBeadChoice.png","","","","","","","","","",""
"image-keyboard-response","165","957970","0.0-3.0-6.0-1.0-2.9","663a5538ea4ded3dd872258e","666094c154fdc95dca3e206f","6660994ce249b8d2e28a4500","null","","null","","","","","","","","./tasks/HMM-beads/Images/WhiteBeadChoiceCorrect.png","","","","","","","","","",""
"image-keyboard-response","166","959001","0.0-3.0-6.0-1.0-0.10","663a5538ea4ded3dd872258e","666094c154fdc95dca3e206f","6660994ce249b8d2e28a4500","1027","","j","","","","","","","","./tasks/HMM-beads/Images/NewTrialWC.png","lowH","1","10","1","1","1","1","true","",""
"image-keyboard-response","167","959305","0.0-3.0-6.0-1.0-1.10","663a5538ea4ded3dd872258e","666094c154fdc95dca3e206f","6660994ce249b8d2e28a4500","null","","null","","","","","","","","./tasks/HMM-beads/Images/WhiteBeadChoice.png","","","","","","","","","",""
"image-keyboard-response","168","959819","0.0-3.0-6.0-1.0-2.10","663a5538ea4ded3dd872258e","666094c154fdc95dca3e206f","6660994ce249b8d2e28a4500","null","","null","","","","","","","","./tasks/HMM-beads/Images/WhiteBeadChoiceCorrect.png","","","","","","","","","",""
"image-keyboard-response","169","960741","0.0-3.0-6.0-1.0-0.11","663a5538ea4ded3dd872258e","666094c154fdc95dca3e206f","6660994ce249b8d2e28a4500","920","","f","","","","","","","","./tasks/HMM-beads/Images/NewTrialWC.png","lowH","1","11","1","1","1","0","false","",""
"image-keyboard-response","170","961052","0.0-3.0-6.0-1.0-1.11","663a5538ea4ded3dd872258e","666094c154fdc95dca3e206f","6660994ce249b8d2e28a4500","null","","null","","","","","","","","./tasks/HMM-beads/Images/BlackBeadChoice.png","","","","","","","","","",""
"image-keyboard-response","171","961571","0.0-3.0-6.0-1.0-2.11","663a5538ea4ded3dd872258e","666094c154fdc95dca3e206f","6660994ce249b8d2e28a4500","null","","null","","","","","","","","./tasks/HMM-beads/Images/BlackBeadChoiceWrong.png","","","","","","","","","",""
"image-keyboard-response","172","962386","0.0-3.0-6.0-1.0-0.12","663a5538ea4ded3dd872258e","666094c154fdc95dca3e206f","6660994ce249b8d2e28a4500","813","","f","","","","","","","","./tasks/HMM-beads/Images/NewTrialWC.png","lowH","1","12","1","1","1","0","false","",""
"image-keyboard-response","173","962699","0.0-3.0-6.0-1.0-1.12","663a5538ea4ded3dd872258e","666094c154fdc95dca3e206f","6660994ce249b8d2e28a4500","null","","null","","","","","","","","./tasks/HMM-beads/Images/BlackBeadChoice.png","","","","","","","","","",""
"image-keyboard-response","174","963205","0.0-3.0-6.0-1.0-2.12","663a5538ea4ded3dd872258e","666094c154fdc95dca3e206f","6660994ce249b8d2e28a4500","null","","null","","","","","","","","./tasks/HMM-beads/Images/BlackBeadChoiceWrong.png","","","","","","","","","",""
"image-keyboard-response","175","963555","0.0-3.0-6.0-1.0-0.13","663a5538ea4ded3dd872258e","666094c154fdc95dca3e206f","6660994ce249b8d2e28a4500","347","","j","","","","","","","","./tasks/HMM-beads/Images/NewTrialWC.png","lowH","1","13","1","0","1","1","false","",""
"image-keyboard-response","176","963868","0.0-3.0-6.0-1.0-1.13","663a5538ea4ded3dd872258e","666094c154fdc95dca3e206f","6660994ce249b8d2e28a4500","null","","null","","","","","","","","./tasks/HMM-beads/Images/WhiteBeadChoice.png","","","","","","","","","",""
"image-keyboard-response","177","964382","0.0-3.0-6.0-1.0-2.13","663a5538ea4ded3dd872258e","666094c154fdc95dca3e206f","6660994ce249b8d2e28a4500","null","","null","","","","","","","","./tasks/HMM-beads/Images/WhiteBeadChoiceWrong.png","","","","","","","","","",""
"image-keyboard-response","178","964504","0.0-3.0-6.0-1.0-0.14","663a5538ea4ded3dd872258e","666094c154fdc95dca3e206f","6660994ce249b8d2e28a4500","120","","f","","","","","","","","./tasks/HMM-beads/Images/NewTrialBC.png","lowH","1","14","1","0","0","0","true","",""
"image-keyboard-response","179","964816","0.0-3.0-6.0-1.0-1.14","663a5538ea4ded3dd872258e","666094c154fdc95dca3e206f","6660994ce249b8d2e28a4500","null","","null","","","","","","","","./tasks/HMM-beads/Images/BlackBeadChoice.png","","","","","","","","","",""
"image-keyboard-response","180","965321","0.0-3.0-6.0-1.0-2.14","663a5538ea4ded3dd872258e","666094c154fdc95dca3e206f","6660994ce249b8d2e28a4500","null","","null","","","","","","","","./tasks/HMM-beads/Images/BlackBeadChoiceCorrect.png","","","","","","","","","",""
"image-keyboard-response","181","965776","0.0-3.0-6.0-1.0-0.15","663a5538ea4ded3dd872258e","666094c154fdc95dca3e206f","6660994ce249b8d2e28a4500","451","","f","","","","","","","","./tasks/HMM-beads/Images/NewTrialBC.png","lowH","1","15","1","1","0","0","false","",""
"image-keyboard-response","182","966092","0.0-3.0-6.0-1.0-1.15","663a5538ea4ded3dd872258e","666094c154fdc95dca3e206f","6660994ce249b8d2e28a4500","null","","null","","","","","","","","./tasks/HMM-beads/Images/BlackBeadChoice.png","","","","","","","","","",""
"image-keyboard-response","183","966604","0.0-3.0-6.0-1.0-2.15","663a5538ea4ded3dd872258e","666094c154fdc95dca3e206f","6660994ce249b8d2e28a4500","null","","null","","","","","","","","./tasks/HMM-beads/Images/BlackBeadChoiceWrong.png","","","","","","","","","",""
"image-keyboard-response","184","967470","0.0-3.0-6.0-1.0-0.16","663a5538ea4ded3dd872258e","666094c154fdc95dca3e206f","6660994ce249b8d2e28a4500","862","","j","","","","","","","","./tasks/HMM-beads/Images/NewTrialWC.png","lowH","1","16","1","1","1","1","true","",""
"image-keyboard-response","185","967777","0.0-3.0-6.0-1.0-1.16","663a5538ea4ded3dd872258e","666094c154fdc95dca3e206f","6660994ce249b8d2e28a4500","null","","null","","","","","","","","./tasks/HMM-beads/Images/WhiteBeadChoice.png","","","","","","","","","",""
"image-keyboard-response","186","968288","0.0-3.0-6.0-1.0-2.16","663a5538ea4ded3dd872258e","666094c154fdc95dca3e206f","6660994ce249b8d2e28a4500","null","","null","","","","","","","","./tasks/HMM-beads/Images/WhiteBeadChoiceCorrect.png","","","","","","","","","",""
"image-keyboard-response","187","968917","0.0-3.0-6.0-1.0-0.17","663a5538ea4ded3dd872258e","666094c154fdc95dca3e206f","6660994ce249b8d2e28a4500","626","","j","","","","","","","","./tasks/HMM-beads/Images/NewTrialWC.png","lowH","1","17","1","1","1","1","true","",""
"image-keyboard-response","188","969231","0.0-3.0-6.0-1.0-1.17","663a5538ea4ded3dd872258e","666094c154fdc95dca3e206f","6660994ce249b8d2e28a4500","null","","null","","","","","","","","./tasks/HMM-beads/Images/WhiteBeadChoice.png","","","","","","","","","",""
"image-keyboard-response","189","969738","0.0-3.0-6.0-1.0-2.17","663a5538ea4ded3dd872258e","666094c154fdc95dca3e206f","6660994ce249b8d2e28a4500","null","","null","","","","","","","","./tasks/HMM-beads/Images/WhiteBeadChoiceCorrect.png","","","","","","","","","",""
"image-keyboard-response","190","970813","0.0-3.0-6.0-1.0-0.18","663a5538ea4ded3dd872258e","666094c154fdc95dca3e206f","6660994ce249b8d2e28a4500","1072","","j","","","","","","","","./tasks/HMM-beads/Images/NewTrialWC.png","lowH","1","18","1","1","1","1","true","",""
"image-keyboard-response","191","971126","0.0-3.0-6.0-1.0-1.18","663a5538ea4ded3dd872258e","666094c154fdc95dca3e206f","6660994ce249b8d2e28a4500","null","","null","","","","","","","","./tasks/HMM-beads/Images/WhiteBeadChoice.png","","","","","","","","","",""
"image-keyboard-response","192","971637","0.0-3.0-6.0-1.0-2.18","663a5538ea4ded3dd872258e","666094c154fdc95dca3e206f","6660994ce249b8d2e28a4500","null","","null","","","","","","","","./tasks/HMM-beads/Images/WhiteBeadChoiceCorrect.png","","","","","","","","","",""
"image-keyboard-response","193","972034","0.0-3.0-6.0-1.0-0.19","663a5538ea4ded3dd872258e","666094c154fdc95dca3e206f","6660994ce249b8d2e28a4500","394","","j","","","","","","","","./tasks/HMM-beads/Images/NewTrialWC.png","lowH","1","19","1","1","1","1","true","",""
"image-keyboard-response","194","972348","0.0-3.0-6.0-1.0-1.19","663a5538ea4ded3dd872258e","666094c154fdc95dca3e206f","6660994ce249b8d2e28a4500","null","","null","","","","","","","","./tasks/HMM-beads/Images/WhiteBeadChoice.png","","","","","","","","","",""
"image-keyboard-response","195","972855","0.0-3.0-6.0-1.0-2.19","663a5538ea4ded3dd872258e","666094c154fdc95dca3e206f","6660994ce249b8d2e28a4500","null","","null","","","","","","","","./tasks/HMM-beads/Images/WhiteBeadChoiceCorrect.png","","","","","","","","","",""
"image-keyboard-response","196","973391","0.0-3.0-6.0-1.0-0.20","663a5538ea4ded3dd872258e","666094c154fdc95dca3e206f","6660994ce249b8d2e28a4500","533","","j","","","","","","","","./tasks/HMM-beads/Images/NewTrialWC.png","lowH","1","20","1","1","1","1","true","",""
"image-keyboard-response","197","973717","0.0-3.0-6.0-1.0-1.20","663a5538ea4ded3dd872258e","666094c154fdc95dca3e206f","6660994ce249b8d2e28a4500","null","","null","","","","","","","","./tasks/HMM-beads/Images/WhiteBeadChoice.png","","","","","","","","","",""
"image-keyboard-response","198","974222","0.0-3.0-6.0-1.0-2.20","663a5538ea4ded3dd872258e","666094c154fdc95dca3e206f","6660994ce249b8d2e28a4500","null","","null","","","","","","","","./tasks/HMM-beads/Images/WhiteBeadChoiceCorrect.png","","","","","","","","","",""
"image-keyboard-response","199","974445","0.0-3.0-6.0-1.0-0.21","663a5538ea4ded3dd872258e","666094c154fdc95dca3e206f","6660994ce249b8d2e28a4500","220","","j","","","","","","","","./tasks/HMM-beads/Images/NewTrialWC.png","lowH","1","21","1","1","1","1","true","",""
"image-keyboard-response","200","974751","0.0-3.0-6.0-1.0-1.21","663a5538ea4ded3dd872258e","666094c154fdc95dca3e206f","6660994ce249b8d2e28a4500","null","","null","","","","","","","","./tasks/HMM-beads/Images/WhiteBeadChoice.png","","","","","","","","","",""
"image-keyboard-response","201","975268","0.0-3.0-6.0-1.0-2.21","663a5538ea4ded3dd872258e","666094c154fdc95dca3e206f","6660994ce249b8d2e28a4500","null","","null","","","","","","","","./tasks/HMM-beads/Images/WhiteBeadChoiceCorrect.png","","","","","","","","","",""
"image-keyboard-response","202","975636","0.0-3.0-6.0-1.0-0.22","663a5538ea4ded3dd872258e","666094c154fdc95dca3e206f","6660994ce249b8d2e28a4500","365","","j","","","","","","","","./tasks/HMM-beads/Images/NewTrialWC.png","lowH","1","22","1","1","1","1","true","",""
"image-keyboard-response","203","975949","0.0-3.0-6.0-1.0-1.22","663a5538ea4ded3dd872258e","666094c154fdc95dca3e206f","6660994ce249b8d2e28a4500","null","","null","","","","","","","","./tasks/HMM-beads/Images/WhiteBeadChoice.png","","","","","","","","","",""
"image-keyboard-response","204","976467","0.0-3.0-6.0-1.0-2.22","663a5538ea4ded3dd872258e","666094c154fdc95dca3e206f","6660994ce249b8d2e28a4500","null","","null","","","","","","","","./tasks/HMM-beads/Images/WhiteBeadChoiceCorrect.png","","","","","","","","","",""
"image-keyboard-response","205","977296","0.0-3.0-6.0-1.0-0.23","663a5538ea4ded3dd872258e","666094c154fdc95dca3e206f","6660994ce249b8d2e28a4500","829","","j","","","","","","","","./tasks/HMM-beads/Images/NewTrialWC.png","lowH","1","23","1","1","1","1","true","",""
"image-keyboard-response","206","977611","0.0-3.0-6.0-1.0-1.23","663a5538ea4ded3dd872258e","666094c154fdc95dca3e206f","6660994ce249b8d2e28a4500","null","","null","","","","","","","","./tasks/HMM-beads/Images/WhiteBeadChoice.png","","","","","","","","","",""
"image-keyboard-response","207","978115","0.0-3.0-6.0-1.0-2.23","663a5538ea4ded3dd872258e","666094c154fdc95dca3e206f","6660994ce249b8d2e28a4500","null","","null","","","","","","","","./tasks/HMM-beads/Images/WhiteBeadChoiceCorrect.png","","","","","","","","","",""
"image-keyboard-response","208","979389","0.0-3.0-6.0-1.0-0.24","663a5538ea4ded3dd872258e","666094c154fdc95dca3e206f","6660994ce249b8d2e28a4500","1270","","j","","","","","","","","./tasks/HMM-beads/Images/NewTrialWC.png","lowH","1","24","1","0","1","1","false","",""
"image-keyboard-response","209","979704","0.0-3.0-6.0-1.0-1.24","663a5538ea4ded3dd872258e","666094c154fdc95dca3e206f","6660994ce249b8d2e28a4500","null","","null","","","","","","","","./tasks/HMM-beads/Images/WhiteBeadChoice.png","","","","","","","","","",""
"image-keyboard-response","210","980217","0.0-3.0-6.0-1.0-2.24","663a5538ea4ded3dd872258e","666094c154fdc95dca3e206f","6660994ce249b8d2e28a4500","null","","null","","","","","","","","./tasks/HMM-beads/Images/WhiteBeadChoiceWrong.png","","","","","","","","","",""
"image-keyboard-response","211","980921","0.0-3.0-6.0-1.0-0.25","663a5538ea4ded3dd872258e","666094c154fdc95dca3e206f","6660994ce249b8d2e28a4500","702","","f","","","","","","","","./tasks/HMM-beads/Images/NewTrialBC.png","lowH","1","25","1","1","0","0","false","",""
"image-keyboard-response","212","981229","0.0-3.0-6.0-1.0-1.25","663a5538ea4ded3dd872258e","666094c154fdc95dca3e206f","6660994ce249b8d2e28a4500","null","","null","","","","","","","","./tasks/HMM-beads/Images/BlackBeadChoice.png","","","","","","","","","",""
"image-keyboard-response","213","981734","0.0-3.0-6.0-1.0-2.25","663a5538ea4ded3dd872258e","666094c154fdc95dca3e206f","6660994ce249b8d2e28a4500","null","","null","","","","","","","","./tasks/HMM-beads/Images/BlackBeadChoiceWrong.png","","","","","","","","","",""
"image-keyboard-response","214","982177","0.0-3.0-6.0-1.0-0.26","663a5538ea4ded3dd872258e","666094c154fdc95dca3e206f","6660994ce249b8d2e28a4500","441","","j","","","","","","","","./tasks/HMM-beads/Images/NewTrialWC.png","lowH","1","26","1","0","1","1","false","",""
"image-keyboard-response","215","982481","0.0-3.0-6.0-1.0-1.26","663a5538ea4ded3dd872258e","666094c154fdc95dca3e206f","6660994ce249b8d2e28a4500","null","","null","","","","","","","","./tasks/HMM-beads/Images/WhiteBeadChoice.png","","","","","","","","","",""
"image-keyboard-response","216","982997","0.0-3.0-6.0-1.0-2.26","663a5538ea4ded3dd872258e","666094c154fdc95dca3e206f","6660994ce249b8d2e28a4500","null","","null","","","","","","","","./tasks/HMM-beads/Images/WhiteBeadChoiceWrong.png","","","","","","","","","",""
"image-keyboard-response","217","983444","0.0-3.0-6.0-1.0-0.27","663a5538ea4ded3dd872258e","666094c154fdc95dca3e206f","6660994ce249b8d2e28a4500","443","","f","","","","","","","","./tasks/HMM-beads/Images/NewTrialBC.png","lowH","1","27","1","1","0","0","false","",""
"image-keyboard-response","218","983761","0.0-3.0-6.0-1.0-1.27","663a5538ea4ded3dd872258e","666094c154fdc95dca3e206f","6660994ce249b8d2e28a4500","null","","null","","","","","","","","./tasks/HMM-beads/Images/BlackBeadChoice.png","","","","","","","","","",""
"image-keyboard-response","219","984280","0.0-3.0-6.0-1.0-2.27","663a5538ea4ded3dd872258e","666094c154fdc95dca3e206f","6660994ce249b8d2e28a4500","null","","null","","","","","","","","./tasks/HMM-beads/Images/BlackBeadChoiceWrong.png","","","","","","","","","",""
"image-keyboard-response","220","984605","0.0-3.0-6.0-1.0-0.28","663a5538ea4ded3dd872258e","666094c154fdc95dca3e206f","6660994ce249b8d2e28a4500","322","","j","","","","","","","","./tasks/HMM-beads/Images/NewTrialWC.png","lowH","1","28","1","1","1","1","true","",""
"image-keyboard-response","221","984911","0.0-3.0-6.0-1.0-1.28","663a5538ea4ded3dd872258e","666094c154fdc95dca3e206f","6660994ce249b8d2e28a4500","null","","null","","","","","","","","./tasks/HMM-beads/Images/WhiteBeadChoice.png","","","","","","","","","",""
"image-keyboard-response","222","985416","0.0-3.0-6.0-1.0-2.28","663a5538ea4ded3dd872258e","666094c154fdc95dca3e206f","6660994ce249b8d2e28a4500","null","","null","","","","","","","","./tasks/HMM-beads/Images/WhiteBeadChoiceCorrect.png","","","","","","","","","",""
"image-keyboard-response","223","985445","0.0-3.0-6.0-1.0-0.29","663a5538ea4ded3dd872258e","666094c154fdc95dca3e206f","6660994ce249b8d2e28a4500","25","","j","","","","","","","","./tasks/HMM-beads/Images/NewTrialWC.png","lowH","1","29","1","1","1","1","true","",""
"image-keyboard-response","224","985761","0.0-3.0-6.0-1.0-1.29","663a5538ea4ded3dd872258e","666094c154fdc95dca3e206f","6660994ce249b8d2e28a4500","null","","null","","","","","","","","./tasks/HMM-beads/Images/WhiteBeadChoice.png","","","","","","","","","",""
"image-keyboard-response","225","986277","0.0-3.0-6.0-1.0-2.29","663a5538ea4ded3dd872258e","666094c154fdc95dca3e206f","6660994ce249b8d2e28a4500","null","","null","","","","","","","","./tasks/HMM-beads/Images/WhiteBeadChoiceCorrect.png","","","","","","","","","",""
"image-keyboard-response","226","986766","0.0-3.0-6.0-1.0-0.30","663a5538ea4ded3dd872258e","666094c154fdc95dca3e206f","6660994ce249b8d2e28a4500","486","","j","","","","","","","","./tasks/HMM-beads/Images/NewTrialWC.png","lowH","1","30","1","1","1","1","true","",""
"image-keyboard-response","227","987076","0.0-3.0-6.0-1.0-1.30","663a5538ea4ded3dd872258e","666094c154fdc95dca3e206f","6660994ce249b8d2e28a4500","null","","null","","","","","","","","./tasks/HMM-beads/Images/WhiteBeadChoice.png","","","","","","","","","",""
"image-keyboard-response","228","987591","0.0-3.0-6.0-1.0-2.30","663a5538ea4ded3dd872258e","666094c154fdc95dca3e206f","6660994ce249b8d2e28a4500","null","","null","","","","","","","","./tasks/HMM-beads/Images/WhiteBeadChoiceCorrect.png","","","","","","","","","",""
"image-keyboard-response","229","987993","0.0-3.0-6.0-1.0-0.31","663a5538ea4ded3dd872258e","666094c154fdc95dca3e206f","6660994ce249b8d2e28a4500","399","","j","","","","","","","","./tasks/HMM-beads/Images/NewTrialWC.png","lowH","1","31","1","1","1","1","true","",""
"image-keyboard-response","230","988310","0.0-3.0-6.0-1.0-1.31","663a5538ea4ded3dd872258e","666094c154fdc95dca3e206f","6660994ce249b8d2e28a4500","null","","null","","","","","","","","./tasks/HMM-beads/Images/WhiteBeadChoice.png","","","","","","","","","",""
"image-keyboard-response","231","988814","0.0-3.0-6.0-1.0-2.31","663a5538ea4ded3dd872258e","666094c154fdc95dca3e206f","6660994ce249b8d2e28a4500","null","","null","","","","","","","","./tasks/HMM-beads/Images/WhiteBeadChoiceCorrect.png","","","","","","","","","",""
"image-keyboard-response","232","989395","0.0-3.0-6.0-1.0-0.32","663a5538ea4ded3dd872258e","666094c154fdc95dca3e206f","6660994ce249b8d2e28a4500","578","","j","","","","","","","","./tasks/HMM-beads/Images/NewTrialWC.png","lowH","1","32","1","1","1","1","true","",""
"image-keyboard-response","233","989710","0.0-3.0-6.0-1.0-1.32","663a5538ea4ded3dd872258e","666094c154fdc95dca3e206f","6660994ce249b8d2e28a4500","null","","null","","","","","","","","./tasks/HMM-beads/Images/WhiteBeadChoice.png","","","","","","","","","",""
"image-keyboard-response","234","990214","0.0-3.0-6.0-1.0-2.32","663a5538ea4ded3dd872258e","666094c154fdc95dca3e206f","6660994ce249b8d2e28a4500","null","","null","","","","","","","","./tasks/HMM-beads/Images/WhiteBeadChoiceCorrect.png","","","","","","","","","",""
"image-keyboard-response","235","992018","0.0-3.0-6.0-1.0-0.33","663a5538ea4ded3dd872258e","666094c154fdc95dca3e206f","6660994ce249b8d2e28a4500","1800","","j","","","","","","","","./tasks/HMM-beads/Images/NewTrialWC.png","lowH","1","33","1","1","1","1","true","",""
"image-keyboard-response","236","992327","0.0-3.0-6.0-1.0-1.33","663a5538ea4ded3dd872258e","666094c154fdc95dca3e206f","6660994ce249b8d2e28a4500","null","","null","","","","","","","","./tasks/HMM-beads/Images/WhiteBeadChoice.png","","","","","","","","","",""
"image-keyboard-response","237","992840","0.0-3.0-6.0-1.0-2.33","663a5538ea4ded3dd872258e","666094c154fdc95dca3e206f","6660994ce249b8d2e28a4500","null","","null","","","","","","","","./tasks/HMM-beads/Images/WhiteBeadChoiceCorrect.png","","","","","","","","","",""
"image-keyboard-response","238","993501","0.0-3.0-6.0-1.0-0.34","663a5538ea4ded3dd872258e","666094c154fdc95dca3e206f","6660994ce249b8d2e28a4500","659","","j","","","","","","","","./tasks/HMM-beads/Images/NewTrialWC.png","lowH","1","34","1","1","1","1","true","",""
"image-keyboard-response","239","993814","0.0-3.0-6.0-1.0-1.34","663a5538ea4ded3dd872258e","666094c154fdc95dca3e206f","6660994ce249b8d2e28a4500","null","","null","","","","","","","","./tasks/HMM-beads/Images/WhiteBeadChoice.png","","","","","","","","","",""
"image-keyboard-response","240","994330","0.0-3.0-6.0-1.0-2.34","663a5538ea4ded3dd872258e","666094c154fdc95dca3e206f","6660994ce249b8d2e28a4500","null","","null","","","","","","","","./tasks/HMM-beads/Images/WhiteBeadChoiceCorrect.png","","","","","","","","","",""
"image-keyboard-response","241","994466","0.0-3.0-6.0-1.0-0.35","663a5538ea4ded3dd872258e","666094c154fdc95dca3e206f","6660994ce249b8d2e28a4500","133","","j","","","","","","","","./tasks/HMM-beads/Images/NewTrialWC.png","lowH","1","35","1","1","1","1","true","",""
"image-keyboard-response","242","994783","0.0-3.0-6.0-1.0-1.35","663a5538ea4ded3dd872258e","666094c154fdc95dca3e206f","6660994ce249b8d2e28a4500","null","","null","","","","","","","","./tasks/HMM-beads/Images/WhiteBeadChoice.png","","","","","","","","","",""
"image-keyboard-response","243","995296","0.0-3.0-6.0-1.0-2.35","663a5538ea4ded3dd872258e","666094c154fdc95dca3e206f","6660994ce249b8d2e28a4500","null","","null","","","","","","","","./tasks/HMM-beads/Images/WhiteBeadChoiceCorrect.png","","","","","","","","","",""
"image-keyboard-response","244","995794","0.0-3.0-6.0-1.0-0.36","663a5538ea4ded3dd872258e","666094c154fdc95dca3e206f","6660994ce249b8d2e28a4500","495","","j","","","","","","","","./tasks/HMM-beads/Images/NewTrialWC.png","lowH","1","36","1","1","1","1","true","",""
"image-keyboard-response","245","996113","0.0-3.0-6.0-1.0-1.36","663a5538ea4ded3dd872258e","666094c154fdc95dca3e206f","6660994ce249b8d2e28a4500","null","","null","","","","","","","","./tasks/HMM-beads/Images/WhiteBeadChoice.png","","","","","","","","","",""
"image-keyboard-response","246","996628","0.0-3.0-6.0-1.0-2.36","663a5538ea4ded3dd872258e","666094c154fdc95dca3e206f","6660994ce249b8d2e28a4500","null","","null","","","","","","","","./tasks/HMM-beads/Images/WhiteBeadChoiceCorrect.png","","","","","","","","","",""
"image-keyboard-response","247","996736","0.0-3.0-6.0-1.0-0.37","663a5538ea4ded3dd872258e","666094c154fdc95dca3e206f","6660994ce249b8d2e28a4500","105","","j","","","","","","","","./tasks/HMM-beads/Images/NewTrialWC.png","lowH","1","37","1","1","1","1","true","",""
"image-keyboard-response","248","997043","0.0-3.0-6.0-1.0-1.37","663a5538ea4ded3dd872258e","666094c154fdc95dca3e206f","6660994ce249b8d2e28a4500","null","","null","","","","","","","","./tasks/HMM-beads/Images/WhiteBeadChoice.png","","","","","","","","","",""
"image-keyboard-response","249","997578","0.0-3.0-6.0-1.0-2.37","663a5538ea4ded3dd872258e","666094c154fdc95dca3e206f","6660994ce249b8d2e28a4500","null","","null","","","","","","","","./tasks/HMM-beads/Images/WhiteBeadChoiceCorrect.png","","","","","","","","","",""
"image-keyboard-response","250","997908","0.0-3.0-6.0-1.0-0.38","663a5538ea4ded3dd872258e","666094c154fdc95dca3e206f","6660994ce249b8d2e28a4500","327","","j","","","","","","","","./tasks/HMM-beads/Images/NewTrialWC.png","lowH","1","38","1","1","1","1","true","",""
"image-keyboard-response","251","998213","0.0-3.0-6.0-1.0-1.38","663a5538ea4ded3dd872258e","666094c154fdc95dca3e206f","6660994ce249b8d2e28a4500","null","","null","","","","","","","","./tasks/HMM-beads/Images/WhiteBeadChoice.png","","","","","","","","","",""
"image-keyboard-response","252","998728","0.0-3.0-6.0-1.0-2.38","663a5538ea4ded3dd872258e","666094c154fdc95dca3e206f","6660994ce249b8d2e28a4500","null","","null","","","","","","","","./tasks/HMM-beads/Images/WhiteBeadChoiceCorrect.png","","","","","","","","","",""
"image-keyboard-response","253","999638","0.0-3.0-6.0-1.0-0.39","663a5538ea4ded3dd872258e","666094c154fdc95dca3e206f","6660994ce249b8d2e28a4500","907","","f","","","","","","","","./tasks/HMM-beads/Images/NewTrialWC.png","lowH","1","39","1","1","1","0","false","",""
"image-keyboard-response","254","999943","0.0-3.0-6.0-1.0-1.39","663a5538ea4ded3dd872258e","666094c154fdc95dca3e206f","6660994ce249b8d2e28a4500","null","","null","","","","","","","","./tasks/HMM-beads/Images/BlackBeadChoice.png","","","","","","","","","",""
"image-keyboard-response","255","1000457","0.0-3.0-6.0-1.0-2.39","663a5538ea4ded3dd872258e","666094c154fdc95dca3e206f","6660994ce249b8d2e28a4500","null","","null","","","","","","","","./tasks/HMM-beads/Images/BlackBeadChoiceWrong.png","","","","","","","","","",""
"image-keyboard-response","256","1000733","0.0-3.0-6.0-1.0-0.40","663a5538ea4ded3dd872258e","666094c154fdc95dca3e206f","6660994ce249b8d2e28a4500","272","","j","","","","","","","","./tasks/HMM-beads/Images/NewTrialWC.png","lowH","1","40","1","1","1","1","true","",""
"image-keyboard-response","257","1001043","0.0-3.0-6.0-1.0-1.40","663a5538ea4ded3dd872258e","666094c154fdc95dca3e206f","6660994ce249b8d2e28a4500","null","","null","","","","","","","","./tasks/HMM-beads/Images/WhiteBeadChoice.png","","","","","","","","","",""
"image-keyboard-response","258","1001547","0.0-3.0-6.0-1.0-2.40","663a5538ea4ded3dd872258e","666094c154fdc95dca3e206f","6660994ce249b8d2e28a4500","null","","null","","","","","","","","./tasks/HMM-beads/Images/WhiteBeadChoiceCorrect.png","","","","","","","","","",""
"image-keyboard-response","259","1001570","0.0-3.0-6.0-1.0-0.41","663a5538ea4ded3dd872258e","666094c154fdc95dca3e206f","6660994ce249b8d2e28a4500","20","","j","","","","","","","","./tasks/HMM-beads/Images/NewTrialWC.png","lowH","1","41","1","1","1","1","true","",""
"image-keyboard-response","260","1001884","0.0-3.0-6.0-1.0-1.41","663a5538ea4ded3dd872258e","666094c154fdc95dca3e206f","6660994ce249b8d2e28a4500","null","","null","","","","","","","","./tasks/HMM-beads/Images/WhiteBeadChoice.png","","","","","","","","","",""
"image-keyboard-response","261","1002398","0.0-3.0-6.0-1.0-2.41","663a5538ea4ded3dd872258e","666094c154fdc95dca3e206f","6660994ce249b8d2e28a4500","null","","null","","","","","","","","./tasks/HMM-beads/Images/WhiteBeadChoiceCorrect.png","","","","","","","","","",""
"image-keyboard-response","262","1002751","0.0-3.0-6.0-1.0-0.42","663a5538ea4ded3dd872258e","666094c154fdc95dca3e206f","6660994ce249b8d2e28a4500","349","","j","","","","","","","","./tasks/HMM-beads/Images/NewTrialWC.png","lowH","1","42","1","1","1","1","true","",""
"image-keyboard-response","263","1003056","0.0-3.0-6.0-1.0-1.42","663a5538ea4ded3dd872258e","666094c154fdc95dca3e206f","6660994ce249b8d2e28a4500","null","","null","","","","","","","","./tasks/HMM-beads/Images/WhiteBeadChoice.png","","","","","","","","","",""
"image-keyboard-response","264","1003564","0.0-3.0-6.0-1.0-2.42","663a5538ea4ded3dd872258e","666094c154fdc95dca3e206f","6660994ce249b8d2e28a4500","null","","null","","","","","","","","./tasks/HMM-beads/Images/WhiteBeadChoiceCorrect.png","","","","","","","","","",""
"image-keyboard-response","265","1003948","0.0-3.0-6.0-1.0-0.43","663a5538ea4ded3dd872258e","666094c154fdc95dca3e206f","6660994ce249b8d2e28a4500","381","","j","","","","","","","","./tasks/HMM-beads/Images/NewTrialWC.png","lowH","1","43","1","1","1","1","true","",""
"image-keyboard-response","266","1004258","0.0-3.0-6.0-1.0-1.43","663a5538ea4ded3dd872258e","666094c154fdc95dca3e206f","6660994ce249b8d2e28a4500","null","","null","","","","","","","","./tasks/HMM-beads/Images/WhiteBeadChoice.png","","","","","","","","","",""
"image-keyboard-response","267","1004772","0.0-3.0-6.0-1.0-2.43","663a5538ea4ded3dd872258e","666094c154fdc95dca3e206f","6660994ce249b8d2e28a4500","null","","null","","","","","","","","./tasks/HMM-beads/Images/WhiteBeadChoiceCorrect.png","","","","","","","","","",""
"image-keyboard-response","268","1004876","0.0-3.0-6.0-1.0-0.44","663a5538ea4ded3dd872258e","666094c154fdc95dca3e206f","6660994ce249b8d2e28a4500","101","","j","","","","","","","","./tasks/HMM-beads/Images/NewTrialWC.png","lowH","1","44","1","1","1","1","true","",""
"image-keyboard-response","269","1005191","0.0-3.0-6.0-1.0-1.44","663a5538ea4ded3dd872258e","666094c154fdc95dca3e206f","6660994ce249b8d2e28a4500","null","","null","","","","","","","","./tasks/HMM-beads/Images/WhiteBeadChoice.png","","","","","","","","","",""
"image-keyboard-response","270","1005706","0.0-3.0-6.0-1.0-2.44","663a5538ea4ded3dd872258e","666094c154fdc95dca3e206f","6660994ce249b8d2e28a4500","null","","null","","","","","","","","./tasks/HMM-beads/Images/WhiteBeadChoiceCorrect.png","","","","","","","","","",""
"image-keyboard-response","271","1005835","0.0-3.0-6.0-1.0-0.45","663a5538ea4ded3dd872258e","666094c154fdc95dca3e206f","6660994ce249b8d2e28a4500","126","","j","","","","","","","","./tasks/HMM-beads/Images/NewTrialWC.png","lowH","1","45","1","1","1","1","true","",""
"image-keyboard-response","272","1006151","0.0-3.0-6.0-1.0-1.45","663a5538ea4ded3dd872258e","666094c154fdc95dca3e206f","6660994ce249b8d2e28a4500","null","","null","","","","","","","","./tasks/HMM-beads/Images/WhiteBeadChoice.png","","","","","","","","","",""
"image-keyboard-response","273","1006656","0.0-3.0-6.0-1.0-2.45","663a5538ea4ded3dd872258e","666094c154fdc95dca3e206f","6660994ce249b8d2e28a4500","null","","null","","","","","","","","./tasks/HMM-beads/Images/WhiteBeadChoiceCorrect.png","","","","","","","","","",""
"image-keyboard-response","274","1044249","0.0-3.0-6.0-1.0-0.46","663a5538ea4ded3dd872258e","666094c154fdc95dca3e206f","6660994ce249b8d2e28a4500","37595","","j","","","","","","","","./tasks/HMM-beads/Images/NewTrialWC.png","lowH","1","46","1","1","1","1","true","",""
"image-keyboard-response","275","1044582","0.0-3.0-6.0-1.0-1.46","663a5538ea4ded3dd872258e","666094c154fdc95dca3e206f","6660994ce249b8d2e28a4500","null","","null","","","","","","","","./tasks/HMM-beads/Images/WhiteBeadChoice.png","","","","","","","","","",""
"image-keyboard-response","276","1045090","0.0-3.0-6.0-1.0-2.46","663a5538ea4ded3dd872258e","666094c154fdc95dca3e206f","6660994ce249b8d2e28a4500","null","","null","","","","","","","","./tasks/HMM-beads/Images/WhiteBeadChoiceCorrect.png","","","","","","","","","",""
"image-keyboard-response","277","1045358","0.0-3.0-6.0-1.0-0.47","663a5538ea4ded3dd872258e","666094c154fdc95dca3e206f","6660994ce249b8d2e28a4500","265","","j","","","","","","","","./tasks/HMM-beads/Images/NewTrialWC.png","lowH","1","47","1","0","1","1","false","",""
"image-keyboard-response","278","1045675","0.0-3.0-6.0-1.0-1.47","663a5538ea4ded3dd872258e","666094c154fdc95dca3e206f","6660994ce249b8d2e28a4500","null","","null","","","","","","","","./tasks/HMM-beads/Images/WhiteBeadChoice.png","","","","","","","","","",""
"image-keyboard-response","279","1046187","0.0-3.0-6.0-1.0-2.47","663a5538ea4ded3dd872258e","666094c154fdc95dca3e206f","6660994ce249b8d2e28a4500","null","","null","","","","","","","","./tasks/HMM-beads/Images/WhiteBeadChoiceWrong.png","","","","","","","","","",""
"image-keyboard-response","280","1047072","0.0-3.0-6.0-1.0-0.48","663a5538ea4ded3dd872258e","666094c154fdc95dca3e206f","6660994ce249b8d2e28a4500","883","","j","","","","","","","","./tasks/HMM-beads/Images/NewTrialBC.png","lowH","1","48","1","0","0","1","false","",""
"image-keyboard-response","281","1047381","0.0-3.0-6.0-1.0-1.48","663a5538ea4ded3dd872258e","666094c154fdc95dca3e206f","6660994ce249b8d2e28a4500","null","","null","","","","","","","","./tasks/HMM-beads/Images/WhiteBeadChoice.png","","","","","","","","","",""
"image-keyboard-response","282","1047886","0.0-3.0-6.0-1.0-2.48","663a5538ea4ded3dd872258e","666094c154fdc95dca3e206f","6660994ce249b8d2e28a4500","null","","null","","","","","","","","./tasks/HMM-beads/Images/WhiteBeadChoiceWrong.png","","","","","","","","","",""
"image-keyboard-response","283","1048131","0.0-3.0-6.0-1.0-0.49","663a5538ea4ded3dd872258e","666094c154fdc95dca3e206f","6660994ce249b8d2e28a4500","242","","f","","","","","","","","./tasks/HMM-beads/Images/NewTrialBC.png","lowH","1","49","1","0","0","0","true","",""
"image-keyboard-response","284","1048436","0.0-3.0-6.0-1.0-1.49","663a5538ea4ded3dd872258e","666094c154fdc95dca3e206f","6660994ce249b8d2e28a4500","null","","null","","","","","","","","./tasks/HMM-beads/Images/BlackBeadChoice.png","","","","","","","","","",""
"image-keyboard-response","285","1048938","0.0-3.0-6.0-1.0-2.49","663a5538ea4ded3dd872258e","666094c154fdc95dca3e206f","6660994ce249b8d2e28a4500","null","","null","","","","","","","","./tasks/HMM-beads/Images/BlackBeadChoiceCorrect.png","","","","","","","","","",""
"image-keyboard-response","286","1049216","0.0-3.0-6.0-1.0-0.50","663a5538ea4ded3dd872258e","666094c154fdc95dca3e206f","6660994ce249b8d2e28a4500","274","","f","","","","","","","","./tasks/HMM-beads/Images/NewTrialBC.png","lowH","1","50","1","1","0","0","false","",""
"image-keyboard-response","287","1049531","0.0-3.0-6.0-1.0-1.50","663a5538ea4ded3dd872258e","666094c154fdc95dca3e206f","6660994ce249b8d2e28a4500","null","","null","","","","","","","","./tasks/HMM-beads/Images/BlackBeadChoice.png","","","","","","","","","",""
"image-keyboard-response","288","1050038","0.0-3.0-6.0-1.0-2.50","663a5538ea4ded3dd872258e","666094c154fdc95dca3e206f","6660994ce249b8d2e28a4500","null","","null","","","","","","","","./tasks/HMM-beads/Images/BlackBeadChoiceWrong.png","","","","","","","","","",""
"image-keyboard-response","289","1050051","0.0-3.0-6.0-1.0-0.51","663a5538ea4ded3dd872258e","666094c154fdc95dca3e206f","6660994ce249b8d2e28a4500","11","","j","","","","","","","","./tasks/HMM-beads/Images/NewTrialWC.png","lowH","1","51","1","1","1","1","true","",""
"image-keyboard-response","290","1050366","0.0-3.0-6.0-1.0-1.51","663a5538ea4ded3dd872258e","666094c154fdc95dca3e206f","6660994ce249b8d2e28a4500","null","","null","","","","","","","","./tasks/HMM-beads/Images/WhiteBeadChoice.png","","","","","","","","","",""
"image-keyboard-response","291","1050880","0.0-3.0-6.0-1.0-2.51","663a5538ea4ded3dd872258e","666094c154fdc95dca3e206f","6660994ce249b8d2e28a4500","null","","null","","","","","","","","./tasks/HMM-beads/Images/WhiteBeadChoiceCorrect.png","","","","","","","","","",""
"image-keyboard-response","292","1051247","0.0-3.0-6.0-1.0-0.52","663a5538ea4ded3dd872258e","666094c154fdc95dca3e206f","6660994ce249b8d2e28a4500","363","","j","","","","","","","","./tasks/HMM-beads/Images/NewTrialWC.png","lowH","1","52","1","1","1","1","true","",""
"image-keyboard-response","293","1051558","0.0-3.0-6.0-1.0-1.52","663a5538ea4ded3dd872258e","666094c154fdc95dca3e206f","6660994ce249b8d2e28a4500","null","","null","","","","","","","","./tasks/HMM-beads/Images/WhiteBeadChoice.png","","","","","","","","","",""
"image-keyboard-response","294","1052070","0.0-3.0-6.0-1.0-2.52","663a5538ea4ded3dd872258e","666094c154fdc95dca3e206f","6660994ce249b8d2e28a4500","null","","null","","","","","","","","./tasks/HMM-beads/Images/WhiteBeadChoiceCorrect.png","","","","","","","","","",""
"image-keyboard-response","295","1052377","0.0-3.0-6.0-1.0-0.53","663a5538ea4ded3dd872258e","666094c154fdc95dca3e206f","6660994ce249b8d2e28a4500","304","","j","","","","","","","","./tasks/HMM-beads/Images/NewTrialWC.png","lowH","1","53","1","1","1","1","true","",""
"image-keyboard-response","296","1052681","0.0-3.0-6.0-1.0-1.53","663a5538ea4ded3dd872258e","666094c154fdc95dca3e206f","6660994ce249b8d2e28a4500","null","","null","","","","","","","","./tasks/HMM-beads/Images/WhiteBeadChoice.png","","","","","","","","","",""
"image-keyboard-response","297","1053184","0.0-3.0-6.0-1.0-2.53","663a5538ea4ded3dd872258e","666094c154fdc95dca3e206f","6660994ce249b8d2e28a4500","null","","null","","","","","","","","./tasks/HMM-beads/Images/WhiteBeadChoiceCorrect.png","","","","","","","","","",""
"image-keyboard-response","298","1053569","0.0-3.0-6.0-1.0-0.54","663a5538ea4ded3dd872258e","666094c154fdc95dca3e206f","6660994ce249b8d2e28a4500","381","","j","","","","","","","","./tasks/HMM-beads/Images/NewTrialWC.png","lowH","1","54","1","1","1","1","true","",""
"image-keyboard-response","299","1053882","0.0-3.0-6.0-1.0-1.54","663a5538ea4ded3dd872258e","666094c154fdc95dca3e206f","6660994ce249b8d2e28a4500","null","","null","","","","","","","","./tasks/HMM-beads/Images/WhiteBeadChoice.png","","","","","","","","","",""
"image-keyboard-response","300","1054394","0.0-3.0-6.0-1.0-2.54","663a5538ea4ded3dd872258e","666094c154fdc95dca3e206f","6660994ce249b8d2e28a4500","null","","null","","","","","","","","./tasks/HMM-beads/Images/WhiteBeadChoiceCorrect.png","","","","","","","","","",""
"image-keyboard-response","301","1065002","0.0-3.0-6.0-1.0-0.55","663a5538ea4ded3dd872258e","666094c154fdc95dca3e206f","6660994ce249b8d2e28a4500","10605","","j","","","","","","","","./tasks/HMM-beads/Images/NewTrialWC.png","lowH","1","55","1","1","1","1","true","",""
"image-keyboard-response","302","1065315","0.0-3.0-6.0-1.0-1.55","663a5538ea4ded3dd872258e","666094c154fdc95dca3e206f","6660994ce249b8d2e28a4500","null","","null","","","","","","","","./tasks/HMM-beads/Images/WhiteBeadChoice.png","","","","","","","","","",""
"image-keyboard-response","303","1065819","0.0-3.0-6.0-1.0-2.55","663a5538ea4ded3dd872258e","666094c154fdc95dca3e206f","6660994ce249b8d2e28a4500","null","","null","","","","","","","","./tasks/HMM-beads/Images/WhiteBeadChoiceCorrect.png","","","","","","","","","",""
"image-keyboard-response","304","1065931","0.0-3.0-6.0-1.0-0.56","663a5538ea4ded3dd872258e","666094c154fdc95dca3e206f","6660994ce249b8d2e28a4500","109","","j","","","","","","","","./tasks/HMM-beads/Images/NewTrialWC.png","lowH","1","56","1","1","1","1","true","",""
"image-keyboard-response","305","1066246","0.0-3.0-6.0-1.0-1.56","663a5538ea4ded3dd872258e","666094c154fdc95dca3e206f","6660994ce249b8d2e28a4500","null","","null","","","","","","","","./tasks/HMM-beads/Images/WhiteBeadChoice.png","","","","","","","","","",""
"image-keyboard-response","306","1066752","0.0-3.0-6.0-1.0-2.56","663a5538ea4ded3dd872258e","666094c154fdc95dca3e206f","6660994ce249b8d2e28a4500","null","","null","","","","","","","","./tasks/HMM-beads/Images/WhiteBeadChoiceCorrect.png","","","","","","","","","",""
"image-keyboard-response","307","1067312","0.0-3.0-6.0-1.0-0.57","663a5538ea4ded3dd872258e","666094c154fdc95dca3e206f","6660994ce249b8d2e28a4500","557","","j","","","","","","","","./tasks/HMM-beads/Images/NewTrialWC.png","lowH","1","57","1","1","1","1","true","",""
"image-keyboard-response","308","1067616","0.0-3.0-6.0-1.0-1.57","663a5538ea4ded3dd872258e","666094c154fdc95dca3e206f","6660994ce249b8d2e28a4500","null","","null","","","","","","","","./tasks/HMM-beads/Images/WhiteBeadChoice.png","","","","","","","","","",""
"image-keyboard-response","309","1068132","0.0-3.0-6.0-1.0-2.57","663a5538ea4ded3dd872258e","666094c154fdc95dca3e206f","6660994ce249b8d2e28a4500","null","","null","","","","","","","","./tasks/HMM-beads/Images/WhiteBeadChoiceCorrect.png","","","","","","","","","",""
"image-keyboard-response","310","1068300","0.0-3.0-6.0-1.0-0.58","663a5538ea4ded3dd872258e","666094c154fdc95dca3e206f","6660994ce249b8d2e28a4500","166","","j","","","","","","","","./tasks/HMM-beads/Images/NewTrialWC.png","lowH","1","58","1","1","1","1","true","",""
"image-keyboard-response","311","1068612","0.0-3.0-6.0-1.0-1.58","663a5538ea4ded3dd872258e","666094c154fdc95dca3e206f","6660994ce249b8d2e28a4500","null","","null","","","","","","","","./tasks/HMM-beads/Images/WhiteBeadChoice.png","","","","","","","","","",""
"image-keyboard-response","312","1069118","0.0-3.0-6.0-1.0-2.58","663a5538ea4ded3dd872258e","666094c154fdc95dca3e206f","6660994ce249b8d2e28a4500","null","","null","","","","","","","","./tasks/HMM-beads/Images/WhiteBeadChoiceCorrect.png","","","","","","","","","",""
"image-keyboard-response","313","1071759","0.0-3.0-6.0-1.0-0.59","663a5538ea4ded3dd872258e","666094c154fdc95dca3e206f","6660994ce249b8d2e28a4500","2638","","j","","","","","","","","./tasks/HMM-beads/Images/NewTrialWC.png","lowH","1","59","1","0","1","1","false","",""
"image-keyboard-response","314","1072089","0.0-3.0-6.0-1.0-1.59","663a5538ea4ded3dd872258e","666094c154fdc95dca3e206f","6660994ce249b8d2e28a4500","null","","null","","","","","","","","./tasks/HMM-beads/Images/WhiteBeadChoice.png","","","","","","","","","",""
"image-keyboard-response","315","1072601","0.0-3.0-6.0-1.0-2.59","663a5538ea4ded3dd872258e","666094c154fdc95dca3e206f","6660994ce249b8d2e28a4500","null","","null","","","","","","","","./tasks/HMM-beads/Images/WhiteBeadChoiceWrong.png","","","","","","","","","",""
"image-keyboard-response","316","1072994","0.0-3.0-6.0-1.0-0.60","663a5538ea4ded3dd872258e","666094c154fdc95dca3e206f","6660994ce249b8d2e28a4500","391","","f","","","","","","","","./tasks/HMM-beads/Images/NewTrialBC.png","lowH","1","60","1","1","0","0","false","",""
"image-keyboard-response","317","1073298","0.0-3.0-6.0-1.0-1.60","663a5538ea4ded3dd872258e","666094c154fdc95dca3e206f","6660994ce249b8d2e28a4500","null","","null","","","","","","","","./tasks/HMM-beads/Images/BlackBeadChoice.png","","","","","","","","","",""
"image-keyboard-response","318","1073801","0.0-3.0-6.0-1.0-2.60","663a5538ea4ded3dd872258e","666094c154fdc95dca3e206f","6660994ce249b8d2e28a4500","null","","null","","","","","","","","./tasks/HMM-beads/Images/BlackBeadChoiceWrong.png","","","","","","","","","",""
"image-keyboard-response","319","1074115","0.0-3.0-6.0-1.0-0.61","663a5538ea4ded3dd872258e","666094c154fdc95dca3e206f","6660994ce249b8d2e28a4500","310","","j","","","","","","","","./tasks/HMM-beads/Images/NewTrialWC.png","lowH","1","61","1","1","1","1","true","",""
"image-keyboard-response","320","1074428","0.0-3.0-6.0-1.0-1.61","663a5538ea4ded3dd872258e","666094c154fdc95dca3e206f","6660994ce249b8d2e28a4500","null","","null","","","","","","","","./tasks/HMM-beads/Images/WhiteBeadChoice.png","","","","","","","","","",""
"image-keyboard-response","321","1074934","0.0-3.0-6.0-1.0-2.61","663a5538ea4ded3dd872258e","666094c154fdc95dca3e206f","6660994ce249b8d2e28a4500","null","","null","","","","","","","","./tasks/HMM-beads/Images/WhiteBeadChoiceCorrect.png","","","","","","","","","",""
"image-keyboard-response","322","1075457","0.0-3.0-6.0-1.0-0.62","663a5538ea4ded3dd872258e","666094c154fdc95dca3e206f","6660994ce249b8d2e28a4500","519","","j","","","","","","","","./tasks/HMM-beads/Images/NewTrialWC.png","lowH","1","62","1","0","1","1","false","",""
"image-keyboard-response","323","1075772","0.0-3.0-6.0-1.0-1.62","663a5538ea4ded3dd872258e","666094c154fdc95dca3e206f","6660994ce249b8d2e28a4500","null","","null","","","","","","","","./tasks/HMM-beads/Images/WhiteBeadChoice.png","","","","","","","","","",""
"image-keyboard-response","324","1076284","0.0-3.0-6.0-1.0-2.62","663a5538ea4ded3dd872258e","666094c154fdc95dca3e206f","6660994ce249b8d2e28a4500","null","","null","","","","","","","","./tasks/HMM-beads/Images/WhiteBeadChoiceWrong.png","","","","","","","","","",""
"image-keyboard-response","325","1076778","0.0-3.0-6.0-1.0-0.63","663a5538ea4ded3dd872258e","666094c154fdc95dca3e206f","6660994ce249b8d2e28a4500","491","","f","","","","","","","","./tasks/HMM-beads/Images/NewTrialBC.png","lowH","1","63","1","1","0","0","false","",""
"image-keyboard-response","326","1077082","0.0-3.0-6.0-1.0-1.63","663a5538ea4ded3dd872258e","666094c154fdc95dca3e206f","6660994ce249b8d2e28a4500","null","","null","","","","","","","","./tasks/HMM-beads/Images/BlackBeadChoice.png","","","","","","","","","",""
"image-keyboard-response","327","1077606","0.0-3.0-6.0-1.0-2.63","663a5538ea4ded3dd872258e","666094c154fdc95dca3e206f","6660994ce249b8d2e28a4500","null","","null","","","","","","","","./tasks/HMM-beads/Images/BlackBeadChoiceWrong.png","","","","","","","","","",""
"image-keyboard-response","328","1078089","0.0-3.0-6.0-1.0-0.64","663a5538ea4ded3dd872258e","666094c154fdc95dca3e206f","6660994ce249b8d2e28a4500","481","","j","","","","","","","","./tasks/HMM-beads/Images/NewTrialWC.png","lowH","1","64","1","1","1","1","true","",""
"image-keyboard-response","329","1078398","0.0-3.0-6.0-1.0-1.64","663a5538ea4ded3dd872258e","666094c154fdc95dca3e206f","6660994ce249b8d2e28a4500","null","","null","","","","","","","","./tasks/HMM-beads/Images/WhiteBeadChoice.png","","","","","","","","","",""
"image-keyboard-response","330","1078905","0.0-3.0-6.0-1.0-2.64","663a5538ea4ded3dd872258e","666094c154fdc95dca3e206f","6660994ce249b8d2e28a4500","null","","null","","","","","","","","./tasks/HMM-beads/Images/WhiteBeadChoiceCorrect.png","","","","","","","","","",""
"image-keyboard-response","331","1079240","0.0-3.0-6.0-1.0-0.65","663a5538ea4ded3dd872258e","666094c154fdc95dca3e206f","6660994ce249b8d2e28a4500","332","","j","","","","","","","","./tasks/HMM-beads/Images/NewTrialWC.png","lowH","1","65","1","1","1","1","true","",""
"image-keyboard-response","332","1079547","0.0-3.0-6.0-1.0-1.65","663a5538ea4ded3dd872258e","666094c154fdc95dca3e206f","6660994ce249b8d2e28a4500","null","","null","","","","","","","","./tasks/HMM-beads/Images/WhiteBeadChoice.png","","","","","","","","","",""
"image-keyboard-response","333","1080064","0.0-3.0-6.0-1.0-2.65","663a5538ea4ded3dd872258e","666094c154fdc95dca3e206f","6660994ce249b8d2e28a4500","null","","null","","","","","","","","./tasks/HMM-beads/Images/WhiteBeadChoiceCorrect.png","","","","","","","","","",""
"image-keyboard-response","334","1080386","0.0-3.0-6.0-1.0-0.66","663a5538ea4ded3dd872258e","666094c154fdc95dca3e206f","6660994ce249b8d2e28a4500","319","","j","","","","","","","","./tasks/HMM-beads/Images/NewTrialWC.png","lowH","1","66","1","1","1","1","true","",""
"image-keyboard-response","335","1080695","0.0-3.0-6.0-1.0-1.66","663a5538ea4ded3dd872258e","666094c154fdc95dca3e206f","6660994ce249b8d2e28a4500","null","","null","","","","","","","","./tasks/HMM-beads/Images/WhiteBeadChoice.png","","","","","","","","","",""
"image-keyboard-response","336","1081208","0.0-3.0-6.0-1.0-2.66","663a5538ea4ded3dd872258e","666094c154fdc95dca3e206f","6660994ce249b8d2e28a4500","null","","null","","","","","","","","./tasks/HMM-beads/Images/WhiteBeadChoiceCorrect.png","","","","","","","","","",""
"image-keyboard-response","337","1081547","0.0-3.0-6.0-1.0-0.67","663a5538ea4ded3dd872258e","666094c154fdc95dca3e206f","6660994ce249b8d2e28a4500","336","","j","","","","","","","","./tasks/HMM-beads/Images/NewTrialWC.png","lowH","1","67","1","0","1","1","false","",""
"image-keyboard-response","338","1081853","0.0-3.0-6.0-1.0-1.67","663a5538ea4ded3dd872258e","666094c154fdc95dca3e206f","6660994ce249b8d2e28a4500","null","","null","","","","","","","","./tasks/HMM-beads/Images/WhiteBeadChoice.png","","","","","","","","","",""
"image-keyboard-response","339","1082367","0.0-3.0-6.0-1.0-2.67","663a5538ea4ded3dd872258e","666094c154fdc95dca3e206f","6660994ce249b8d2e28a4500","null","","null","","","","","","","","./tasks/HMM-beads/Images/WhiteBeadChoiceWrong.png","","","","","","","","","",""
"image-keyboard-response","340","1082444","0.0-3.0-6.0-1.0-0.68","663a5538ea4ded3dd872258e","666094c154fdc95dca3e206f","6660994ce249b8d2e28a4500","75","","f","","","","","","","","./tasks/HMM-beads/Images/NewTrialBC.png","lowH","1","68","1","1","0","0","false","",""
"image-keyboard-response","341","1082749","0.0-3.0-6.0-1.0-1.68","663a5538ea4ded3dd872258e","666094c154fdc95dca3e206f","6660994ce249b8d2e28a4500","null","","null","","","","","","","","./tasks/HMM-beads/Images/BlackBeadChoice.png","","","","","","","","","",""
"image-keyboard-response","342","1083265","0.0-3.0-6.0-1.0-2.68","663a5538ea4ded3dd872258e","666094c154fdc95dca3e206f","6660994ce249b8d2e28a4500","null","","null","","","","","","","","./tasks/HMM-beads/Images/BlackBeadChoiceWrong.png","","","","","","","","","",""
"image-keyboard-response","343","1083333","0.0-3.0-6.0-1.0-0.69","663a5538ea4ded3dd872258e","666094c154fdc95dca3e206f","6660994ce249b8d2e28a4500","66","","j","","","","","","","","./tasks/HMM-beads/Images/NewTrialWC.png","lowH","1","69","0","1","1","1","true","",""
"image-keyboard-response","344","1083640","0.0-3.0-6.0-1.0-1.69","663a5538ea4ded3dd872258e","666094c154fdc95dca3e206f","6660994ce249b8d2e28a4500","null","","null","","","","","","","","./tasks/HMM-beads/Images/WhiteBeadChoice.png","","","","","","","","","",""
"image-keyboard-response","345","1084150","0.0-3.0-6.0-1.0-2.69","663a5538ea4ded3dd872258e","666094c154fdc95dca3e206f","6660994ce249b8d2e28a4500","null","","null","","","","","","","","./tasks/HMM-beads/Images/WhiteBeadChoiceCorrect.png","","","","","","","","","",""
"image-keyboard-response","346","1084484","0.0-3.0-6.0-1.0-0.70","663a5538ea4ded3dd872258e","666094c154fdc95dca3e206f","6660994ce249b8d2e28a4500","330","","j","","","","","","","","./tasks/HMM-beads/Images/NewTrialWC.png","lowH","1","70","0","1","1","1","true","",""
"image-keyboard-response","347","1084798","0.0-3.0-6.0-1.0-1.70","663a5538ea4ded3dd872258e","666094c154fdc95dca3e206f","6660994ce249b8d2e28a4500","null","","null","","","","","","","","./tasks/HMM-beads/Images/WhiteBeadChoice.png","","","","","","","","","",""
"image-keyboard-response","348","1085315","0.0-3.0-6.0-1.0-2.70","663a5538ea4ded3dd872258e","666094c154fdc95dca3e206f","6660994ce249b8d2e28a4500","null","","null","","","","","","","","./tasks/HMM-beads/Images/WhiteBeadChoiceCorrect.png","","","","","","","","","",""
"image-keyboard-response","349","1085586","0.0-3.0-6.0-1.0-0.71","663a5538ea4ded3dd872258e","666094c154fdc95dca3e206f","6660994ce249b8d2e28a4500","268","","j","","","","","","","","./tasks/HMM-beads/Images/NewTrialWC.png","lowH","1","71","0","0","1","1","false","",""
"image-keyboard-response","350","1085895","0.0-3.0-6.0-1.0-1.71","663a5538ea4ded3dd872258e","666094c154fdc95dca3e206f","6660994ce249b8d2e28a4500","null","","null","","","","","","","","./tasks/HMM-beads/Images/WhiteBeadChoice.png","","","","","","","","","",""
"image-keyboard-response","351","1086410","0.0-3.0-6.0-1.0-2.71","663a5538ea4ded3dd872258e","666094c154fdc95dca3e206f","6660994ce249b8d2e28a4500","null","","null","","","","","","","","./tasks/HMM-beads/Images/WhiteBeadChoiceWrong.png","","","","","","","","","",""
"image-keyboard-response","352","1099942","0.0-3.0-6.0-1.0-0.72","663a5538ea4ded3dd872258e","666094c154fdc95dca3e206f","6660994ce249b8d2e28a4500","13529","","f","","","","","","","","./tasks/HMM-beads/Images/NewTrialBC.png","lowH","1","72","0","0","0","0","true","",""
"image-keyboard-response","353","1100275","0.0-3.0-6.0-1.0-1.72","663a5538ea4ded3dd872258e","666094c154fdc95dca3e206f","6660994ce249b8d2e28a4500","null","","null","","","","","","","","./tasks/HMM-beads/Images/BlackBeadChoice.png","","","","","","","","","",""
"image-keyboard-response","354","1100791","0.0-3.0-6.0-1.0-2.72","663a5538ea4ded3dd872258e","666094c154fdc95dca3e206f","6660994ce249b8d2e28a4500","null","","null","","","","","","","","./tasks/HMM-beads/Images/BlackBeadChoiceCorrect.png","","","","","","","","","",""
"image-keyboard-response","355","1101107","0.0-3.0-6.0-1.0-0.73","663a5538ea4ded3dd872258e","666094c154fdc95dca3e206f","6660994ce249b8d2e28a4500","313","","f","","","","","","","","./tasks/HMM-beads/Images/NewTrialBC.png","lowH","1","73","0","1","0","0","false","",""
"image-keyboard-response","356","1101412","0.0-3.0-6.0-1.0-1.73","663a5538ea4ded3dd872258e","666094c154fdc95dca3e206f","6660994ce249b8d2e28a4500","null","","null","","","","","","","","./tasks/HMM-beads/Images/BlackBeadChoice.png","","","","","","","","","",""
"image-keyboard-response","357","1101916","0.0-3.0-6.0-1.0-2.73","663a5538ea4ded3dd872258e","666094c154fdc95dca3e206f","6660994ce249b8d2e28a4500","null","","null","","","","","","","","./tasks/HMM-beads/Images/BlackBeadChoiceWrong.png","","","","","","","","","",""
"image-keyboard-response","358","1102289","0.0-3.0-6.0-1.0-0.74","663a5538ea4ded3dd872258e","666094c154fdc95dca3e206f","6660994ce249b8d2e28a4500","371","","j","","","","","","","","./tasks/HMM-beads/Images/NewTrialWC.png","lowH","1","74","0","0","1","1","false","",""
"image-keyboard-response","359","1102595","0.0-3.0-6.0-1.0-1.74","663a5538ea4ded3dd872258e","666094c154fdc95dca3e206f","6660994ce249b8d2e28a4500","null","","null","","","","","","","","./tasks/HMM-beads/Images/WhiteBeadChoice.png","","","","","","","","","",""
"image-keyboard-response","360","1103100","0.0-3.0-6.0-1.0-2.74","663a5538ea4ded3dd872258e","666094c154fdc95dca3e206f","6660994ce249b8d2e28a4500","null","","null","","","","","","","","./tasks/HMM-beads/Images/WhiteBeadChoiceWrong.png","","","","","","","","","",""
"image-keyboard-response","361","1103494","0.0-3.0-6.0-1.0-0.75","663a5538ea4ded3dd872258e","666094c154fdc95dca3e206f","6660994ce249b8d2e28a4500","391","","f","","","","","","","","./tasks/HMM-beads/Images/NewTrialBC.png","lowH","1","75","0","1","0","0","false","",""
"image-keyboard-response","362","1103808","0.0-3.0-6.0-1.0-1.75","663a5538ea4ded3dd872258e","666094c154fdc95dca3e206f","6660994ce249b8d2e28a4500","null","","null","","","","","","","","./tasks/HMM-beads/Images/BlackBeadChoice.png","","","","","","","","","",""
"image-keyboard-response","363","1104326","0.0-3.0-6.0-1.0-2.75","663a5538ea4ded3dd872258e","666094c154fdc95dca3e206f","6660994ce249b8d2e28a4500","null","","null","","","","","","","","./tasks/HMM-beads/Images/BlackBeadChoiceWrong.png","","","","","","","","","",""
"image-keyboard-response","364","1104386","0.0-3.0-6.0-1.0-0.76","663a5538ea4ded3dd872258e","666094c154fdc95dca3e206f","6660994ce249b8d2e28a4500","56","","j","","","","","","","","./tasks/HMM-beads/Images/NewTrialWC.png","lowH","1","76","0","1","1","1","true","",""
"image-keyboard-response","365","1104702","0.0-3.0-6.0-1.0-1.76","663a5538ea4ded3dd872258e","666094c154fdc95dca3e206f","6660994ce249b8d2e28a4500","null","","null","","","","","","","","./tasks/HMM-beads/Images/WhiteBeadChoice.png","","","","","","","","","",""
"image-keyboard-response","366","1105209","0.0-3.0-6.0-1.0-2.76","663a5538ea4ded3dd872258e","666094c154fdc95dca3e206f","6660994ce249b8d2e28a4500","null","","null","","","","","","","","./tasks/HMM-beads/Images/WhiteBeadChoiceCorrect.png","","","","","","","","","",""
"image-keyboard-response","367","1105214","0.0-3.0-6.0-1.0-0.77","663a5538ea4ded3dd872258e","666094c154fdc95dca3e206f","6660994ce249b8d2e28a4500","3","","j","","","","","","","","./tasks/HMM-beads/Images/NewTrialWC.png","lowH","1","77","0","0","1","1","false","",""
"image-keyboard-response","368","1105521","0.0-3.0-6.0-1.0-1.77","663a5538ea4ded3dd872258e","666094c154fdc95dca3e206f","6660994ce249b8d2e28a4500","null","","null","","","","","","","","./tasks/HMM-beads/Images/WhiteBeadChoice.png","","","","","","","","","",""
"image-keyboard-response","369","1106033","0.0-3.0-6.0-1.0-2.77","663a5538ea4ded3dd872258e","666094c154fdc95dca3e206f","6660994ce249b8d2e28a4500","null","","null","","","","","","","","./tasks/HMM-beads/Images/WhiteBeadChoiceWrong.png","","","","","","","","","",""
"image-keyboard-response","370","1106097","0.0-3.0-6.0-1.0-0.78","663a5538ea4ded3dd872258e","666094c154fdc95dca3e206f","6660994ce249b8d2e28a4500","62","","f","","","","","","","","./tasks/HMM-beads/Images/NewTrialBC.png","lowH","1","78","0","0","0","0","true","",""
"image-keyboard-response","371","1106404","0.0-3.0-6.0-1.0-1.78","663a5538ea4ded3dd872258e","666094c154fdc95dca3e206f","6660994ce249b8d2e28a4500","null","","null","","","","","","","","./tasks/HMM-beads/Images/BlackBeadChoice.png","","","","","","","","","",""
"image-keyboard-response","372","1106906","0.0-3.0-6.0-1.0-2.78","663a5538ea4ded3dd872258e","666094c154fdc95dca3e206f","6660994ce249b8d2e28a4500","null","","null","","","","","","","","./tasks/HMM-beads/Images/BlackBeadChoiceCorrect.png","","","","","","","","","",""
"image-keyboard-response","373","1107591","0.0-3.0-6.0-1.0-0.79","663a5538ea4ded3dd872258e","666094c154fdc95dca3e206f","6660994ce249b8d2e28a4500","683","","f","","","","","","","","./tasks/HMM-beads/Images/NewTrialBC.png","lowH","1","79","0","0","0","0","true","",""
