"trial_type","trial_index","time_elapsed","internal_node_id","subject_id","study_id","session_id","rt","url","response","question_order","view_history","success","timeout","failed_images","failed_audio","failed_video","stimulus","block","block_rep","trial_number","jar","bead","previous_bead","choice","correct","lowH_score","total_bonus"
"pavlovia","0","3910","0.0-0.0","659d779096ebe05ecca2ebce","6662009ae78f21dd82fcd179","66620c1e5f017f31576c0482","","","","","","","","","","","","","","","","","","","","",""
"external-html","1","18650","0.0-1.0-0.0","659d779096ebe05ecca2ebce","6662009ae78f21dd82fcd179","66620c1e5f017f31576c0482","14020","new_consent.html","","","","","","","","","","","","","","","","","","",""
"survey-multi-choice","2","27891","0.0-1.0-1.0","659d779096ebe05ecca2ebce","6662009ae78f21dd82fcd179","66620c1e5f017f31576c0482","9234","","{""Q0"":""Male"",""Q1"":""Black or African American""}","[0,1]","","","","","","","","","","","","","","","","",""
"survey-text","3","36371","0.0-1.0-2.0","659d779096ebe05ecca2ebce","6662009ae78f21dd82fcd179","66620c1e5f017f31576c0482","8466","","{""Q0"":""44""}","","","","","","","","","","","","","","","","","",""
"instructions","4","39233","0.0-2.0","659d779096ebe05ecca2ebce","6662009ae78f21dd82fcd179","66620c1e5f017f31576c0482","2759","","","","[{""page_index"":0,""viewing_time"":2759}]","","","","","","","","","","","","","","","",""
"preload","5","76821","0.0-3.0-0.0","659d779096ebe05ecca2ebce","6662009ae78f21dd82fcd179","66620c1e5f017f31576c0482","","","","","","true","false","[]","[]","[]","","","","","","","","","","",""
"instructions","6","602718","0.0-3.0-1.0","659d779096ebe05ecca2ebce","6662009ae78f21dd82fcd179","66620c1e5f017f31576c0482","525894","","","","[{""page_index"":0,""viewing_time"":48672},{""page_index"":1,""viewing_time"":19457},{""page_index"":2,""viewing_time"":9430},{""page_index"":3,""viewing_time"":4400},{""page_index"":4,""viewing_time"":32912},{""page_index"":5,""viewing_time"":148815},{""page_index"":6,""viewing_time"":19616},{""page_index"":7,""viewing_time"":14424},{""page_index"":8,""viewing_time"":11648},{""page_index"":9,""viewing_time"":12976},{""page_index"":10,""viewing_time"":17296},{""page_index"":11,""viewing_time"":6480},{""page_index"":10,""viewing_time"":4808},{""page_index"":9,""viewing_time"":5136},{""page_index"":10,""viewing_time"":120263},{""page_index"":11,""viewing_time"":2056},{""page_index"":10,""viewing_time"":688},{""page_index"":9,""viewing_time"":2144},{""page_index"":8,""viewing_time"":1064},{""page_index"":7,""viewing_time"":761},{""page_index"":6,""viewing_time"":3471},{""page_index"":5,""viewing_time"":29392},{""page_index"":6,""viewing_time"":1065},{""page_index"":7,""viewing_time"":2120},{""page_index"":8,""viewing_time"":2008},{""page_index"":9,""viewing_time"":2096},{""page_index"":10,""viewing_time"":1425},{""page_index"":11,""viewing_time"":1271}]","","","","","","","","","","","","","","","",""
"html-button-response","7","610671","0.0-3.0-2.0-0.0-0.0","659d779096ebe05ecca2ebce","6662009ae78f21dd82fcd179","66620c1e5f017f31576c0482","7945","","1","","","","","","","","<div align=center>Your goal is to predict…?<br><br></div>","","","","","","","","","",""
"html-button-response","8","622100","0.0-3.0-2.0-1.0-0.0","659d779096ebe05ecca2ebce","6662009ae78f21dd82fcd179","66620c1e5f017f31576c0482","8586","","2","","","","","","","","<div align=center>In the jar with mostly white beads, there are ___% white beads and ___% black beads?<br><br></div>","","","","","","","","","",""
"html-button-response","9","639324","0.0-3.0-2.0-2.0-0.0","659d779096ebe05ecca2ebce","6662009ae78f21dd82fcd179","66620c1e5f017f31576c0482","16076","","0","","","","","","","","<div align=center>When there is a 1% probability that the jars will switch, the next bead will most likely be drawn from the…<br><br></div>","","","","","","","","","",""
"html-button-response","10","649771","0.0-3.0-2.0-3.0-0.0","659d779096ebe05ecca2ebce","6662009ae78f21dd82fcd179","66620c1e5f017f31576c0482","8849","","1","","","","","","","","<div align=center>When there is a 99% probability that the jars will switch, the next bead will most likely be drawn from the…<br><br></div>","","","","","","","","","",""
"instructions","11","664763","0.0-3.0-3.0","659d779096ebe05ecca2ebce","6662009ae78f21dd82fcd179","66620c1e5f017f31576c0482","13531","","","","[{""page_index"":0,""viewing_time"":13530}]","","","","","","","","","","","","","","","",""
"html-keyboard-response","12","704322","0.0-3.0-4.0-0.0","659d779096ebe05ecca2ebce","6662009ae78f21dd82fcd179","66620c1e5f017f31576c0482","39556",""," ","","","","","","","","<div align=center>In this practice block, there will be a <b>1% chance</b> that the jar on the next trial will be different from the jar on the current trial.<br><br></div>","","","","","","","","","",""
"image-keyboard-response","13","717694","0.0-3.0-4.0-1.0-0.0","659d779096ebe05ecca2ebce","6662009ae78f21dd82fcd179","66620c1e5f017f31576c0482","13352","","f","","","","","","","","./tasks/HMM-beads/Images/NoChoice.png","practice","0","0","0","0","9","0","true","",""
"image-keyboard-response","14","718002","0.0-3.0-4.0-1.0-1.0","659d779096ebe05ecca2ebce","6662009ae78f21dd82fcd179","66620c1e5f017f31576c0482","null","","null","","","","","","","","./tasks/HMM-beads/Images/BlackBeadChoice.png","","","","","","","","","",""
"image-keyboard-response","15","718506","0.0-3.0-4.0-1.0-2.0","659d779096ebe05ecca2ebce","6662009ae78f21dd82fcd179","66620c1e5f017f31576c0482","null","","null","","","","","","","","./tasks/HMM-beads/Images/BlackBeadChoiceCorrect.png","","","","","","","","","",""
"image-keyboard-response","16","733477","0.0-3.0-4.0-1.0-0.1","659d779096ebe05ecca2ebce","6662009ae78f21dd82fcd179","66620c1e5f017f31576c0482","14968","","f","","","","","","","","./tasks/HMM-beads/Images/NewTrialBC.png","practice","0","1","0","0","0","0","true","",""
"image-keyboard-response","17","733783","0.0-3.0-4.0-1.0-1.1","659d779096ebe05ecca2ebce","6662009ae78f21dd82fcd179","66620c1e5f017f31576c0482","null","","null","","","","","","","","./tasks/HMM-beads/Images/BlackBeadChoice.png","","","","","","","","","",""
"image-keyboard-response","18","734288","0.0-3.0-4.0-1.0-2.1","659d779096ebe05ecca2ebce","6662009ae78f21dd82fcd179","66620c1e5f017f31576c0482","null","","null","","","","","","","","./tasks/HMM-beads/Images/BlackBeadChoiceCorrect.png","","","","","","","","","",""
"image-keyboard-response","19","738410","0.0-3.0-4.0-1.0-0.2","659d779096ebe05ecca2ebce","6662009ae78f21dd82fcd179","66620c1e5f017f31576c0482","4119","","j","","","","","","","","./tasks/HMM-beads/Images/NewTrialBC.png","practice","0","2","0","1","0","1","true","",""
"image-keyboard-response","20","738714","0.0-3.0-4.0-1.0-1.2","659d779096ebe05ecca2ebce","6662009ae78f21dd82fcd179","66620c1e5f017f31576c0482","null","","null","","","","","","","","./tasks/HMM-beads/Images/WhiteBeadChoice.png","","","","","","","","","",""
"image-keyboard-response","21","739230","0.0-3.0-4.0-1.0-2.2","659d779096ebe05ecca2ebce","6662009ae78f21dd82fcd179","66620c1e5f017f31576c0482","null","","null","","","","","","","","./tasks/HMM-beads/Images/WhiteBeadChoiceCorrect.png","","","","","","","","","",""
"image-keyboard-response","22","759150","0.0-3.0-4.0-1.0-0.3","659d779096ebe05ecca2ebce","6662009ae78f21dd82fcd179","66620c1e5f017f31576c0482","19916","","f","","","","","","","","./tasks/HMM-beads/Images/NewTrialWC.png","practice","0","3","0","0","1","0","true","",""
"image-keyboard-response","23","759454","0.0-3.0-4.0-1.0-1.3","659d779096ebe05ecca2ebce","6662009ae78f21dd82fcd179","66620c1e5f017f31576c0482","null","","null","","","","","","","","./tasks/HMM-beads/Images/BlackBeadChoice.png","","","","","","","","","",""
"image-keyboard-response","24","759957","0.0-3.0-4.0-1.0-2.3","659d779096ebe05ecca2ebce","6662009ae78f21dd82fcd179","66620c1e5f017f31576c0482","null","","null","","","","","","","","./tasks/HMM-beads/Images/BlackBeadChoiceCorrect.png","","","","","","","","","",""
"image-keyboard-response","25","778005","0.0-3.0-4.0-1.0-0.4","659d779096ebe05ecca2ebce","6662009ae78f21dd82fcd179","66620c1e5f017f31576c0482","18044","","f","","","","","","","","./tasks/HMM-beads/Images/NewTrialBC.png","practice","0","4","0","0","0","0","true","",""
"image-keyboard-response","26","778310","0.0-3.0-4.0-1.0-1.4","659d779096ebe05ecca2ebce","6662009ae78f21dd82fcd179","66620c1e5f017f31576c0482","null","","null","","","","","","","","./tasks/HMM-beads/Images/BlackBeadChoice.png","","","","","","","","","",""
"image-keyboard-response","27","778813","0.0-3.0-4.0-1.0-2.4","659d779096ebe05ecca2ebce","6662009ae78f21dd82fcd179","66620c1e5f017f31576c0482","null","","null","","","","","","","","./tasks/HMM-beads/Images/BlackBeadChoiceCorrect.png","","","","","","","","","",""
"image-keyboard-response","28","780023","0.0-3.0-4.0-1.0-0.5","659d779096ebe05ecca2ebce","6662009ae78f21dd82fcd179","66620c1e5f017f31576c0482","1207","","f","","","","","","","","./tasks/HMM-beads/Images/NewTrialBC.png","practice","0","5","0","1","0","0","false","",""
"image-keyboard-response","29","780327","0.0-3.0-4.0-1.0-1.5","659d779096ebe05ecca2ebce","6662009ae78f21dd82fcd179","66620c1e5f017f31576c0482","null","","null","","","","","","","","./tasks/HMM-beads/Images/BlackBeadChoice.png","","","","","","","","","",""
"image-keyboard-response","30","780832","0.0-3.0-4.0-1.0-2.5","659d779096ebe05ecca2ebce","6662009ae78f21dd82fcd179","66620c1e5f017f31576c0482","null","","null","","","","","","","","./tasks/HMM-beads/Images/BlackBeadChoiceWrong.png","","","","","","","","","",""
"image-keyboard-response","31","782392","0.0-3.0-4.0-1.0-0.6","659d779096ebe05ecca2ebce","6662009ae78f21dd82fcd179","66620c1e5f017f31576c0482","1557","","j","","","","","","","","./tasks/HMM-beads/Images/NewTrialWC.png","practice","0","6","0","0","1","1","false","",""
"image-keyboard-response","32","782696","0.0-3.0-4.0-1.0-1.6","659d779096ebe05ecca2ebce","6662009ae78f21dd82fcd179","66620c1e5f017f31576c0482","null","","null","","","","","","","","./tasks/HMM-beads/Images/WhiteBeadChoice.png","","","","","","","","","",""
"image-keyboard-response","33","783199","0.0-3.0-4.0-1.0-2.6","659d779096ebe05ecca2ebce","6662009ae78f21dd82fcd179","66620c1e5f017f31576c0482","null","","null","","","","","","","","./tasks/HMM-beads/Images/WhiteBeadChoiceWrong.png","","","","","","","","","",""
"image-keyboard-response","34","786761","0.0-3.0-4.0-1.0-0.7","659d779096ebe05ecca2ebce","6662009ae78f21dd82fcd179","66620c1e5f017f31576c0482","3559","","f","","","","","","","","./tasks/HMM-beads/Images/NewTrialBC.png","practice","0","7","0","0","0","0","true","",""
"image-keyboard-response","35","787066","0.0-3.0-4.0-1.0-1.7","659d779096ebe05ecca2ebce","6662009ae78f21dd82fcd179","66620c1e5f017f31576c0482","null","","null","","","","","","","","./tasks/HMM-beads/Images/BlackBeadChoice.png","","","","","","","","","",""
"image-keyboard-response","36","787570","0.0-3.0-4.0-1.0-2.7","659d779096ebe05ecca2ebce","6662009ae78f21dd82fcd179","66620c1e5f017f31576c0482","null","","null","","","","","","","","./tasks/HMM-beads/Images/BlackBeadChoiceCorrect.png","","","","","","","","","",""
"image-keyboard-response","37","788242","0.0-3.0-4.0-1.0-0.8","659d779096ebe05ecca2ebce","6662009ae78f21dd82fcd179","66620c1e5f017f31576c0482","669","","f","","","","","","","","./tasks/HMM-beads/Images/NewTrialBC.png","practice","0","8","0","0","0","0","true","",""
"image-keyboard-response","38","788547","0.0-3.0-4.0-1.0-1.8","659d779096ebe05ecca2ebce","6662009ae78f21dd82fcd179","66620c1e5f017f31576c0482","null","","null","","","","","","","","./tasks/HMM-beads/Images/BlackBeadChoice.png","","","","","","","","","",""
"image-keyboard-response","39","789050","0.0-3.0-4.0-1.0-2.8","659d779096ebe05ecca2ebce","6662009ae78f21dd82fcd179","66620c1e5f017f31576c0482","null","","null","","","","","","","","./tasks/HMM-beads/Images/BlackBeadChoiceCorrect.png","","","","","","","","","",""
"image-keyboard-response","40","790234","0.0-3.0-4.0-1.0-0.9","659d779096ebe05ecca2ebce","6662009ae78f21dd82fcd179","66620c1e5f017f31576c0482","1181","","j","","","","","","","","./tasks/HMM-beads/Images/NewTrialBC.png","practice","0","9","0","1","0","1","true","",""
"image-keyboard-response","41","790538","0.0-3.0-4.0-1.0-1.9","659d779096ebe05ecca2ebce","6662009ae78f21dd82fcd179","66620c1e5f017f31576c0482","null","","null","","","","","","","","./tasks/HMM-beads/Images/WhiteBeadChoice.png","","","","","","","","","",""
"image-keyboard-response","42","791042","0.0-3.0-4.0-1.0-2.9","659d779096ebe05ecca2ebce","6662009ae78f21dd82fcd179","66620c1e5f017f31576c0482","null","","null","","","","","","","","./tasks/HMM-beads/Images/WhiteBeadChoiceCorrect.png","","","","","","","","","",""
"image-keyboard-response","43","796936","0.0-3.0-4.0-1.0-0.10","659d779096ebe05ecca2ebce","6662009ae78f21dd82fcd179","66620c1e5f017f31576c0482","5892","","j","","","","","","","","./tasks/HMM-beads/Images/NewTrialWC.png","practice","0","10","0","0","1","1","false","",""
"image-keyboard-response","44","797240","0.0-3.0-4.0-1.0-1.10","659d779096ebe05ecca2ebce","6662009ae78f21dd82fcd179","66620c1e5f017f31576c0482","null","","null","","","","","","","","./tasks/HMM-beads/Images/WhiteBeadChoice.png","","","","","","","","","",""
"image-keyboard-response","45","797744","0.0-3.0-4.0-1.0-2.10","659d779096ebe05ecca2ebce","6662009ae78f21dd82fcd179","66620c1e5f017f31576c0482","null","","null","","","","","","","","./tasks/HMM-beads/Images/WhiteBeadChoiceWrong.png","","","","","","","","","",""
"image-keyboard-response","46","798616","0.0-3.0-4.0-1.0-0.11","659d779096ebe05ecca2ebce","6662009ae78f21dd82fcd179","66620c1e5f017f31576c0482","868","","f","","","","","","","","./tasks/HMM-beads/Images/NewTrialBC.png","practice","0","11","0","1","0","0","false","",""
"image-keyboard-response","47","798935","0.0-3.0-4.0-1.0-1.11","659d779096ebe05ecca2ebce","6662009ae78f21dd82fcd179","66620c1e5f017f31576c0482","null","","null","","","","","","","","./tasks/HMM-beads/Images/BlackBeadChoice.png","","","","","","","","","",""
"image-keyboard-response","48","799440","0.0-3.0-4.0-1.0-2.11","659d779096ebe05ecca2ebce","6662009ae78f21dd82fcd179","66620c1e5f017f31576c0482","null","","null","","","","","","","","./tasks/HMM-beads/Images/BlackBeadChoiceWrong.png","","","","","","","","","",""
"image-keyboard-response","49","799655","0.0-3.0-4.0-1.0-0.12","659d779096ebe05ecca2ebce","6662009ae78f21dd82fcd179","66620c1e5f017f31576c0482","211","","f","","","","","","","","./tasks/HMM-beads/Images/NewTrialWC.png","practice","0","12","0","0","1","0","true","",""
"image-keyboard-response","50","799959","0.0-3.0-4.0-1.0-1.12","659d779096ebe05ecca2ebce","6662009ae78f21dd82fcd179","66620c1e5f017f31576c0482","null","","null","","","","","","","","./tasks/HMM-beads/Images/BlackBeadChoice.png","","","","","","","","","",""
"image-keyboard-response","51","800462","0.0-3.0-4.0-1.0-2.12","659d779096ebe05ecca2ebce","6662009ae78f21dd82fcd179","66620c1e5f017f31576c0482","null","","null","","","","","","","","./tasks/HMM-beads/Images/BlackBeadChoiceCorrect.png","","","","","","","","","",""
"image-keyboard-response","52","800629","0.0-3.0-4.0-1.0-0.13","659d779096ebe05ecca2ebce","6662009ae78f21dd82fcd179","66620c1e5f017f31576c0482","164","","j","","","","","","","","./tasks/HMM-beads/Images/NewTrialBC.png","practice","0","13","0","0","0","1","false","",""
"image-keyboard-response","53","800934","0.0-3.0-4.0-1.0-1.13","659d779096ebe05ecca2ebce","6662009ae78f21dd82fcd179","66620c1e5f017f31576c0482","null","","null","","","","","","","","./tasks/HMM-beads/Images/WhiteBeadChoice.png","","","","","","","","","",""
"image-keyboard-response","54","801443","0.0-3.0-4.0-1.0-2.13","659d779096ebe05ecca2ebce","6662009ae78f21dd82fcd179","66620c1e5f017f31576c0482","null","","null","","","","","","","","./tasks/HMM-beads/Images/WhiteBeadChoiceWrong.png","","","","","","","","","",""
"image-keyboard-response","55","802744","0.0-3.0-4.0-1.0-0.14","659d779096ebe05ecca2ebce","6662009ae78f21dd82fcd179","66620c1e5f017f31576c0482","1297","","j","","","","","","","","./tasks/HMM-beads/Images/NewTrialBC.png","practice","0","14","0","0","0","1","false","",""
"image-keyboard-response","56","803049","0.0-3.0-4.0-1.0-1.14","659d779096ebe05ecca2ebce","6662009ae78f21dd82fcd179","66620c1e5f017f31576c0482","null","","null","","","","","","","","./tasks/HMM-beads/Images/WhiteBeadChoice.png","","","","","","","","","",""
"image-keyboard-response","57","803553","0.0-3.0-4.0-1.0-2.14","659d779096ebe05ecca2ebce","6662009ae78f21dd82fcd179","66620c1e5f017f31576c0482","null","","null","","","","","","","","./tasks/HMM-beads/Images/WhiteBeadChoiceWrong.png","","","","","","","","","",""
"image-keyboard-response","58","804658","0.0-3.0-4.0-1.0-0.15","659d779096ebe05ecca2ebce","6662009ae78f21dd82fcd179","66620c1e5f017f31576c0482","1102","","f","","","","","","","","./tasks/HMM-beads/Images/NewTrialBC.png","practice","0","15","0","0","0","0","true","",""
"image-keyboard-response","59","804963","0.0-3.0-4.0-1.0-1.15","659d779096ebe05ecca2ebce","6662009ae78f21dd82fcd179","66620c1e5f017f31576c0482","null","","null","","","","","","","","./tasks/HMM-beads/Images/BlackBeadChoice.png","","","","","","","","","",""
"image-keyboard-response","60","805478","0.0-3.0-4.0-1.0-2.15","659d779096ebe05ecca2ebce","6662009ae78f21dd82fcd179","66620c1e5f017f31576c0482","null","","null","","","","","","","","./tasks/HMM-beads/Images/BlackBeadChoiceCorrect.png","","","","","","","","","",""
"image-keyboard-response","61","806202","0.0-3.0-4.0-1.0-0.16","659d779096ebe05ecca2ebce","6662009ae78f21dd82fcd179","66620c1e5f017f31576c0482","720","","j","","","","","","","","./tasks/HMM-beads/Images/NewTrialBC.png","practice","0","16","0","0","0","1","false","",""
"image-keyboard-response","62","806506","0.0-3.0-4.0-1.0-1.16","659d779096ebe05ecca2ebce","6662009ae78f21dd82fcd179","66620c1e5f017f31576c0482","null","","null","","","","","","","","./tasks/HMM-beads/Images/WhiteBeadChoice.png","","","","","","","","","",""
"image-keyboard-response","63","807009","0.0-3.0-4.0-1.0-2.16","659d779096ebe05ecca2ebce","6662009ae78f21dd82fcd179","66620c1e5f017f31576c0482","null","","null","","","","","","","","./tasks/HMM-beads/Images/WhiteBeadChoiceWrong.png","","","","","","","","","",""
"image-keyboard-response","64","808513","0.0-3.0-4.0-1.0-0.17","659d779096ebe05ecca2ebce","6662009ae78f21dd82fcd179","66620c1e5f017f31576c0482","1501","","j","","","","","","","","./tasks/HMM-beads/Images/NewTrialBC.png","practice","0","17","0","0","0","1","false","",""
"image-keyboard-response","65","808817","0.0-3.0-4.0-1.0-1.17","659d779096ebe05ecca2ebce","6662009ae78f21dd82fcd179","66620c1e5f017f31576c0482","null","","null","","","","","","","","./tasks/HMM-beads/Images/WhiteBeadChoice.png","","","","","","","","","",""
"image-keyboard-response","66","809321","0.0-3.0-4.0-1.0-2.17","659d779096ebe05ecca2ebce","6662009ae78f21dd82fcd179","66620c1e5f017f31576c0482","null","","null","","","","","","","","./tasks/HMM-beads/Images/WhiteBeadChoiceWrong.png","","","","","","","","","",""
"image-keyboard-response","67","809847","0.0-3.0-4.0-1.0-0.18","659d779096ebe05ecca2ebce","6662009ae78f21dd82fcd179","66620c1e5f017f31576c0482","523","","f","","","","","","","","./tasks/HMM-beads/Images/NewTrialBC.png","practice","0","18","0","1","0","0","false","",""
"image-keyboard-response","68","810151","0.0-3.0-4.0-1.0-1.18","659d779096ebe05ecca2ebce","6662009ae78f21dd82fcd179","66620c1e5f017f31576c0482","null","","null","","","","","","","","./tasks/HMM-beads/Images/BlackBeadChoice.png","","","","","","","","","",""
"image-keyboard-response","69","810655","0.0-3.0-4.0-1.0-2.18","659d779096ebe05ecca2ebce","6662009ae78f21dd82fcd179","66620c1e5f017f31576c0482","null","","null","","","","","","","","./tasks/HMM-beads/Images/BlackBeadChoiceWrong.png","","","","","","","","","",""
"image-keyboard-response","70","810956","0.0-3.0-4.0-1.0-0.19","659d779096ebe05ecca2ebce","6662009ae78f21dd82fcd179","66620c1e5f017f31576c0482","298","","j","","","","","","","","./tasks/HMM-beads/Images/NewTrialWC.png","practice","0","19","0","0","1","1","false","",""
"image-keyboard-response","71","811260","0.0-3.0-4.0-1.0-1.19","659d779096ebe05ecca2ebce","6662009ae78f21dd82fcd179","66620c1e5f017f31576c0482","null","","null","","","","","","","","./tasks/HMM-beads/Images/WhiteBeadChoice.png","","","","","","","","","",""
"image-keyboard-response","72","811763","0.0-3.0-4.0-1.0-2.19","659d779096ebe05ecca2ebce","6662009ae78f21dd82fcd179","66620c1e5f017f31576c0482","null","","null","","","","","","","","./tasks/HMM-beads/Images/WhiteBeadChoiceWrong.png","","","","","","","","","",""
"image-keyboard-response","73","812254","0.0-3.0-4.0-1.0-0.20","659d779096ebe05ecca2ebce","6662009ae78f21dd82fcd179","66620c1e5f017f31576c0482","487","","j","","","","","","","","./tasks/HMM-beads/Images/NewTrialBC.png","practice","0","20","0","0","0","1","false","",""
"image-keyboard-response","74","812559","0.0-3.0-4.0-1.0-1.20","659d779096ebe05ecca2ebce","6662009ae78f21dd82fcd179","66620c1e5f017f31576c0482","null","","null","","","","","","","","./tasks/HMM-beads/Images/WhiteBeadChoice.png","","","","","","","","","",""
"image-keyboard-response","75","813063","0.0-3.0-4.0-1.0-2.20","659d779096ebe05ecca2ebce","6662009ae78f21dd82fcd179","66620c1e5f017f31576c0482","null","","null","","","","","","","","./tasks/HMM-beads/Images/WhiteBeadChoiceWrong.png","","","","","","","","","",""
"image-keyboard-response","76","813305","0.0-3.0-4.0-1.0-0.21","659d779096ebe05ecca2ebce","6662009ae78f21dd82fcd179","66620c1e5f017f31576c0482","239","","j","","","","","","","","./tasks/HMM-beads/Images/NewTrialBC.png","practice","0","21","0","1","0","1","true","",""
"image-keyboard-response","77","813609","0.0-3.0-4.0-1.0-1.21","659d779096ebe05ecca2ebce","6662009ae78f21dd82fcd179","66620c1e5f017f31576c0482","null","","null","","","","","","","","./tasks/HMM-beads/Images/WhiteBeadChoice.png","","","","","","","","","",""
"image-keyboard-response","78","814112","0.0-3.0-4.0-1.0-2.21","659d779096ebe05ecca2ebce","6662009ae78f21dd82fcd179","66620c1e5f017f31576c0482","null","","null","","","","","","","","./tasks/HMM-beads/Images/WhiteBeadChoiceCorrect.png","","","","","","","","","",""
"image-keyboard-response","79","814598","0.0-3.0-4.0-1.0-0.22","659d779096ebe05ecca2ebce","6662009ae78f21dd82fcd179","66620c1e5f017f31576c0482","483","","j","","","","","","","","./tasks/HMM-beads/Images/NewTrialWC.png","practice","0","22","1","1","1","1","true","",""
"image-keyboard-response","80","814903","0.0-3.0-4.0-1.0-1.22","659d779096ebe05ecca2ebce","6662009ae78f21dd82fcd179","66620c1e5f017f31576c0482","null","","null","","","","","","","","./tasks/HMM-beads/Images/WhiteBeadChoice.png","","","","","","","","","",""
"image-keyboard-response","81","815406","0.0-3.0-4.0-1.0-2.22","659d779096ebe05ecca2ebce","6662009ae78f21dd82fcd179","66620c1e5f017f31576c0482","null","","null","","","","","","","","./tasks/HMM-beads/Images/WhiteBeadChoiceCorrect.png","","","","","","","","","",""
"image-keyboard-response","82","826531","0.0-3.0-4.0-1.0-0.23","659d779096ebe05ecca2ebce","6662009ae78f21dd82fcd179","66620c1e5f017f31576c0482","11122","","j","","","","","","","","./tasks/HMM-beads/Images/NewTrialWC.png","practice","0","23","1","0","1","1","false","",""
"image-keyboard-response","83","826834","0.0-3.0-4.0-1.0-1.23","659d779096ebe05ecca2ebce","6662009ae78f21dd82fcd179","66620c1e5f017f31576c0482","null","","null","","","","","","","","./tasks/HMM-beads/Images/WhiteBeadChoice.png","","","","","","","","","",""
"image-keyboard-response","84","827339","0.0-3.0-4.0-1.0-2.23","659d779096ebe05ecca2ebce","6662009ae78f21dd82fcd179","66620c1e5f017f31576c0482","null","","null","","","","","","","","./tasks/HMM-beads/Images/WhiteBeadChoiceWrong.png","","","","","","","","","",""
"image-keyboard-response","85","828973","0.0-3.0-4.0-1.0-0.24","659d779096ebe05ecca2ebce","6662009ae78f21dd82fcd179","66620c1e5f017f31576c0482","1632","","f","","","","","","","","./tasks/HMM-beads/Images/NewTrialBC.png","practice","0","24","1","1","0","0","false","",""
"image-keyboard-response","86","829291","0.0-3.0-4.0-1.0-1.24","659d779096ebe05ecca2ebce","6662009ae78f21dd82fcd179","66620c1e5f017f31576c0482","null","","null","","","","","","","","./tasks/HMM-beads/Images/BlackBeadChoice.png","","","","","","","","","",""
"image-keyboard-response","87","829794","0.0-3.0-4.0-1.0-2.24","659d779096ebe05ecca2ebce","6662009ae78f21dd82fcd179","66620c1e5f017f31576c0482","null","","null","","","","","","","","./tasks/HMM-beads/Images/BlackBeadChoiceWrong.png","","","","","","","","","",""
"image-keyboard-response","88","830143","0.0-3.0-4.0-1.0-0.25","659d779096ebe05ecca2ebce","6662009ae78f21dd82fcd179","66620c1e5f017f31576c0482","345","","j","","","","","","","","./tasks/HMM-beads/Images/NewTrialWC.png","practice","0","25","1","1","1","1","true","",""
"image-keyboard-response","89","830447","0.0-3.0-4.0-1.0-1.25","659d779096ebe05ecca2ebce","6662009ae78f21dd82fcd179","66620c1e5f017f31576c0482","null","","null","","","","","","","","./tasks/HMM-beads/Images/WhiteBeadChoice.png","","","","","","","","","",""
"image-keyboard-response","90","830952","0.0-3.0-4.0-1.0-2.25","659d779096ebe05ecca2ebce","6662009ae78f21dd82fcd179","66620c1e5f017f31576c0482","null","","null","","","","","","","","./tasks/HMM-beads/Images/WhiteBeadChoiceCorrect.png","","","","","","","","","",""
"image-keyboard-response","91","831057","0.0-3.0-4.0-1.0-0.26","659d779096ebe05ecca2ebce","6662009ae78f21dd82fcd179","66620c1e5f017f31576c0482","101","","j","","","","","","","","./tasks/HMM-beads/Images/NewTrialWC.png","practice","0","26","1","1","1","1","true","",""
"image-keyboard-response","92","831360","0.0-3.0-4.0-1.0-1.26","659d779096ebe05ecca2ebce","6662009ae78f21dd82fcd179","66620c1e5f017f31576c0482","null","","null","","","","","","","","./tasks/HMM-beads/Images/WhiteBeadChoice.png","","","","","","","","","",""
"image-keyboard-response","93","831864","0.0-3.0-4.0-1.0-2.26","659d779096ebe05ecca2ebce","6662009ae78f21dd82fcd179","66620c1e5f017f31576c0482","null","","null","","","","","","","","./tasks/HMM-beads/Images/WhiteBeadChoiceCorrect.png","","","","","","","","","",""
"image-keyboard-response","94","832441","0.0-3.0-4.0-1.0-0.27","659d779096ebe05ecca2ebce","6662009ae78f21dd82fcd179","66620c1e5f017f31576c0482","574","","j","","","","","","","","./tasks/HMM-beads/Images/NewTrialWC.png","practice","0","27","1","1","1","1","true","",""
"image-keyboard-response","95","832746","0.0-3.0-4.0-1.0-1.27","659d779096ebe05ecca2ebce","6662009ae78f21dd82fcd179","66620c1e5f017f31576c0482","null","","null","","","","","","","","./tasks/HMM-beads/Images/WhiteBeadChoice.png","","","","","","","","","",""
"image-keyboard-response","96","833249","0.0-3.0-4.0-1.0-2.27","659d779096ebe05ecca2ebce","6662009ae78f21dd82fcd179","66620c1e5f017f31576c0482","null","","null","","","","","","","","./tasks/HMM-beads/Images/WhiteBeadChoiceCorrect.png","","","","","","","","","",""
"image-keyboard-response","97","834354","0.0-3.0-4.0-1.0-0.28","659d779096ebe05ecca2ebce","6662009ae78f21dd82fcd179","66620c1e5f017f31576c0482","1102","","j","","","","","","","","./tasks/HMM-beads/Images/NewTrialWC.png","practice","0","28","1","0","1","1","false","",""
"image-keyboard-response","98","834657","0.0-3.0-4.0-1.0-1.28","659d779096ebe05ecca2ebce","6662009ae78f21dd82fcd179","66620c1e5f017f31576c0482","null","","null","","","","","","","","./tasks/HMM-beads/Images/WhiteBeadChoice.png","","","","","","","","","",""
"image-keyboard-response","99","835175","0.0-3.0-4.0-1.0-2.28","659d779096ebe05ecca2ebce","6662009ae78f21dd82fcd179","66620c1e5f017f31576c0482","null","","null","","","","","","","","./tasks/HMM-beads/Images/WhiteBeadChoiceWrong.png","","","","","","","","","",""
"image-keyboard-response","100","836162","0.0-3.0-4.0-1.0-0.29","659d779096ebe05ecca2ebce","6662009ae78f21dd82fcd179","66620c1e5f017f31576c0482","984","","f","","","","","","","","./tasks/HMM-beads/Images/NewTrialBC.png","practice","0","29","1","1","0","0","false","",""
"image-keyboard-response","101","836465","0.0-3.0-4.0-1.0-1.29","659d779096ebe05ecca2ebce","6662009ae78f21dd82fcd179","66620c1e5f017f31576c0482","null","","null","","","","","","","","./tasks/HMM-beads/Images/BlackBeadChoice.png","","","","","","","","","",""
"image-keyboard-response","102","836969","0.0-3.0-4.0-1.0-2.29","659d779096ebe05ecca2ebce","6662009ae78f21dd82fcd179","66620c1e5f017f31576c0482","null","","null","","","","","","","","./tasks/HMM-beads/Images/BlackBeadChoiceWrong.png","","","","","","","","","",""
"image-keyboard-response","103","837191","0.0-3.0-4.0-1.0-0.30","659d779096ebe05ecca2ebce","6662009ae78f21dd82fcd179","66620c1e5f017f31576c0482","218","","j","","","","","","","","./tasks/HMM-beads/Images/NewTrialWC.png","practice","0","30","1","0","1","1","false","",""
"image-keyboard-response","104","837494","0.0-3.0-4.0-1.0-1.30","659d779096ebe05ecca2ebce","6662009ae78f21dd82fcd179","66620c1e5f017f31576c0482","null","","null","","","","","","","","./tasks/HMM-beads/Images/WhiteBeadChoice.png","","","","","","","","","",""
"image-keyboard-response","105","837998","0.0-3.0-4.0-1.0-2.30","659d779096ebe05ecca2ebce","6662009ae78f21dd82fcd179","66620c1e5f017f31576c0482","null","","null","","","","","","","","./tasks/HMM-beads/Images/WhiteBeadChoiceWrong.png","","","","","","","","","",""
"image-keyboard-response","106","838587","0.0-3.0-4.0-1.0-0.31","659d779096ebe05ecca2ebce","6662009ae78f21dd82fcd179","66620c1e5f017f31576c0482","587","","f","","","","","","","","./tasks/HMM-beads/Images/NewTrialBC.png","practice","0","31","1","1","0","0","false","",""
"image-keyboard-response","107","838891","0.0-3.0-4.0-1.0-1.31","659d779096ebe05ecca2ebce","6662009ae78f21dd82fcd179","66620c1e5f017f31576c0482","null","","null","","","","","","","","./tasks/HMM-beads/Images/BlackBeadChoice.png","","","","","","","","","",""
"image-keyboard-response","108","839396","0.0-3.0-4.0-1.0-2.31","659d779096ebe05ecca2ebce","6662009ae78f21dd82fcd179","66620c1e5f017f31576c0482","null","","null","","","","","","","","./tasks/HMM-beads/Images/BlackBeadChoiceWrong.png","","","","","","","","","",""
"image-keyboard-response","109","839558","0.0-3.0-4.0-1.0-0.32","659d779096ebe05ecca2ebce","6662009ae78f21dd82fcd179","66620c1e5f017f31576c0482","159","","j","","","","","","","","./tasks/HMM-beads/Images/NewTrialWC.png","practice","0","32","1","1","1","1","true","",""
"image-keyboard-response","110","839863","0.0-3.0-4.0-1.0-1.32","659d779096ebe05ecca2ebce","6662009ae78f21dd82fcd179","66620c1e5f017f31576c0482","null","","null","","","","","","","","./tasks/HMM-beads/Images/WhiteBeadChoice.png","","","","","","","","","",""
"image-keyboard-response","111","840366","0.0-3.0-4.0-1.0-2.32","659d779096ebe05ecca2ebce","6662009ae78f21dd82fcd179","66620c1e5f017f31576c0482","null","","null","","","","","","","","./tasks/HMM-beads/Images/WhiteBeadChoiceCorrect.png","","","","","","","","","",""
"image-keyboard-response","112","841497","0.0-3.0-4.0-1.0-0.33","659d779096ebe05ecca2ebce","6662009ae78f21dd82fcd179","66620c1e5f017f31576c0482","1127","","f","","","","","","","","./tasks/HMM-beads/Images/NewTrialWC.png","practice","0","33","1","1","1","0","false","",""
"image-keyboard-response","113","841800","0.0-3.0-4.0-1.0-1.33","659d779096ebe05ecca2ebce","6662009ae78f21dd82fcd179","66620c1e5f017f31576c0482","null","","null","","","","","","","","./tasks/HMM-beads/Images/BlackBeadChoice.png","","","","","","","","","",""
"image-keyboard-response","114","842304","0.0-3.0-4.0-1.0-2.33","659d779096ebe05ecca2ebce","6662009ae78f21dd82fcd179","66620c1e5f017f31576c0482","null","","null","","","","","","","","./tasks/HMM-beads/Images/BlackBeadChoiceWrong.png","","","","","","","","","",""
"image-keyboard-response","115","842705","0.0-3.0-4.0-1.0-0.34","659d779096ebe05ecca2ebce","6662009ae78f21dd82fcd179","66620c1e5f017f31576c0482","398","","j","","","","","","","","./tasks/HMM-beads/Images/NewTrialWC.png","practice","0","34","1","1","1","1","true","",""
"image-keyboard-response","116","843008","0.0-3.0-4.0-1.0-1.34","659d779096ebe05ecca2ebce","6662009ae78f21dd82fcd179","66620c1e5f017f31576c0482","null","","null","","","","","","","","./tasks/HMM-beads/Images/WhiteBeadChoice.png","","","","","","","","","",""
"image-keyboard-response","117","843512","0.0-3.0-4.0-1.0-2.34","659d779096ebe05ecca2ebce","6662009ae78f21dd82fcd179","66620c1e5f017f31576c0482","null","","null","","","","","","","","./tasks/HMM-beads/Images/WhiteBeadChoiceCorrect.png","","","","","","","","","",""
"image-keyboard-response","118","844114","0.0-3.0-4.0-1.0-0.35","659d779096ebe05ecca2ebce","6662009ae78f21dd82fcd179","66620c1e5f017f31576c0482","599","","j","","","","","","","","./tasks/HMM-beads/Images/NewTrialWC.png","practice","0","35","1","1","1","1","true","",""
"image-keyboard-response","119","844418","0.0-3.0-4.0-1.0-1.35","659d779096ebe05ecca2ebce","6662009ae78f21dd82fcd179","66620c1e5f017f31576c0482","null","","null","","","","","","","","./tasks/HMM-beads/Images/WhiteBeadChoice.png","","","","","","","","","",""
"image-keyboard-response","120","844922","0.0-3.0-4.0-1.0-2.35","659d779096ebe05ecca2ebce","6662009ae78f21dd82fcd179","66620c1e5f017f31576c0482","null","","null","","","","","","","","./tasks/HMM-beads/Images/WhiteBeadChoiceCorrect.png","","","","","","","","","",""
"image-keyboard-response","121","847513","0.0-3.0-4.0-1.0-0.36","659d779096ebe05ecca2ebce","6662009ae78f21dd82fcd179","66620c1e5f017f31576c0482","2588","","j","","","","","","","","./tasks/HMM-beads/Images/NewTrialWC.png","practice","0","36","1","0","1","1","false","",""
"image-keyboard-response","122","847817","0.0-3.0-4.0-1.0-1.36","659d779096ebe05ecca2ebce","6662009ae78f21dd82fcd179","66620c1e5f017f31576c0482","null","","null","","","","","","","","./tasks/HMM-beads/Images/WhiteBeadChoice.png","","","","","","","","","",""
"image-keyboard-response","123","848322","0.0-3.0-4.0-1.0-2.36","659d779096ebe05ecca2ebce","6662009ae78f21dd82fcd179","66620c1e5f017f31576c0482","null","","null","","","","","","","","./tasks/HMM-beads/Images/WhiteBeadChoiceWrong.png","","","","","","","","","",""
"image-keyboard-response","124","849126","0.0-3.0-4.0-1.0-0.37","659d779096ebe05ecca2ebce","6662009ae78f21dd82fcd179","66620c1e5f017f31576c0482","801","","f","","","","","","","","./tasks/HMM-beads/Images/NewTrialBC.png","practice","0","37","1","1","0","0","false","",""
"image-keyboard-response","125","849441","0.0-3.0-4.0-1.0-1.37","659d779096ebe05ecca2ebce","6662009ae78f21dd82fcd179","66620c1e5f017f31576c0482","null","","null","","","","","","","","./tasks/HMM-beads/Images/BlackBeadChoice.png","","","","","","","","","",""
"image-keyboard-response","126","849946","0.0-3.0-4.0-1.0-2.37","659d779096ebe05ecca2ebce","6662009ae78f21dd82fcd179","66620c1e5f017f31576c0482","null","","null","","","","","","","","./tasks/HMM-beads/Images/BlackBeadChoiceWrong.png","","","","","","","","","",""
"image-keyboard-response","127","850030","0.0-3.0-4.0-1.0-0.38","659d779096ebe05ecca2ebce","6662009ae78f21dd82fcd179","66620c1e5f017f31576c0482","81","","f","","","","","","","","./tasks/HMM-beads/Images/NewTrialWC.png","practice","0","38","1","1","1","0","false","",""
"image-keyboard-response","128","850334","0.0-3.0-4.0-1.0-1.38","659d779096ebe05ecca2ebce","6662009ae78f21dd82fcd179","66620c1e5f017f31576c0482","null","","null","","","","","","","","./tasks/HMM-beads/Images/BlackBeadChoice.png","","","","","","","","","",""
"image-keyboard-response","129","850838","0.0-3.0-4.0-1.0-2.38","659d779096ebe05ecca2ebce","6662009ae78f21dd82fcd179","66620c1e5f017f31576c0482","null","","null","","","","","","","","./tasks/HMM-beads/Images/BlackBeadChoiceWrong.png","","","","","","","","","",""
"image-keyboard-response","130","851739","0.0-3.0-4.0-1.0-0.39","659d779096ebe05ecca2ebce","6662009ae78f21dd82fcd179","66620c1e5f017f31576c0482","898","","j","","","","","","","","./tasks/HMM-beads/Images/NewTrialWC.png","practice","0","39","1","1","1","1","true","",""
"image-keyboard-response","131","852043","0.0-3.0-4.0-1.0-1.39","659d779096ebe05ecca2ebce","6662009ae78f21dd82fcd179","66620c1e5f017f31576c0482","null","","null","","","","","","","","./tasks/HMM-beads/Images/WhiteBeadChoice.png","","","","","","","","","",""
"image-keyboard-response","132","852547","0.0-3.0-4.0-1.0-2.39","659d779096ebe05ecca2ebce","6662009ae78f21dd82fcd179","66620c1e5f017f31576c0482","null","","null","","","","","","","","./tasks/HMM-beads/Images/WhiteBeadChoiceCorrect.png","","","","","","","","","",""
"html-keyboard-response","133","860163","0.0-3.0-4.0-2.0","659d779096ebe05ecca2ebce","6662009ae78f21dd82fcd179","66620c1e5f017f31576c0482","7612",""," ","","","","","","","","","","","","","","","","","",""
"instructions","134","874225","0.0-3.0-5.0","659d779096ebe05ecca2ebce","6662009ae78f21dd82fcd179","66620c1e5f017f31576c0482","14060","","","","[{""page_index"":0,""viewing_time"":7379},{""page_index"":1,""viewing_time"":6680}]","","","","","","","","","","","","","","","",""
"html-keyboard-response","135","882000","0.0-3.0-6.0-0.0","659d779096ebe05ecca2ebce","6662009ae78f21dd82fcd179","66620c1e5f017f31576c0482","7772",""," ","","","","","","","","<div align=center>In this block, there will be a <b>1% chance</b> that the jar on the next trial will be different from the jar on the current trial.<br><br></div>","","","","","","","","","",""
"image-keyboard-response","136","889116","0.0-3.0-6.0-1.0-0.0","659d779096ebe05ecca2ebce","6662009ae78f21dd82fcd179","66620c1e5f017f31576c0482","7113","","j","","","","","","","","./tasks/HMM-beads/Images/NoChoice.png","lowH","1","0","1","0","9","1","false","",""
"image-keyboard-response","137","889422","0.0-3.0-6.0-1.0-1.0","659d779096ebe05ecca2ebce","6662009ae78f21dd82fcd179","66620c1e5f017f31576c0482","null","","null","","","","","","","","./tasks/HMM-beads/Images/WhiteBeadChoice.png","","","","","","","","","",""
"image-keyboard-response","138","889925","0.0-3.0-6.0-1.0-2.0","659d779096ebe05ecca2ebce","6662009ae78f21dd82fcd179","66620c1e5f017f31576c0482","null","","null","","","","","","","","./tasks/HMM-beads/Images/WhiteBeadChoiceWrong.png","","","","","","","","","",""
"image-keyboard-response","139","890494","0.0-3.0-6.0-1.0-0.1","659d779096ebe05ecca2ebce","6662009ae78f21dd82fcd179","66620c1e5f017f31576c0482","566","","j","","","","","","","","./tasks/HMM-beads/Images/NewTrialBC.png","lowH","1","1","1","1","0","1","true","",""
"image-keyboard-response","140","890798","0.0-3.0-6.0-1.0-1.1","659d779096ebe05ecca2ebce","6662009ae78f21dd82fcd179","66620c1e5f017f31576c0482","null","","null","","","","","","","","./tasks/HMM-beads/Images/WhiteBeadChoice.png","","","","","","","","","",""
"image-keyboard-response","141","891315","0.0-3.0-6.0-1.0-2.1","659d779096ebe05ecca2ebce","6662009ae78f21dd82fcd179","66620c1e5f017f31576c0482","null","","null","","","","","","","","./tasks/HMM-beads/Images/WhiteBeadChoiceCorrect.png","","","","","","","","","",""
"image-keyboard-response","142","891961","0.0-3.0-6.0-1.0-0.2","659d779096ebe05ecca2ebce","6662009ae78f21dd82fcd179","66620c1e5f017f31576c0482","642","","j","","","","","","","","./tasks/HMM-beads/Images/NewTrialWC.png","lowH","1","2","1","1","1","1","true","",""
"image-keyboard-response","143","892265","0.0-3.0-6.0-1.0-1.2","659d779096ebe05ecca2ebce","6662009ae78f21dd82fcd179","66620c1e5f017f31576c0482","null","","null","","","","","","","","./tasks/HMM-beads/Images/WhiteBeadChoice.png","","","","","","","","","",""
"image-keyboard-response","144","892768","0.0-3.0-6.0-1.0-2.2","659d779096ebe05ecca2ebce","6662009ae78f21dd82fcd179","66620c1e5f017f31576c0482","null","","null","","","","","","","","./tasks/HMM-beads/Images/WhiteBeadChoiceCorrect.png","","","","","","","","","",""
"image-keyboard-response","145","893730","0.0-3.0-6.0-1.0-0.3","659d779096ebe05ecca2ebce","6662009ae78f21dd82fcd179","66620c1e5f017f31576c0482","960","","f","","","","","","","","./tasks/HMM-beads/Images/NewTrialWC.png","lowH","1","3","1","1","1","0","false","",""
"image-keyboard-response","146","894033","0.0-3.0-6.0-1.0-1.3","659d779096ebe05ecca2ebce","6662009ae78f21dd82fcd179","66620c1e5f017f31576c0482","null","","null","","","","","","","","./tasks/HMM-beads/Images/BlackBeadChoice.png","","","","","","","","","",""
"image-keyboard-response","147","894536","0.0-3.0-6.0-1.0-2.3","659d779096ebe05ecca2ebce","6662009ae78f21dd82fcd179","66620c1e5f017f31576c0482","null","","null","","","","","","","","./tasks/HMM-beads/Images/BlackBeadChoiceWrong.png","","","","","","","","","",""
"image-keyboard-response","148","895187","0.0-3.0-6.0-1.0-0.4","659d779096ebe05ecca2ebce","6662009ae78f21dd82fcd179","66620c1e5f017f31576c0482","649","","f","","","","","","","","./tasks/HMM-beads/Images/NewTrialWC.png","lowH","1","4","1","1","1","0","false","",""
"image-keyboard-response","149","895491","0.0-3.0-6.0-1.0-1.4","659d779096ebe05ecca2ebce","6662009ae78f21dd82fcd179","66620c1e5f017f31576c0482","null","","null","","","","","","","","./tasks/HMM-beads/Images/BlackBeadChoice.png","","","","","","","","","",""
"image-keyboard-response","150","895997","0.0-3.0-6.0-1.0-2.4","659d779096ebe05ecca2ebce","6662009ae78f21dd82fcd179","66620c1e5f017f31576c0482","null","","null","","","","","","","","./tasks/HMM-beads/Images/BlackBeadChoiceWrong.png","","","","","","","","","",""
"image-keyboard-response","151","897842","0.0-3.0-6.0-1.0-0.5","659d779096ebe05ecca2ebce","6662009ae78f21dd82fcd179","66620c1e5f017f31576c0482","1843","","j","","","","","","","","./tasks/HMM-beads/Images/NewTrialWC.png","lowH","1","5","1","1","1","1","true","",""
"image-keyboard-response","152","898146","0.0-3.0-6.0-1.0-1.5","659d779096ebe05ecca2ebce","6662009ae78f21dd82fcd179","66620c1e5f017f31576c0482","null","","null","","","","","","","","./tasks/HMM-beads/Images/WhiteBeadChoice.png","","","","","","","","","",""
"image-keyboard-response","153","898650","0.0-3.0-6.0-1.0-2.5","659d779096ebe05ecca2ebce","6662009ae78f21dd82fcd179","66620c1e5f017f31576c0482","null","","null","","","","","","","","./tasks/HMM-beads/Images/WhiteBeadChoiceCorrect.png","","","","","","","","","",""
"image-keyboard-response","154","899909","0.0-3.0-6.0-1.0-0.6","659d779096ebe05ecca2ebce","6662009ae78f21dd82fcd179","66620c1e5f017f31576c0482","1256","","f","","","","","","","","./tasks/HMM-beads/Images/NewTrialWC.png","lowH","1","6","1","0","1","0","true","",""
"image-keyboard-response","155","900214","0.0-3.0-6.0-1.0-1.6","659d779096ebe05ecca2ebce","6662009ae78f21dd82fcd179","66620c1e5f017f31576c0482","null","","null","","","","","","","","./tasks/HMM-beads/Images/BlackBeadChoice.png","","","","","","","","","",""
"image-keyboard-response","156","900718","0.0-3.0-6.0-1.0-2.6","659d779096ebe05ecca2ebce","6662009ae78f21dd82fcd179","66620c1e5f017f31576c0482","null","","null","","","","","","","","./tasks/HMM-beads/Images/BlackBeadChoiceCorrect.png","","","","","","","","","",""
"image-keyboard-response","157","901110","0.0-3.0-6.0-1.0-0.7","659d779096ebe05ecca2ebce","6662009ae78f21dd82fcd179","66620c1e5f017f31576c0482","390","","f","","","","","","","","./tasks/HMM-beads/Images/NewTrialBC.png","lowH","1","7","1","1","0","0","false","",""
"image-keyboard-response","158","901415","0.0-3.0-6.0-1.0-1.7","659d779096ebe05ecca2ebce","6662009ae78f21dd82fcd179","66620c1e5f017f31576c0482","null","","null","","","","","","","","./tasks/HMM-beads/Images/BlackBeadChoice.png","","","","","","","","","",""
"image-keyboard-response","159","901919","0.0-3.0-6.0-1.0-2.7","659d779096ebe05ecca2ebce","6662009ae78f21dd82fcd179","66620c1e5f017f31576c0482","null","","null","","","","","","","","./tasks/HMM-beads/Images/BlackBeadChoiceWrong.png","","","","","","","","","",""
"image-keyboard-response","160","902105","0.0-3.0-6.0-1.0-0.8","659d779096ebe05ecca2ebce","6662009ae78f21dd82fcd179","66620c1e5f017f31576c0482","183","","f","","","","","","","","./tasks/HMM-beads/Images/NewTrialWC.png","lowH","1","8","1","1","1","0","false","",""
"image-keyboard-response","161","902408","0.0-3.0-6.0-1.0-1.8","659d779096ebe05ecca2ebce","6662009ae78f21dd82fcd179","66620c1e5f017f31576c0482","null","","null","","","","","","","","./tasks/HMM-beads/Images/BlackBeadChoice.png","","","","","","","","","",""
"image-keyboard-response","162","902912","0.0-3.0-6.0-1.0-2.8","659d779096ebe05ecca2ebce","6662009ae78f21dd82fcd179","66620c1e5f017f31576c0482","null","","null","","","","","","","","./tasks/HMM-beads/Images/BlackBeadChoiceWrong.png","","","","","","","","","",""
"image-keyboard-response","163","903518","0.0-3.0-6.0-1.0-0.9","659d779096ebe05ecca2ebce","6662009ae78f21dd82fcd179","66620c1e5f017f31576c0482","603","","j","","","","","","","","./tasks/HMM-beads/Images/NewTrialWC.png","lowH","1","9","1","1","1","1","true","",""
"image-keyboard-response","164","903821","0.0-3.0-6.0-1.0-1.9","659d779096ebe05ecca2ebce","6662009ae78f21dd82fcd179","66620c1e5f017f31576c0482","null","","null","","","","","","","","./tasks/HMM-beads/Images/WhiteBeadChoice.png","","","","","","","","","",""
"image-keyboard-response","165","904326","0.0-3.0-6.0-1.0-2.9","659d779096ebe05ecca2ebce","6662009ae78f21dd82fcd179","66620c1e5f017f31576c0482","null","","null","","","","","","","","./tasks/HMM-beads/Images/WhiteBeadChoiceCorrect.png","","","","","","","","","",""
"image-keyboard-response","166","905473","0.0-3.0-6.0-1.0-0.10","659d779096ebe05ecca2ebce","6662009ae78f21dd82fcd179","66620c1e5f017f31576c0482","1145","","j","","","","","","","","./tasks/HMM-beads/Images/NewTrialWC.png","lowH","1","10","1","1","1","1","true","",""
"image-keyboard-response","167","905794","0.0-3.0-6.0-1.0-1.10","659d779096ebe05ecca2ebce","6662009ae78f21dd82fcd179","66620c1e5f017f31576c0482","null","","null","","","","","","","","./tasks/HMM-beads/Images/WhiteBeadChoice.png","","","","","","","","","",""
"image-keyboard-response","168","906298","0.0-3.0-6.0-1.0-2.10","659d779096ebe05ecca2ebce","6662009ae78f21dd82fcd179","66620c1e5f017f31576c0482","null","","null","","","","","","","","./tasks/HMM-beads/Images/WhiteBeadChoiceCorrect.png","","","","","","","","","",""
"image-keyboard-response","169","906307","0.0-3.0-6.0-1.0-0.11","659d779096ebe05ecca2ebce","6662009ae78f21dd82fcd179","66620c1e5f017f31576c0482","6","","j","","","","","","","","./tasks/HMM-beads/Images/NewTrialWC.png","lowH","1","11","1","1","1","1","true","",""
"image-keyboard-response","170","906611","0.0-3.0-6.0-1.0-1.11","659d779096ebe05ecca2ebce","6662009ae78f21dd82fcd179","66620c1e5f017f31576c0482","null","","null","","","","","","","","./tasks/HMM-beads/Images/WhiteBeadChoice.png","","","","","","","","","",""
"image-keyboard-response","171","907114","0.0-3.0-6.0-1.0-2.11","659d779096ebe05ecca2ebce","6662009ae78f21dd82fcd179","66620c1e5f017f31576c0482","null","","null","","","","","","","","./tasks/HMM-beads/Images/WhiteBeadChoiceCorrect.png","","","","","","","","","",""
"image-keyboard-response","172","908334","0.0-3.0-6.0-1.0-0.12","659d779096ebe05ecca2ebce","6662009ae78f21dd82fcd179","66620c1e5f017f31576c0482","1217","","f","","","","","","","","./tasks/HMM-beads/Images/NewTrialWC.png","lowH","1","12","1","1","1","0","false","",""
"image-keyboard-response","173","908639","0.0-3.0-6.0-1.0-1.12","659d779096ebe05ecca2ebce","6662009ae78f21dd82fcd179","66620c1e5f017f31576c0482","null","","null","","","","","","","","./tasks/HMM-beads/Images/BlackBeadChoice.png","","","","","","","","","",""
"image-keyboard-response","174","909142","0.0-3.0-6.0-1.0-2.12","659d779096ebe05ecca2ebce","6662009ae78f21dd82fcd179","66620c1e5f017f31576c0482","null","","null","","","","","","","","./tasks/HMM-beads/Images/BlackBeadChoiceWrong.png","","","","","","","","","",""
"image-keyboard-response","175","909888","0.0-3.0-6.0-1.0-0.13","659d779096ebe05ecca2ebce","6662009ae78f21dd82fcd179","66620c1e5f017f31576c0482","743","","f","","","","","","","","./tasks/HMM-beads/Images/NewTrialWC.png","lowH","1","13","1","0","1","0","true","",""
"image-keyboard-response","176","910192","0.0-3.0-6.0-1.0-1.13","659d779096ebe05ecca2ebce","6662009ae78f21dd82fcd179","66620c1e5f017f31576c0482","null","","null","","","","","","","","./tasks/HMM-beads/Images/BlackBeadChoice.png","","","","","","","","","",""
"image-keyboard-response","177","910695","0.0-3.0-6.0-1.0-2.13","659d779096ebe05ecca2ebce","6662009ae78f21dd82fcd179","66620c1e5f017f31576c0482","null","","null","","","","","","","","./tasks/HMM-beads/Images/BlackBeadChoiceCorrect.png","","","","","","","","","",""
"image-keyboard-response","178","911382","0.0-3.0-6.0-1.0-0.14","659d779096ebe05ecca2ebce","6662009ae78f21dd82fcd179","66620c1e5f017f31576c0482","684","","f","","","","","","","","./tasks/HMM-beads/Images/NewTrialBC.png","lowH","1","14","1","0","0","0","true","",""
"image-keyboard-response","179","911686","0.0-3.0-6.0-1.0-1.14","659d779096ebe05ecca2ebce","6662009ae78f21dd82fcd179","66620c1e5f017f31576c0482","null","","null","","","","","","","","./tasks/HMM-beads/Images/BlackBeadChoice.png","","","","","","","","","",""
"image-keyboard-response","180","912201","0.0-3.0-6.0-1.0-2.14","659d779096ebe05ecca2ebce","6662009ae78f21dd82fcd179","66620c1e5f017f31576c0482","null","","null","","","","","","","","./tasks/HMM-beads/Images/BlackBeadChoiceCorrect.png","","","","","","","","","",""
"image-keyboard-response","181","912781","0.0-3.0-6.0-1.0-0.15","659d779096ebe05ecca2ebce","6662009ae78f21dd82fcd179","66620c1e5f017f31576c0482","576","","f","","","","","","","","./tasks/HMM-beads/Images/NewTrialBC.png","lowH","1","15","1","1","0","0","false","",""
"image-keyboard-response","182","913085","0.0-3.0-6.0-1.0-1.15","659d779096ebe05ecca2ebce","6662009ae78f21dd82fcd179","66620c1e5f017f31576c0482","null","","null","","","","","","","","./tasks/HMM-beads/Images/BlackBeadChoice.png","","","","","","","","","",""
"image-keyboard-response","183","913589","0.0-3.0-6.0-1.0-2.15","659d779096ebe05ecca2ebce","6662009ae78f21dd82fcd179","66620c1e5f017f31576c0482","null","","null","","","","","","","","./tasks/HMM-beads/Images/BlackBeadChoiceWrong.png","","","","","","","","","",""
"image-keyboard-response","184","914134","0.0-3.0-6.0-1.0-0.16","659d779096ebe05ecca2ebce","6662009ae78f21dd82fcd179","66620c1e5f017f31576c0482","543","","f","","","","","","","","./tasks/HMM-beads/Images/NewTrialWC.png","lowH","1","16","1","1","1","0","false","",""
"image-keyboard-response","185","914438","0.0-3.0-6.0-1.0-1.16","659d779096ebe05ecca2ebce","6662009ae78f21dd82fcd179","66620c1e5f017f31576c0482","null","","null","","","","","","","","./tasks/HMM-beads/Images/BlackBeadChoice.png","","","","","","","","","",""
"image-keyboard-response","186","914942","0.0-3.0-6.0-1.0-2.16","659d779096ebe05ecca2ebce","6662009ae78f21dd82fcd179","66620c1e5f017f31576c0482","null","","null","","","","","","","","./tasks/HMM-beads/Images/BlackBeadChoiceWrong.png","","","","","","","","","",""
"image-keyboard-response","187","915053","0.0-3.0-6.0-1.0-0.17","659d779096ebe05ecca2ebce","6662009ae78f21dd82fcd179","66620c1e5f017f31576c0482","108","","f","","","","","","","","./tasks/HMM-beads/Images/NewTrialWC.png","lowH","1","17","1","1","1","0","false","",""
"image-keyboard-response","188","915356","0.0-3.0-6.0-1.0-1.17","659d779096ebe05ecca2ebce","6662009ae78f21dd82fcd179","66620c1e5f017f31576c0482","null","","null","","","","","","","","./tasks/HMM-beads/Images/BlackBeadChoice.png","","","","","","","","","",""
"image-keyboard-response","189","915859","0.0-3.0-6.0-1.0-2.17","659d779096ebe05ecca2ebce","6662009ae78f21dd82fcd179","66620c1e5f017f31576c0482","null","","null","","","","","","","","./tasks/HMM-beads/Images/BlackBeadChoiceWrong.png","","","","","","","","","",""
"image-keyboard-response","190","916597","0.0-3.0-6.0-1.0-0.18","659d779096ebe05ecca2ebce","6662009ae78f21dd82fcd179","66620c1e5f017f31576c0482","735","","f","","","","","","","","./tasks/HMM-beads/Images/NewTrialWC.png","lowH","1","18","1","1","1","0","false","",""
"image-keyboard-response","191","916901","0.0-3.0-6.0-1.0-1.18","659d779096ebe05ecca2ebce","6662009ae78f21dd82fcd179","66620c1e5f017f31576c0482","null","","null","","","","","","","","./tasks/HMM-beads/Images/BlackBeadChoice.png","","","","","","","","","",""
"image-keyboard-response","192","917404","0.0-3.0-6.0-1.0-2.18","659d779096ebe05ecca2ebce","6662009ae78f21dd82fcd179","66620c1e5f017f31576c0482","null","","null","","","","","","","","./tasks/HMM-beads/Images/BlackBeadChoiceWrong.png","","","","","","","","","",""
"image-keyboard-response","193","918131","0.0-3.0-6.0-1.0-0.19","659d779096ebe05ecca2ebce","6662009ae78f21dd82fcd179","66620c1e5f017f31576c0482","711","","f","","","","","","","","./tasks/HMM-beads/Images/NewTrialWC.png","lowH","1","19","1","1","1","0","false","",""
"image-keyboard-response","194","918435","0.0-3.0-6.0-1.0-1.19","659d779096ebe05ecca2ebce","6662009ae78f21dd82fcd179","66620c1e5f017f31576c0482","null","","null","","","","","","","","./tasks/HMM-beads/Images/BlackBeadChoice.png","","","","","","","","","",""
"image-keyboard-response","195","918938","0.0-3.0-6.0-1.0-2.19","659d779096ebe05ecca2ebce","6662009ae78f21dd82fcd179","66620c1e5f017f31576c0482","null","","null","","","","","","","","./tasks/HMM-beads/Images/BlackBeadChoiceWrong.png","","","","","","","","","",""
"image-keyboard-response","196","919634","0.0-3.0-6.0-1.0-0.20","659d779096ebe05ecca2ebce","6662009ae78f21dd82fcd179","66620c1e5f017f31576c0482","693","","f","","","","","","","","./tasks/HMM-beads/Images/NewTrialWC.png","lowH","1","20","1","1","1","0","false","",""
"image-keyboard-response","197","919938","0.0-3.0-6.0-1.0-1.20","659d779096ebe05ecca2ebce","6662009ae78f21dd82fcd179","66620c1e5f017f31576c0482","null","","null","","","","","","","","./tasks/HMM-beads/Images/BlackBeadChoice.png","","","","","","","","","",""
"image-keyboard-response","198","920442","0.0-3.0-6.0-1.0-2.20","659d779096ebe05ecca2ebce","6662009ae78f21dd82fcd179","66620c1e5f017f31576c0482","null","","null","","","","","","","","./tasks/HMM-beads/Images/BlackBeadChoiceWrong.png","","","","","","","","","",""
"image-keyboard-response","199","920953","0.0-3.0-6.0-1.0-0.21","659d779096ebe05ecca2ebce","6662009ae78f21dd82fcd179","66620c1e5f017f31576c0482","508","","j","","","","","","","","./tasks/HMM-beads/Images/NewTrialWC.png","lowH","1","21","1","1","1","1","true","",""
"image-keyboard-response","200","921257","0.0-3.0-6.0-1.0-1.21","659d779096ebe05ecca2ebce","6662009ae78f21dd82fcd179","66620c1e5f017f31576c0482","null","","null","","","","","","","","./tasks/HMM-beads/Images/WhiteBeadChoice.png","","","","","","","","","",""
"image-keyboard-response","201","921760","0.0-3.0-6.0-1.0-2.21","659d779096ebe05ecca2ebce","6662009ae78f21dd82fcd179","66620c1e5f017f31576c0482","null","","null","","","","","","","","./tasks/HMM-beads/Images/WhiteBeadChoiceCorrect.png","","","","","","","","","",""
"image-keyboard-response","202","922203","0.0-3.0-6.0-1.0-0.22","659d779096ebe05ecca2ebce","6662009ae78f21dd82fcd179","66620c1e5f017f31576c0482","439","","j","","","","","","","","./tasks/HMM-beads/Images/NewTrialWC.png","lowH","1","22","1","1","1","1","true","",""
"image-keyboard-response","203","922506","0.0-3.0-6.0-1.0-1.22","659d779096ebe05ecca2ebce","6662009ae78f21dd82fcd179","66620c1e5f017f31576c0482","null","","null","","","","","","","","./tasks/HMM-beads/Images/WhiteBeadChoice.png","","","","","","","","","",""
"image-keyboard-response","204","923011","0.0-3.0-6.0-1.0-2.22","659d779096ebe05ecca2ebce","6662009ae78f21dd82fcd179","66620c1e5f017f31576c0482","null","","null","","","","","","","","./tasks/HMM-beads/Images/WhiteBeadChoiceCorrect.png","","","","","","","","","",""
"image-keyboard-response","205","923312","0.0-3.0-6.0-1.0-0.23","659d779096ebe05ecca2ebce","6662009ae78f21dd82fcd179","66620c1e5f017f31576c0482","298","","f","","","","","","","","./tasks/HMM-beads/Images/NewTrialWC.png","lowH","1","23","1","1","1","0","false","",""
"image-keyboard-response","206","923628","0.0-3.0-6.0-1.0-1.23","659d779096ebe05ecca2ebce","6662009ae78f21dd82fcd179","66620c1e5f017f31576c0482","null","","null","","","","","","","","./tasks/HMM-beads/Images/BlackBeadChoice.png","","","","","","","","","",""
"image-keyboard-response","207","924132","0.0-3.0-6.0-1.0-2.23","659d779096ebe05ecca2ebce","6662009ae78f21dd82fcd179","66620c1e5f017f31576c0482","null","","null","","","","","","","","./tasks/HMM-beads/Images/BlackBeadChoiceWrong.png","","","","","","","","","",""
"image-keyboard-response","208","924915","0.0-3.0-6.0-1.0-0.24","659d779096ebe05ecca2ebce","6662009ae78f21dd82fcd179","66620c1e5f017f31576c0482","780","","j","","","","","","","","./tasks/HMM-beads/Images/NewTrialWC.png","lowH","1","24","1","0","1","1","false","",""
"image-keyboard-response","209","925218","0.0-3.0-6.0-1.0-1.24","659d779096ebe05ecca2ebce","6662009ae78f21dd82fcd179","66620c1e5f017f31576c0482","null","","null","","","","","","","","./tasks/HMM-beads/Images/WhiteBeadChoice.png","","","","","","","","","",""
"image-keyboard-response","210","925722","0.0-3.0-6.0-1.0-2.24","659d779096ebe05ecca2ebce","6662009ae78f21dd82fcd179","66620c1e5f017f31576c0482","null","","null","","","","","","","","./tasks/HMM-beads/Images/WhiteBeadChoiceWrong.png","","","","","","","","","",""
"image-keyboard-response","211","925864","0.0-3.0-6.0-1.0-0.25","659d779096ebe05ecca2ebce","6662009ae78f21dd82fcd179","66620c1e5f017f31576c0482","139","","f","","","","","","","","./tasks/HMM-beads/Images/NewTrialBC.png","lowH","1","25","1","1","0","0","false","",""
"image-keyboard-response","212","926168","0.0-3.0-6.0-1.0-1.25","659d779096ebe05ecca2ebce","6662009ae78f21dd82fcd179","66620c1e5f017f31576c0482","null","","null","","","","","","","","./tasks/HMM-beads/Images/BlackBeadChoice.png","","","","","","","","","",""
"image-keyboard-response","213","926671","0.0-3.0-6.0-1.0-2.25","659d779096ebe05ecca2ebce","6662009ae78f21dd82fcd179","66620c1e5f017f31576c0482","null","","null","","","","","","","","./tasks/HMM-beads/Images/BlackBeadChoiceWrong.png","","","","","","","","","",""
"image-keyboard-response","214","927243","0.0-3.0-6.0-1.0-0.26","659d779096ebe05ecca2ebce","6662009ae78f21dd82fcd179","66620c1e5f017f31576c0482","569","","f","","","","","","","","./tasks/HMM-beads/Images/NewTrialWC.png","lowH","1","26","1","0","1","0","true","",""
"image-keyboard-response","215","927545","0.0-3.0-6.0-1.0-1.26","659d779096ebe05ecca2ebce","6662009ae78f21dd82fcd179","66620c1e5f017f31576c0482","null","","null","","","","","","","","./tasks/HMM-beads/Images/BlackBeadChoice.png","","","","","","","","","",""
"image-keyboard-response","216","928049","0.0-3.0-6.0-1.0-2.26","659d779096ebe05ecca2ebce","6662009ae78f21dd82fcd179","66620c1e5f017f31576c0482","null","","null","","","","","","","","./tasks/HMM-beads/Images/BlackBeadChoiceCorrect.png","","","","","","","","","",""
"image-keyboard-response","217","928987","0.0-3.0-6.0-1.0-0.27","659d779096ebe05ecca2ebce","6662009ae78f21dd82fcd179","66620c1e5f017f31576c0482","935","","f","","","","","","","","./tasks/HMM-beads/Images/NewTrialBC.png","lowH","1","27","1","1","0","0","false","",""
"image-keyboard-response","218","929291","0.0-3.0-6.0-1.0-1.27","659d779096ebe05ecca2ebce","6662009ae78f21dd82fcd179","66620c1e5f017f31576c0482","null","","null","","","","","","","","./tasks/HMM-beads/Images/BlackBeadChoice.png","","","","","","","","","",""
"image-keyboard-response","219","929806","0.0-3.0-6.0-1.0-2.27","659d779096ebe05ecca2ebce","6662009ae78f21dd82fcd179","66620c1e5f017f31576c0482","null","","null","","","","","","","","./tasks/HMM-beads/Images/BlackBeadChoiceWrong.png","","","","","","","","","",""
"image-keyboard-response","220","930216","0.0-3.0-6.0-1.0-0.28","659d779096ebe05ecca2ebce","6662009ae78f21dd82fcd179","66620c1e5f017f31576c0482","406","","f","","","","","","","","./tasks/HMM-beads/Images/NewTrialWC.png","lowH","1","28","1","1","1","0","false","",""
"image-keyboard-response","221","930519","0.0-3.0-6.0-1.0-1.28","659d779096ebe05ecca2ebce","6662009ae78f21dd82fcd179","66620c1e5f017f31576c0482","null","","null","","","","","","","","./tasks/HMM-beads/Images/BlackBeadChoice.png","","","","","","","","","",""
"image-keyboard-response","222","931022","0.0-3.0-6.0-1.0-2.28","659d779096ebe05ecca2ebce","6662009ae78f21dd82fcd179","66620c1e5f017f31576c0482","null","","null","","","","","","","","./tasks/HMM-beads/Images/BlackBeadChoiceWrong.png","","","","","","","","","",""
"image-keyboard-response","223","931491","0.0-3.0-6.0-1.0-0.29","659d779096ebe05ecca2ebce","6662009ae78f21dd82fcd179","66620c1e5f017f31576c0482","466","","j","","","","","","","","./tasks/HMM-beads/Images/NewTrialWC.png","lowH","1","29","1","1","1","1","true","",""
"image-keyboard-response","224","931795","0.0-3.0-6.0-1.0-1.29","659d779096ebe05ecca2ebce","6662009ae78f21dd82fcd179","66620c1e5f017f31576c0482","null","","null","","","","","","","","./tasks/HMM-beads/Images/WhiteBeadChoice.png","","","","","","","","","",""
"image-keyboard-response","225","932297","0.0-3.0-6.0-1.0-2.29","659d779096ebe05ecca2ebce","6662009ae78f21dd82fcd179","66620c1e5f017f31576c0482","null","","null","","","","","","","","./tasks/HMM-beads/Images/WhiteBeadChoiceCorrect.png","","","","","","","","","",""
"image-keyboard-response","226","933000","0.0-3.0-6.0-1.0-0.30","659d779096ebe05ecca2ebce","6662009ae78f21dd82fcd179","66620c1e5f017f31576c0482","699","","f","","","","","","","","./tasks/HMM-beads/Images/NewTrialWC.png","lowH","1","30","1","1","1","0","false","",""
"image-keyboard-response","227","933303","0.0-3.0-6.0-1.0-1.30","659d779096ebe05ecca2ebce","6662009ae78f21dd82fcd179","66620c1e5f017f31576c0482","null","","null","","","","","","","","./tasks/HMM-beads/Images/BlackBeadChoice.png","","","","","","","","","",""
"image-keyboard-response","228","933806","0.0-3.0-6.0-1.0-2.30","659d779096ebe05ecca2ebce","6662009ae78f21dd82fcd179","66620c1e5f017f31576c0482","null","","null","","","","","","","","./tasks/HMM-beads/Images/BlackBeadChoiceWrong.png","","","","","","","","","",""
"image-keyboard-response","229","934209","0.0-3.0-6.0-1.0-0.31","659d779096ebe05ecca2ebce","6662009ae78f21dd82fcd179","66620c1e5f017f31576c0482","400","","j","","","","","","","","./tasks/HMM-beads/Images/NewTrialWC.png","lowH","1","31","1","1","1","1","true","",""
"image-keyboard-response","230","934512","0.0-3.0-6.0-1.0-1.31","659d779096ebe05ecca2ebce","6662009ae78f21dd82fcd179","66620c1e5f017f31576c0482","null","","null","","","","","","","","./tasks/HMM-beads/Images/WhiteBeadChoice.png","","","","","","","","","",""
"image-keyboard-response","231","935015","0.0-3.0-6.0-1.0-2.31","659d779096ebe05ecca2ebce","6662009ae78f21dd82fcd179","66620c1e5f017f31576c0482","null","","null","","","","","","","","./tasks/HMM-beads/Images/WhiteBeadChoiceCorrect.png","","","","","","","","","",""
"image-keyboard-response","232","935573","0.0-3.0-6.0-1.0-0.32","659d779096ebe05ecca2ebce","6662009ae78f21dd82fcd179","66620c1e5f017f31576c0482","554","","f","","","","","","","","./tasks/HMM-beads/Images/NewTrialWC.png","lowH","1","32","1","1","1","0","false","",""
"image-keyboard-response","233","935876","0.0-3.0-6.0-1.0-1.32","659d779096ebe05ecca2ebce","6662009ae78f21dd82fcd179","66620c1e5f017f31576c0482","null","","null","","","","","","","","./tasks/HMM-beads/Images/BlackBeadChoice.png","","","","","","","","","",""
"image-keyboard-response","234","936380","0.0-3.0-6.0-1.0-2.32","659d779096ebe05ecca2ebce","6662009ae78f21dd82fcd179","66620c1e5f017f31576c0482","null","","null","","","","","","","","./tasks/HMM-beads/Images/BlackBeadChoiceWrong.png","","","","","","","","","",""
"image-keyboard-response","235","936772","0.0-3.0-6.0-1.0-0.33","659d779096ebe05ecca2ebce","6662009ae78f21dd82fcd179","66620c1e5f017f31576c0482","390","","j","","","","","","","","./tasks/HMM-beads/Images/NewTrialWC.png","lowH","1","33","1","1","1","1","true","",""
"image-keyboard-response","236","937076","0.0-3.0-6.0-1.0-1.33","659d779096ebe05ecca2ebce","6662009ae78f21dd82fcd179","66620c1e5f017f31576c0482","null","","null","","","","","","","","./tasks/HMM-beads/Images/WhiteBeadChoice.png","","","","","","","","","",""
"image-keyboard-response","237","937579","0.0-3.0-6.0-1.0-2.33","659d779096ebe05ecca2ebce","6662009ae78f21dd82fcd179","66620c1e5f017f31576c0482","null","","null","","","","","","","","./tasks/HMM-beads/Images/WhiteBeadChoiceCorrect.png","","","","","","","","","",""
"image-keyboard-response","238","938161","0.0-3.0-6.0-1.0-0.34","659d779096ebe05ecca2ebce","6662009ae78f21dd82fcd179","66620c1e5f017f31576c0482","579","","f","","","","","","","","./tasks/HMM-beads/Images/NewTrialWC.png","lowH","1","34","1","1","1","0","false","",""
"image-keyboard-response","239","938464","0.0-3.0-6.0-1.0-1.34","659d779096ebe05ecca2ebce","6662009ae78f21dd82fcd179","66620c1e5f017f31576c0482","null","","null","","","","","","","","./tasks/HMM-beads/Images/BlackBeadChoice.png","","","","","","","","","",""
"image-keyboard-response","240","938969","0.0-3.0-6.0-1.0-2.34","659d779096ebe05ecca2ebce","6662009ae78f21dd82fcd179","66620c1e5f017f31576c0482","null","","null","","","","","","","","./tasks/HMM-beads/Images/BlackBeadChoiceWrong.png","","","","","","","","","",""
"image-keyboard-response","241","939264","0.0-3.0-6.0-1.0-0.35","659d779096ebe05ecca2ebce","6662009ae78f21dd82fcd179","66620c1e5f017f31576c0482","292","","j","","","","","","","","./tasks/HMM-beads/Images/NewTrialWC.png","lowH","1","35","1","1","1","1","true","",""
"image-keyboard-response","242","939568","0.0-3.0-6.0-1.0-1.35","659d779096ebe05ecca2ebce","6662009ae78f21dd82fcd179","66620c1e5f017f31576c0482","null","","null","","","","","","","","./tasks/HMM-beads/Images/WhiteBeadChoice.png","","","","","","","","","",""
"image-keyboard-response","243","940074","0.0-3.0-6.0-1.0-2.35","659d779096ebe05ecca2ebce","6662009ae78f21dd82fcd179","66620c1e5f017f31576c0482","null","","null","","","","","","","","./tasks/HMM-beads/Images/WhiteBeadChoiceCorrect.png","","","","","","","","","",""
"image-keyboard-response","244","940205","0.0-3.0-6.0-1.0-0.36","659d779096ebe05ecca2ebce","6662009ae78f21dd82fcd179","66620c1e5f017f31576c0482","128","","j","","","","","","","","./tasks/HMM-beads/Images/NewTrialWC.png","lowH","1","36","1","1","1","1","true","",""
"image-keyboard-response","245","940523","0.0-3.0-6.0-1.0-1.36","659d779096ebe05ecca2ebce","6662009ae78f21dd82fcd179","66620c1e5f017f31576c0482","null","","null","","","","","","","","./tasks/HMM-beads/Images/WhiteBeadChoice.png","","","","","","","","","",""
"image-keyboard-response","246","941027","0.0-3.0-6.0-1.0-2.36","659d779096ebe05ecca2ebce","6662009ae78f21dd82fcd179","66620c1e5f017f31576c0482","null","","null","","","","","","","","./tasks/HMM-beads/Images/WhiteBeadChoiceCorrect.png","","","","","","","","","",""
"image-keyboard-response","247","941133","0.0-3.0-6.0-1.0-0.37","659d779096ebe05ecca2ebce","6662009ae78f21dd82fcd179","66620c1e5f017f31576c0482","104","","j","","","","","","","","./tasks/HMM-beads/Images/NewTrialWC.png","lowH","1","37","1","1","1","1","true","",""
"image-keyboard-response","248","941435","0.0-3.0-6.0-1.0-1.37","659d779096ebe05ecca2ebce","6662009ae78f21dd82fcd179","66620c1e5f017f31576c0482","null","","null","","","","","","","","./tasks/HMM-beads/Images/WhiteBeadChoice.png","","","","","","","","","",""
"image-keyboard-response","249","941937","0.0-3.0-6.0-1.0-2.37","659d779096ebe05ecca2ebce","6662009ae78f21dd82fcd179","66620c1e5f017f31576c0482","null","","null","","","","","","","","./tasks/HMM-beads/Images/WhiteBeadChoiceCorrect.png","","","","","","","","","",""
"image-keyboard-response","250","942439","0.0-3.0-6.0-1.0-0.38","659d779096ebe05ecca2ebce","6662009ae78f21dd82fcd179","66620c1e5f017f31576c0482","499","","j","","","","","","","","./tasks/HMM-beads/Images/NewTrialWC.png","lowH","1","38","1","1","1","1","true","",""
"image-keyboard-response","251","942742","0.0-3.0-6.0-1.0-1.38","659d779096ebe05ecca2ebce","6662009ae78f21dd82fcd179","66620c1e5f017f31576c0482","null","","null","","","","","","","","./tasks/HMM-beads/Images/WhiteBeadChoice.png","","","","","","","","","",""
"image-keyboard-response","252","943246","0.0-3.0-6.0-1.0-2.38","659d779096ebe05ecca2ebce","6662009ae78f21dd82fcd179","66620c1e5f017f31576c0482","null","","null","","","","","","","","./tasks/HMM-beads/Images/WhiteBeadChoiceCorrect.png","","","","","","","","","",""
"image-keyboard-response","253","943557","0.0-3.0-6.0-1.0-0.39","659d779096ebe05ecca2ebce","6662009ae78f21dd82fcd179","66620c1e5f017f31576c0482","309","","j","","","","","","","","./tasks/HMM-beads/Images/NewTrialWC.png","lowH","1","39","1","1","1","1","true","",""
"image-keyboard-response","254","943862","0.0-3.0-6.0-1.0-1.39","659d779096ebe05ecca2ebce","6662009ae78f21dd82fcd179","66620c1e5f017f31576c0482","null","","null","","","","","","","","./tasks/HMM-beads/Images/WhiteBeadChoice.png","","","","","","","","","",""
"image-keyboard-response","255","944365","0.0-3.0-6.0-1.0-2.39","659d779096ebe05ecca2ebce","6662009ae78f21dd82fcd179","66620c1e5f017f31576c0482","null","","null","","","","","","","","./tasks/HMM-beads/Images/WhiteBeadChoiceCorrect.png","","","","","","","","","",""
"image-keyboard-response","256","944731","0.0-3.0-6.0-1.0-0.40","659d779096ebe05ecca2ebce","6662009ae78f21dd82fcd179","66620c1e5f017f31576c0482","363","","j","","","","","","","","./tasks/HMM-beads/Images/NewTrialWC.png","lowH","1","40","1","1","1","1","true","",""
"image-keyboard-response","257","945035","0.0-3.0-6.0-1.0-1.40","659d779096ebe05ecca2ebce","6662009ae78f21dd82fcd179","66620c1e5f017f31576c0482","null","","null","","","","","","","","./tasks/HMM-beads/Images/WhiteBeadChoice.png","","","","","","","","","",""
"image-keyboard-response","258","945551","0.0-3.0-6.0-1.0-2.40","659d779096ebe05ecca2ebce","6662009ae78f21dd82fcd179","66620c1e5f017f31576c0482","null","","null","","","","","","","","./tasks/HMM-beads/Images/WhiteBeadChoiceCorrect.png","","","","","","","","","",""
"image-keyboard-response","259","945785","0.0-3.0-6.0-1.0-0.41","659d779096ebe05ecca2ebce","6662009ae78f21dd82fcd179","66620c1e5f017f31576c0482","231","","j","","","","","","","","./tasks/HMM-beads/Images/NewTrialWC.png","lowH","1","41","1","1","1","1","true","",""
"image-keyboard-response","260","946089","0.0-3.0-6.0-1.0-1.41","659d779096ebe05ecca2ebce","6662009ae78f21dd82fcd179","66620c1e5f017f31576c0482","null","","null","","","","","","","","./tasks/HMM-beads/Images/WhiteBeadChoice.png","","","","","","","","","",""
"image-keyboard-response","261","946592","0.0-3.0-6.0-1.0-2.41","659d779096ebe05ecca2ebce","6662009ae78f21dd82fcd179","66620c1e5f017f31576c0482","null","","null","","","","","","","","./tasks/HMM-beads/Images/WhiteBeadChoiceCorrect.png","","","","","","","","","",""
"image-keyboard-response","262","946825","0.0-3.0-6.0-1.0-0.42","659d779096ebe05ecca2ebce","6662009ae78f21dd82fcd179","66620c1e5f017f31576c0482","230","","j","","","","","","","","./tasks/HMM-beads/Images/NewTrialWC.png","lowH","1","42","1","1","1","1","true","",""
"image-keyboard-response","263","947129","0.0-3.0-6.0-1.0-1.42","659d779096ebe05ecca2ebce","6662009ae78f21dd82fcd179","66620c1e5f017f31576c0482","null","","null","","","","","","","","./tasks/HMM-beads/Images/WhiteBeadChoice.png","","","","","","","","","",""
"image-keyboard-response","264","947632","0.0-3.0-6.0-1.0-2.42","659d779096ebe05ecca2ebce","6662009ae78f21dd82fcd179","66620c1e5f017f31576c0482","null","","null","","","","","","","","./tasks/HMM-beads/Images/WhiteBeadChoiceCorrect.png","","","","","","","","","",""
"image-keyboard-response","265","947869","0.0-3.0-6.0-1.0-0.43","659d779096ebe05ecca2ebce","6662009ae78f21dd82fcd179","66620c1e5f017f31576c0482","234","","f","","","","","","","","./tasks/HMM-beads/Images/NewTrialWC.png","lowH","1","43","1","1","1","0","false","",""
"image-keyboard-response","266","948172","0.0-3.0-6.0-1.0-1.43","659d779096ebe05ecca2ebce","6662009ae78f21dd82fcd179","66620c1e5f017f31576c0482","null","","null","","","","","","","","./tasks/HMM-beads/Images/BlackBeadChoice.png","","","","","","","","","",""
"image-keyboard-response","267","948676","0.0-3.0-6.0-1.0-2.43","659d779096ebe05ecca2ebce","6662009ae78f21dd82fcd179","66620c1e5f017f31576c0482","null","","null","","","","","","","","./tasks/HMM-beads/Images/BlackBeadChoiceWrong.png","","","","","","","","","",""
"image-keyboard-response","268","948903","0.0-3.0-6.0-1.0-0.44","659d779096ebe05ecca2ebce","6662009ae78f21dd82fcd179","66620c1e5f017f31576c0482","224","","j","","","","","","","","./tasks/HMM-beads/Images/NewTrialWC.png","lowH","1","44","1","1","1","1","true","",""
"image-keyboard-response","269","949206","0.0-3.0-6.0-1.0-1.44","659d779096ebe05ecca2ebce","6662009ae78f21dd82fcd179","66620c1e5f017f31576c0482","null","","null","","","","","","","","./tasks/HMM-beads/Images/WhiteBeadChoice.png","","","","","","","","","",""
"image-keyboard-response","270","949709","0.0-3.0-6.0-1.0-2.44","659d779096ebe05ecca2ebce","6662009ae78f21dd82fcd179","66620c1e5f017f31576c0482","null","","null","","","","","","","","./tasks/HMM-beads/Images/WhiteBeadChoiceCorrect.png","","","","","","","","","",""
"image-keyboard-response","271","950486","0.0-3.0-6.0-1.0-0.45","659d779096ebe05ecca2ebce","6662009ae78f21dd82fcd179","66620c1e5f017f31576c0482","773","","f","","","","","","","","./tasks/HMM-beads/Images/NewTrialWC.png","lowH","1","45","1","1","1","0","false","",""
"image-keyboard-response","272","950789","0.0-3.0-6.0-1.0-1.45","659d779096ebe05ecca2ebce","6662009ae78f21dd82fcd179","66620c1e5f017f31576c0482","null","","null","","","","","","","","./tasks/HMM-beads/Images/BlackBeadChoice.png","","","","","","","","","",""
"image-keyboard-response","273","951292","0.0-3.0-6.0-1.0-2.45","659d779096ebe05ecca2ebce","6662009ae78f21dd82fcd179","66620c1e5f017f31576c0482","null","","null","","","","","","","","./tasks/HMM-beads/Images/BlackBeadChoiceWrong.png","","","","","","","","","",""
"image-keyboard-response","274","951576","0.0-3.0-6.0-1.0-0.46","659d779096ebe05ecca2ebce","6662009ae78f21dd82fcd179","66620c1e5f017f31576c0482","280","","f","","","","","","","","./tasks/HMM-beads/Images/NewTrialWC.png","lowH","1","46","1","1","1","0","false","",""
"image-keyboard-response","275","951879","0.0-3.0-6.0-1.0-1.46","659d779096ebe05ecca2ebce","6662009ae78f21dd82fcd179","66620c1e5f017f31576c0482","null","","null","","","","","","","","./tasks/HMM-beads/Images/BlackBeadChoice.png","","","","","","","","","",""
"image-keyboard-response","276","952383","0.0-3.0-6.0-1.0-2.46","659d779096ebe05ecca2ebce","6662009ae78f21dd82fcd179","66620c1e5f017f31576c0482","null","","null","","","","","","","","./tasks/HMM-beads/Images/BlackBeadChoiceWrong.png","","","","","","","","","",""
"image-keyboard-response","277","952680","0.0-3.0-6.0-1.0-0.47","659d779096ebe05ecca2ebce","6662009ae78f21dd82fcd179","66620c1e5f017f31576c0482","295","","j","","","","","","","","./tasks/HMM-beads/Images/NewTrialWC.png","lowH","1","47","1","0","1","1","false","",""
"image-keyboard-response","278","952984","0.0-3.0-6.0-1.0-1.47","659d779096ebe05ecca2ebce","6662009ae78f21dd82fcd179","66620c1e5f017f31576c0482","null","","null","","","","","","","","./tasks/HMM-beads/Images/WhiteBeadChoice.png","","","","","","","","","",""
"image-keyboard-response","279","953487","0.0-3.0-6.0-1.0-2.47","659d779096ebe05ecca2ebce","6662009ae78f21dd82fcd179","66620c1e5f017f31576c0482","null","","null","","","","","","","","./tasks/HMM-beads/Images/WhiteBeadChoiceWrong.png","","","","","","","","","",""
"image-keyboard-response","280","953884","0.0-3.0-6.0-1.0-0.48","659d779096ebe05ecca2ebce","6662009ae78f21dd82fcd179","66620c1e5f017f31576c0482","394","","f","","","","","","","","./tasks/HMM-beads/Images/NewTrialBC.png","lowH","1","48","1","0","0","0","true","",""
"image-keyboard-response","281","954188","0.0-3.0-6.0-1.0-1.48","659d779096ebe05ecca2ebce","6662009ae78f21dd82fcd179","66620c1e5f017f31576c0482","null","","null","","","","","","","","./tasks/HMM-beads/Images/BlackBeadChoice.png","","","","","","","","","",""
"image-keyboard-response","282","954691","0.0-3.0-6.0-1.0-2.48","659d779096ebe05ecca2ebce","6662009ae78f21dd82fcd179","66620c1e5f017f31576c0482","null","","null","","","","","","","","./tasks/HMM-beads/Images/BlackBeadChoiceCorrect.png","","","","","","","","","",""
"image-keyboard-response","283","956862","0.0-3.0-6.0-1.0-0.49","659d779096ebe05ecca2ebce","6662009ae78f21dd82fcd179","66620c1e5f017f31576c0482","2167","","j","","","","","","","","./tasks/HMM-beads/Images/NewTrialBC.png","lowH","1","49","1","0","0","1","false","",""
"image-keyboard-response","284","957179","0.0-3.0-6.0-1.0-1.49","659d779096ebe05ecca2ebce","6662009ae78f21dd82fcd179","66620c1e5f017f31576c0482","null","","null","","","","","","","","./tasks/HMM-beads/Images/WhiteBeadChoice.png","","","","","","","","","",""
"image-keyboard-response","285","957684","0.0-3.0-6.0-1.0-2.49","659d779096ebe05ecca2ebce","6662009ae78f21dd82fcd179","66620c1e5f017f31576c0482","null","","null","","","","","","","","./tasks/HMM-beads/Images/WhiteBeadChoiceWrong.png","","","","","","","","","",""
"image-keyboard-response","286","959109","0.0-3.0-6.0-1.0-0.50","659d779096ebe05ecca2ebce","6662009ae78f21dd82fcd179","66620c1e5f017f31576c0482","1422","","f","","","","","","","","./tasks/HMM-beads/Images/NewTrialBC.png","lowH","1","50","1","1","0","0","false","",""
"image-keyboard-response","287","959413","0.0-3.0-6.0-1.0-1.50","659d779096ebe05ecca2ebce","6662009ae78f21dd82fcd179","66620c1e5f017f31576c0482","null","","null","","","","","","","","./tasks/HMM-beads/Images/BlackBeadChoice.png","","","","","","","","","",""
"image-keyboard-response","288","959916","0.0-3.0-6.0-1.0-2.50","659d779096ebe05ecca2ebce","6662009ae78f21dd82fcd179","66620c1e5f017f31576c0482","null","","null","","","","","","","","./tasks/HMM-beads/Images/BlackBeadChoiceWrong.png","","","","","","","","","",""
"image-keyboard-response","289","960408","0.0-3.0-6.0-1.0-0.51","659d779096ebe05ecca2ebce","6662009ae78f21dd82fcd179","66620c1e5f017f31576c0482","489","","f","","","","","","","","./tasks/HMM-beads/Images/NewTrialWC.png","lowH","1","51","1","1","1","0","false","",""
"image-keyboard-response","290","960711","0.0-3.0-6.0-1.0-1.51","659d779096ebe05ecca2ebce","6662009ae78f21dd82fcd179","66620c1e5f017f31576c0482","null","","null","","","","","","","","./tasks/HMM-beads/Images/BlackBeadChoice.png","","","","","","","","","",""
"image-keyboard-response","291","961215","0.0-3.0-6.0-1.0-2.51","659d779096ebe05ecca2ebce","6662009ae78f21dd82fcd179","66620c1e5f017f31576c0482","null","","null","","","","","","","","./tasks/HMM-beads/Images/BlackBeadChoiceWrong.png","","","","","","","","","",""
"image-keyboard-response","292","961228","0.0-3.0-6.0-1.0-0.52","659d779096ebe05ecca2ebce","6662009ae78f21dd82fcd179","66620c1e5f017f31576c0482","10","","f","","","","","","","","./tasks/HMM-beads/Images/NewTrialWC.png","lowH","1","52","1","1","1","0","false","",""
"image-keyboard-response","293","961533","0.0-3.0-6.0-1.0-1.52","659d779096ebe05ecca2ebce","6662009ae78f21dd82fcd179","66620c1e5f017f31576c0482","null","","null","","","","","","","","./tasks/HMM-beads/Images/BlackBeadChoice.png","","","","","","","","","",""
"image-keyboard-response","294","962036","0.0-3.0-6.0-1.0-2.52","659d779096ebe05ecca2ebce","6662009ae78f21dd82fcd179","66620c1e5f017f31576c0482","null","","null","","","","","","","","./tasks/HMM-beads/Images/BlackBeadChoiceWrong.png","","","","","","","","","",""
"image-keyboard-response","295","962686","0.0-3.0-6.0-1.0-0.53","659d779096ebe05ecca2ebce","6662009ae78f21dd82fcd179","66620c1e5f017f31576c0482","647","","j","","","","","","","","./tasks/HMM-beads/Images/NewTrialWC.png","lowH","1","53","1","1","1","1","true","",""
"image-keyboard-response","296","962989","0.0-3.0-6.0-1.0-1.53","659d779096ebe05ecca2ebce","6662009ae78f21dd82fcd179","66620c1e5f017f31576c0482","null","","null","","","","","","","","./tasks/HMM-beads/Images/WhiteBeadChoice.png","","","","","","","","","",""
"image-keyboard-response","297","963507","0.0-3.0-6.0-1.0-2.53","659d779096ebe05ecca2ebce","6662009ae78f21dd82fcd179","66620c1e5f017f31576c0482","null","","null","","","","","","","","./tasks/HMM-beads/Images/WhiteBeadChoiceCorrect.png","","","","","","","","","",""
"image-keyboard-response","298","964040","0.0-3.0-6.0-1.0-0.54","659d779096ebe05ecca2ebce","6662009ae78f21dd82fcd179","66620c1e5f017f31576c0482","531","","f","","","","","","","","./tasks/HMM-beads/Images/NewTrialWC.png","lowH","1","54","1","1","1","0","false","",""
"image-keyboard-response","299","964345","0.0-3.0-6.0-1.0-1.54","659d779096ebe05ecca2ebce","6662009ae78f21dd82fcd179","66620c1e5f017f31576c0482","null","","null","","","","","","","","./tasks/HMM-beads/Images/BlackBeadChoice.png","","","","","","","","","",""
"image-keyboard-response","300","964848","0.0-3.0-6.0-1.0-2.54","659d779096ebe05ecca2ebce","6662009ae78f21dd82fcd179","66620c1e5f017f31576c0482","null","","null","","","","","","","","./tasks/HMM-beads/Images/BlackBeadChoiceWrong.png","","","","","","","","","",""
"image-keyboard-response","301","965439","0.0-3.0-6.0-1.0-0.55","659d779096ebe05ecca2ebce","6662009ae78f21dd82fcd179","66620c1e5f017f31576c0482","588","","j","","","","","","","","./tasks/HMM-beads/Images/NewTrialWC.png","lowH","1","55","1","1","1","1","true","",""
"image-keyboard-response","302","965743","0.0-3.0-6.0-1.0-1.55","659d779096ebe05ecca2ebce","6662009ae78f21dd82fcd179","66620c1e5f017f31576c0482","null","","null","","","","","","","","./tasks/HMM-beads/Images/WhiteBeadChoice.png","","","","","","","","","",""
"image-keyboard-response","303","966247","0.0-3.0-6.0-1.0-2.55","659d779096ebe05ecca2ebce","6662009ae78f21dd82fcd179","66620c1e5f017f31576c0482","null","","null","","","","","","","","./tasks/HMM-beads/Images/WhiteBeadChoiceCorrect.png","","","","","","","","","",""
"image-keyboard-response","304","966343","0.0-3.0-6.0-1.0-0.56","659d779096ebe05ecca2ebce","6662009ae78f21dd82fcd179","66620c1e5f017f31576c0482","94","","f","","","","","","","","./tasks/HMM-beads/Images/NewTrialWC.png","lowH","1","56","1","1","1","0","false","",""
"image-keyboard-response","305","966647","0.0-3.0-6.0-1.0-1.56","659d779096ebe05ecca2ebce","6662009ae78f21dd82fcd179","66620c1e5f017f31576c0482","null","","null","","","","","","","","./tasks/HMM-beads/Images/BlackBeadChoice.png","","","","","","","","","",""
"image-keyboard-response","306","967152","0.0-3.0-6.0-1.0-2.56","659d779096ebe05ecca2ebce","6662009ae78f21dd82fcd179","66620c1e5f017f31576c0482","null","","null","","","","","","","","./tasks/HMM-beads/Images/BlackBeadChoiceWrong.png","","","","","","","","","",""
"image-keyboard-response","307","967447","0.0-3.0-6.0-1.0-0.57","659d779096ebe05ecca2ebce","6662009ae78f21dd82fcd179","66620c1e5f017f31576c0482","293","","j","","","","","","","","./tasks/HMM-beads/Images/NewTrialWC.png","lowH","1","57","1","1","1","1","true","",""
"image-keyboard-response","308","967751","0.0-3.0-6.0-1.0-1.57","659d779096ebe05ecca2ebce","6662009ae78f21dd82fcd179","66620c1e5f017f31576c0482","null","","null","","","","","","","","./tasks/HMM-beads/Images/WhiteBeadChoice.png","","","","","","","","","",""
"image-keyboard-response","309","968254","0.0-3.0-6.0-1.0-2.57","659d779096ebe05ecca2ebce","6662009ae78f21dd82fcd179","66620c1e5f017f31576c0482","null","","null","","","","","","","","./tasks/HMM-beads/Images/WhiteBeadChoiceCorrect.png","","","","","","","","","",""
"image-keyboard-response","310","968486","0.0-3.0-6.0-1.0-0.58","659d779096ebe05ecca2ebce","6662009ae78f21dd82fcd179","66620c1e5f017f31576c0482","228","","j","","","","","","","","./tasks/HMM-beads/Images/NewTrialWC.png","lowH","1","58","1","1","1","1","true","",""
"image-keyboard-response","311","968791","0.0-3.0-6.0-1.0-1.58","659d779096ebe05ecca2ebce","6662009ae78f21dd82fcd179","66620c1e5f017f31576c0482","null","","null","","","","","","","","./tasks/HMM-beads/Images/WhiteBeadChoice.png","","","","","","","","","",""
"image-keyboard-response","312","969294","0.0-3.0-6.0-1.0-2.58","659d779096ebe05ecca2ebce","6662009ae78f21dd82fcd179","66620c1e5f017f31576c0482","null","","null","","","","","","","","./tasks/HMM-beads/Images/WhiteBeadChoiceCorrect.png","","","","","","","","","",""
"image-keyboard-response","313","969981","0.0-3.0-6.0-1.0-0.59","659d779096ebe05ecca2ebce","6662009ae78f21dd82fcd179","66620c1e5f017f31576c0482","684","","f","","","","","","","","./tasks/HMM-beads/Images/NewTrialWC.png","lowH","1","59","1","0","1","0","true","",""
"image-keyboard-response","314","970284","0.0-3.0-6.0-1.0-1.59","659d779096ebe05ecca2ebce","6662009ae78f21dd82fcd179","66620c1e5f017f31576c0482","null","","null","","","","","","","","./tasks/HMM-beads/Images/BlackBeadChoice.png","","","","","","","","","",""
"image-keyboard-response","315","970787","0.0-3.0-6.0-1.0-2.59","659d779096ebe05ecca2ebce","6662009ae78f21dd82fcd179","66620c1e5f017f31576c0482","null","","null","","","","","","","","./tasks/HMM-beads/Images/BlackBeadChoiceCorrect.png","","","","","","","","","",""
"image-keyboard-response","316","970840","0.0-3.0-6.0-1.0-0.60","659d779096ebe05ecca2ebce","6662009ae78f21dd82fcd179","66620c1e5f017f31576c0482","50","","f","","","","","","","","./tasks/HMM-beads/Images/NewTrialBC.png","lowH","1","60","1","1","0","0","false","",""
"image-keyboard-response","317","971143","0.0-3.0-6.0-1.0-1.60","659d779096ebe05ecca2ebce","6662009ae78f21dd82fcd179","66620c1e5f017f31576c0482","null","","null","","","","","","","","./tasks/HMM-beads/Images/BlackBeadChoice.png","","","","","","","","","",""
"image-keyboard-response","318","971647","0.0-3.0-6.0-1.0-2.60","659d779096ebe05ecca2ebce","6662009ae78f21dd82fcd179","66620c1e5f017f31576c0482","null","","null","","","","","","","","./tasks/HMM-beads/Images/BlackBeadChoiceWrong.png","","","","","","","","","",""
"image-keyboard-response","319","971715","0.0-3.0-6.0-1.0-0.61","659d779096ebe05ecca2ebce","6662009ae78f21dd82fcd179","66620c1e5f017f31576c0482","64","","f","","","","","","","","./tasks/HMM-beads/Images/NewTrialWC.png","lowH","1","61","1","1","1","0","false","",""
"image-keyboard-response","320","972019","0.0-3.0-6.0-1.0-1.61","659d779096ebe05ecca2ebce","6662009ae78f21dd82fcd179","66620c1e5f017f31576c0482","null","","null","","","","","","","","./tasks/HMM-beads/Images/BlackBeadChoice.png","","","","","","","","","",""
"image-keyboard-response","321","972522","0.0-3.0-6.0-1.0-2.61","659d779096ebe05ecca2ebce","6662009ae78f21dd82fcd179","66620c1e5f017f31576c0482","null","","null","","","","","","","","./tasks/HMM-beads/Images/BlackBeadChoiceWrong.png","","","","","","","","","",""
"image-keyboard-response","322","973138","0.0-3.0-6.0-1.0-0.62","659d779096ebe05ecca2ebce","6662009ae78f21dd82fcd179","66620c1e5f017f31576c0482","615","","j","","","","","","","","./tasks/HMM-beads/Images/NewTrialWC.png","lowH","1","62","1","0","1","1","false","",""
"image-keyboard-response","323","973454","0.0-3.0-6.0-1.0-1.62","659d779096ebe05ecca2ebce","6662009ae78f21dd82fcd179","66620c1e5f017f31576c0482","null","","null","","","","","","","","./tasks/HMM-beads/Images/WhiteBeadChoice.png","","","","","","","","","",""
"image-keyboard-response","324","973958","0.0-3.0-6.0-1.0-2.62","659d779096ebe05ecca2ebce","6662009ae78f21dd82fcd179","66620c1e5f017f31576c0482","null","","null","","","","","","","","./tasks/HMM-beads/Images/WhiteBeadChoiceWrong.png","","","","","","","","","",""
"image-keyboard-response","325","974592","0.0-3.0-6.0-1.0-0.63","659d779096ebe05ecca2ebce","6662009ae78f21dd82fcd179","66620c1e5f017f31576c0482","631","","j","","","","","","","","./tasks/HMM-beads/Images/NewTrialBC.png","lowH","1","63","1","1","0","1","true","",""
"image-keyboard-response","326","974895","0.0-3.0-6.0-1.0-1.63","659d779096ebe05ecca2ebce","6662009ae78f21dd82fcd179","66620c1e5f017f31576c0482","null","","null","","","","","","","","./tasks/HMM-beads/Images/WhiteBeadChoice.png","","","","","","","","","",""
"image-keyboard-response","327","975399","0.0-3.0-6.0-1.0-2.63","659d779096ebe05ecca2ebce","6662009ae78f21dd82fcd179","66620c1e5f017f31576c0482","null","","null","","","","","","","","./tasks/HMM-beads/Images/WhiteBeadChoiceCorrect.png","","","","","","","","","",""
"image-keyboard-response","328","975801","0.0-3.0-6.0-1.0-0.64","659d779096ebe05ecca2ebce","6662009ae78f21dd82fcd179","66620c1e5f017f31576c0482","400","","j","","","","","","","","./tasks/HMM-beads/Images/NewTrialWC.png","lowH","1","64","1","1","1","1","true","",""
"image-keyboard-response","329","976105","0.0-3.0-6.0-1.0-1.64","659d779096ebe05ecca2ebce","6662009ae78f21dd82fcd179","66620c1e5f017f31576c0482","null","","null","","","","","","","","./tasks/HMM-beads/Images/WhiteBeadChoice.png","","","","","","","","","",""
"image-keyboard-response","330","976609","0.0-3.0-6.0-1.0-2.64","659d779096ebe05ecca2ebce","6662009ae78f21dd82fcd179","66620c1e5f017f31576c0482","null","","null","","","","","","","","./tasks/HMM-beads/Images/WhiteBeadChoiceCorrect.png","","","","","","","","","",""
"image-keyboard-response","331","976985","0.0-3.0-6.0-1.0-0.65","659d779096ebe05ecca2ebce","6662009ae78f21dd82fcd179","66620c1e5f017f31576c0482","373","","f","","","","","","","","./tasks/HMM-beads/Images/NewTrialWC.png","lowH","1","65","1","1","1","0","false","",""
"image-keyboard-response","332","977288","0.0-3.0-6.0-1.0-1.65","659d779096ebe05ecca2ebce","6662009ae78f21dd82fcd179","66620c1e5f017f31576c0482","null","","null","","","","","","","","./tasks/HMM-beads/Images/BlackBeadChoice.png","","","","","","","","","",""
"image-keyboard-response","333","977792","0.0-3.0-6.0-1.0-2.65","659d779096ebe05ecca2ebce","6662009ae78f21dd82fcd179","66620c1e5f017f31576c0482","null","","null","","","","","","","","./tasks/HMM-beads/Images/BlackBeadChoiceWrong.png","","","","","","","","","",""
"image-keyboard-response","334","978259","0.0-3.0-6.0-1.0-0.66","659d779096ebe05ecca2ebce","6662009ae78f21dd82fcd179","66620c1e5f017f31576c0482","464","","j","","","","","","","","./tasks/HMM-beads/Images/NewTrialWC.png","lowH","1","66","1","1","1","1","true","",""
"image-keyboard-response","335","978563","0.0-3.0-6.0-1.0-1.66","659d779096ebe05ecca2ebce","6662009ae78f21dd82fcd179","66620c1e5f017f31576c0482","null","","null","","","","","","","","./tasks/HMM-beads/Images/WhiteBeadChoice.png","","","","","","","","","",""
"image-keyboard-response","336","979079","0.0-3.0-6.0-1.0-2.66","659d779096ebe05ecca2ebce","6662009ae78f21dd82fcd179","66620c1e5f017f31576c0482","null","","null","","","","","","","","./tasks/HMM-beads/Images/WhiteBeadChoiceCorrect.png","","","","","","","","","",""
"image-keyboard-response","337","979538","0.0-3.0-6.0-1.0-0.67","659d779096ebe05ecca2ebce","6662009ae78f21dd82fcd179","66620c1e5f017f31576c0482","456","","f","","","","","","","","./tasks/HMM-beads/Images/NewTrialWC.png","lowH","1","67","1","0","1","0","true","",""
"image-keyboard-response","338","979842","0.0-3.0-6.0-1.0-1.67","659d779096ebe05ecca2ebce","6662009ae78f21dd82fcd179","66620c1e5f017f31576c0482","null","","null","","","","","","","","./tasks/HMM-beads/Images/BlackBeadChoice.png","","","","","","","","","",""
"image-keyboard-response","339","980345","0.0-3.0-6.0-1.0-2.67","659d779096ebe05ecca2ebce","6662009ae78f21dd82fcd179","66620c1e5f017f31576c0482","null","","null","","","","","","","","./tasks/HMM-beads/Images/BlackBeadChoiceCorrect.png","","","","","","","","","",""
"image-keyboard-response","340","981586","0.0-3.0-6.0-1.0-0.68","659d779096ebe05ecca2ebce","6662009ae78f21dd82fcd179","66620c1e5f017f31576c0482","1238","","j","","","","","","","","./tasks/HMM-beads/Images/NewTrialBC.png","lowH","1","68","1","1","0","1","true","",""
"image-keyboard-response","341","981890","0.0-3.0-6.0-1.0-1.68","659d779096ebe05ecca2ebce","6662009ae78f21dd82fcd179","66620c1e5f017f31576c0482","null","","null","","","","","","","","./tasks/HMM-beads/Images/WhiteBeadChoice.png","","","","","","","","","",""
"image-keyboard-response","342","982395","0.0-3.0-6.0-1.0-2.68","659d779096ebe05ecca2ebce","6662009ae78f21dd82fcd179","66620c1e5f017f31576c0482","null","","null","","","","","","","","./tasks/HMM-beads/Images/WhiteBeadChoiceCorrect.png","","","","","","","","","",""
"image-keyboard-response","343","982526","0.0-3.0-6.0-1.0-0.69","659d779096ebe05ecca2ebce","6662009ae78f21dd82fcd179","66620c1e5f017f31576c0482","127","","j","","","","","","","","./tasks/HMM-beads/Images/NewTrialWC.png","lowH","1","69","0","1","1","1","true","",""
"image-keyboard-response","344","982829","0.0-3.0-6.0-1.0-1.69","659d779096ebe05ecca2ebce","6662009ae78f21dd82fcd179","66620c1e5f017f31576c0482","null","","null","","","","","","","","./tasks/HMM-beads/Images/WhiteBeadChoice.png","","","","","","","","","",""
"image-keyboard-response","345","983333","0.0-3.0-6.0-1.0-2.69","659d779096ebe05ecca2ebce","6662009ae78f21dd82fcd179","66620c1e5f017f31576c0482","null","","null","","","","","","","","./tasks/HMM-beads/Images/WhiteBeadChoiceCorrect.png","","","","","","","","","",""
"image-keyboard-response","346","983525","0.0-3.0-6.0-1.0-0.70","659d779096ebe05ecca2ebce","6662009ae78f21dd82fcd179","66620c1e5f017f31576c0482","190","","f","","","","","","","","./tasks/HMM-beads/Images/NewTrialWC.png","lowH","1","70","0","1","1","0","false","",""
"image-keyboard-response","347","983828","0.0-3.0-6.0-1.0-1.70","659d779096ebe05ecca2ebce","6662009ae78f21dd82fcd179","66620c1e5f017f31576c0482","null","","null","","","","","","","","./tasks/HMM-beads/Images/BlackBeadChoice.png","","","","","","","","","",""
"image-keyboard-response","348","984332","0.0-3.0-6.0-1.0-2.70","659d779096ebe05ecca2ebce","6662009ae78f21dd82fcd179","66620c1e5f017f31576c0482","null","","null","","","","","","","","./tasks/HMM-beads/Images/BlackBeadChoiceWrong.png","","","","","","","","","",""
"image-keyboard-response","349","984419","0.0-3.0-6.0-1.0-0.71","659d779096ebe05ecca2ebce","6662009ae78f21dd82fcd179","66620c1e5f017f31576c0482","84","","f","","","","","","","","./tasks/HMM-beads/Images/NewTrialWC.png","lowH","1","71","0","0","1","0","true","",""
"image-keyboard-response","350","984722","0.0-3.0-6.0-1.0-1.71","659d779096ebe05ecca2ebce","6662009ae78f21dd82fcd179","66620c1e5f017f31576c0482","null","","null","","","","","","","","./tasks/HMM-beads/Images/BlackBeadChoice.png","","","","","","","","","",""
"image-keyboard-response","351","985226","0.0-3.0-6.0-1.0-2.71","659d779096ebe05ecca2ebce","6662009ae78f21dd82fcd179","66620c1e5f017f31576c0482","null","","null","","","","","","","","./tasks/HMM-beads/Images/BlackBeadChoiceCorrect.png","","","","","","","","","",""
"image-keyboard-response","352","985918","0.0-3.0-6.0-1.0-0.72","659d779096ebe05ecca2ebce","6662009ae78f21dd82fcd179","66620c1e5f017f31576c0482","689","","j","","","","","","","","./tasks/HMM-beads/Images/NewTrialBC.png","lowH","1","72","0","0","0","1","false","",""
"image-keyboard-response","353","986222","0.0-3.0-6.0-1.0-1.72","659d779096ebe05ecca2ebce","6662009ae78f21dd82fcd179","66620c1e5f017f31576c0482","null","","null","","","","","","","","./tasks/HMM-beads/Images/WhiteBeadChoice.png","","","","","","","","","",""
"image-keyboard-response","354","986725","0.0-3.0-6.0-1.0-2.72","659d779096ebe05ecca2ebce","6662009ae78f21dd82fcd179","66620c1e5f017f31576c0482","null","","null","","","","","","","","./tasks/HMM-beads/Images/WhiteBeadChoiceWrong.png","","","","","","","","","",""
"image-keyboard-response","355","986757","0.0-3.0-6.0-1.0-0.73","659d779096ebe05ecca2ebce","6662009ae78f21dd82fcd179","66620c1e5f017f31576c0482","29","","f","","","","","","","","./tasks/HMM-beads/Images/NewTrialBC.png","lowH","1","73","0","1","0","0","false","",""
"image-keyboard-response","356","987061","0.0-3.0-6.0-1.0-1.73","659d779096ebe05ecca2ebce","6662009ae78f21dd82fcd179","66620c1e5f017f31576c0482","null","","null","","","","","","","","./tasks/HMM-beads/Images/BlackBeadChoice.png","","","","","","","","","",""
"image-keyboard-response","357","987565","0.0-3.0-6.0-1.0-2.73","659d779096ebe05ecca2ebce","6662009ae78f21dd82fcd179","66620c1e5f017f31576c0482","null","","null","","","","","","","","./tasks/HMM-beads/Images/BlackBeadChoiceWrong.png","","","","","","","","","",""
"image-keyboard-response","358","988282","0.0-3.0-6.0-1.0-0.74","659d779096ebe05ecca2ebce","6662009ae78f21dd82fcd179","66620c1e5f017f31576c0482","714","","f","","","","","","","","./tasks/HMM-beads/Images/NewTrialWC.png","lowH","1","74","0","0","1","0","true","",""
"image-keyboard-response","359","988585","0.0-3.0-6.0-1.0-1.74","659d779096ebe05ecca2ebce","6662009ae78f21dd82fcd179","66620c1e5f017f31576c0482","null","","null","","","","","","","","./tasks/HMM-beads/Images/BlackBeadChoice.png","","","","","","","","","",""
"image-keyboard-response","360","989088","0.0-3.0-6.0-1.0-2.74","659d779096ebe05ecca2ebce","6662009ae78f21dd82fcd179","66620c1e5f017f31576c0482","null","","null","","","","","","","","./tasks/HMM-beads/Images/BlackBeadChoiceCorrect.png","","","","","","","","","",""
"image-keyboard-response","361","989530","0.0-3.0-6.0-1.0-0.75","659d779096ebe05ecca2ebce","6662009ae78f21dd82fcd179","66620c1e5f017f31576c0482","438","","j","","","","","","","","./tasks/HMM-beads/Images/NewTrialBC.png","lowH","1","75","0","1","0","1","true","",""
"image-keyboard-response","362","989848","0.0-3.0-6.0-1.0-1.75","659d779096ebe05ecca2ebce","6662009ae78f21dd82fcd179","66620c1e5f017f31576c0482","null","","null","","","","","","","","./tasks/HMM-beads/Images/WhiteBeadChoice.png","","","","","","","","","",""
"image-keyboard-response","363","990351","0.0-3.0-6.0-1.0-2.75","659d779096ebe05ecca2ebce","6662009ae78f21dd82fcd179","66620c1e5f017f31576c0482","null","","null","","","","","","","","./tasks/HMM-beads/Images/WhiteBeadChoiceCorrect.png","","","","","","","","","",""
"image-keyboard-response","364","990719","0.0-3.0-6.0-1.0-0.76","659d779096ebe05ecca2ebce","6662009ae78f21dd82fcd179","66620c1e5f017f31576c0482","365","","f","","","","","","","","./tasks/HMM-beads/Images/NewTrialWC.png","lowH","1","76","0","1","1","0","false","",""
"image-keyboard-response","365","991024","0.0-3.0-6.0-1.0-1.76","659d779096ebe05ecca2ebce","6662009ae78f21dd82fcd179","66620c1e5f017f31576c0482","null","","null","","","","","","","","./tasks/HMM-beads/Images/BlackBeadChoice.png","","","","","","","","","",""
"image-keyboard-response","366","991528","0.0-3.0-6.0-1.0-2.76","659d779096ebe05ecca2ebce","6662009ae78f21dd82fcd179","66620c1e5f017f31576c0482","null","","null","","","","","","","","./tasks/HMM-beads/Images/BlackBeadChoiceWrong.png","","","","","","","","","",""
"image-keyboard-response","367","991564","0.0-3.0-6.0-1.0-0.77","659d779096ebe05ecca2ebce","6662009ae78f21dd82fcd179","66620c1e5f017f31576c0482","33","","j","","","","","","","","./tasks/HMM-beads/Images/NewTrialWC.png","lowH","1","77","0","0","1","1","false","",""
"image-keyboard-response","368","991866","0.0-3.0-6.0-1.0-1.77","659d779096ebe05ecca2ebce","6662009ae78f21dd82fcd179","66620c1e5f017f31576c0482","null","","null","","","","","","","","./tasks/HMM-beads/Images/WhiteBeadChoice.png","","","","","","","","","",""
"image-keyboard-response","369","992370","0.0-3.0-6.0-1.0-2.77","659d779096ebe05ecca2ebce","6662009ae78f21dd82fcd179","66620c1e5f017f31576c0482","null","","null","","","","","","","","./tasks/HMM-beads/Images/WhiteBeadChoiceWrong.png","","","","","","","","","",""
"image-keyboard-response","370","992384","0.0-3.0-6.0-1.0-0.78","659d779096ebe05ecca2ebce","6662009ae78f21dd82fcd179","66620c1e5f017f31576c0482","11","","j","","","","","","","","./tasks/HMM-beads/Images/NewTrialBC.png","lowH","1","78","0","0","0","1","false","",""
"image-keyboard-response","371","992688","0.0-3.0-6.0-1.0-1.78","659d779096ebe05ecca2ebce","6662009ae78f21dd82fcd179","66620c1e5f017f31576c0482","null","","null","","","","","","","","./tasks/HMM-beads/Images/WhiteBeadChoice.png","","","","","","","","","",""
