"trial_type","trial_index","time_elapsed","internal_node_id","subject_id","study_id","session_id","rt","url","response","question_order","view_history","success","timeout","failed_images","failed_audio","failed_video","stimulus","block","block_rep","trial_number","jar","bead","previous_bead","choice","correct","lowH_score","total_bonus"
"pavlovia","0","1338","0.0-0.0","63d151405b8e78eace7a44c3","6662009ae78f21dd82fcd179","66620929cb8948ab64ae8459","","","","","","","","","","","","","","","","","","","","",""
"external-html","1","26549","0.0-1.0-0.0","63d151405b8e78eace7a44c3","6662009ae78f21dd82fcd179","66620929cb8948ab64ae8459","25080","new_consent.html","","","","","","","","","","","","","","","","","","",""
"survey-multi-choice","2","33438","0.0-1.0-1.0","63d151405b8e78eace7a44c3","6662009ae78f21dd82fcd179","66620929cb8948ab64ae8459","6887","","{""Q0"":""Female"",""Q1"":""White""}","[0,1]","","","","","","","","","","","","","","","","",""
"survey-text","3","36960","0.0-1.0-2.0","63d151405b8e78eace7a44c3","6662009ae78f21dd82fcd179","66620929cb8948ab64ae8459","3517","","{""Q0"":""54""}","","","","","","","","","","","","","","","","","",""
"instructions","4","39379","0.0-2.0","63d151405b8e78eace7a44c3","6662009ae78f21dd82fcd179","66620929cb8948ab64ae8459","2303","","","","[{""page_index"":0,""viewing_time"":2302}]","","","","","","","","","","","","","","","",""
"preload","5","40367","0.0-3.0-0.0","63d151405b8e78eace7a44c3","6662009ae78f21dd82fcd179","66620929cb8948ab64ae8459","","","","","","true","false","[]","[]","[]","","","","","","","","","","",""
"instructions","6","320890","0.0-3.0-1.0","63d151405b8e78eace7a44c3","6662009ae78f21dd82fcd179","66620929cb8948ab64ae8459","280522","","","","[{""page_index"":0,""viewing_time"":108515},{""page_index"":1,""viewing_time"":32603},{""page_index"":2,""viewing_time"":13866},{""page_index"":3,""viewing_time"":1931},{""page_index"":4,""viewing_time"":8047},{""page_index"":5,""viewing_time"":70040},{""page_index"":6,""viewing_time"":6022},{""page_index"":7,""viewing_time"":4143},{""page_index"":8,""viewing_time"":5146},{""page_index"":9,""viewing_time"":6060},{""page_index"":8,""viewing_time"":9377},{""page_index"":9,""viewing_time"":4342},{""page_index"":10,""viewing_time"":8328},{""page_index"":11,""viewing_time"":2102}]","","","","","","","","","","","","","","","",""
"html-button-response","7","323926","0.0-3.0-2.0-0.0-0.0","63d151405b8e78eace7a44c3","6662009ae78f21dd82fcd179","66620929cb8948ab64ae8459","3035","","1","","","","","","","","<div align=center>Your goal is to predict…?<br><br></div>","","","","","","","","","",""
"html-button-response","8","330903","0.0-3.0-2.0-1.0-0.0","63d151405b8e78eace7a44c3","6662009ae78f21dd82fcd179","66620929cb8948ab64ae8459","4023","","2","","","","","","","","<div align=center>In the jar with mostly white beads, there are ___% white beads and ___% black beads?<br><br></div>","","","","","","","","","",""
"html-button-response","9","337614","0.0-3.0-2.0-2.0-0.0","63d151405b8e78eace7a44c3","6662009ae78f21dd82fcd179","66620929cb8948ab64ae8459","4924","","0","","","","","","","","<div align=center>When there is a 1% probability that the jars will switch, the next bead will most likely be drawn from the…<br><br></div>","","","","","","","","","",""
"html-button-response","10","343143","0.0-3.0-2.0-3.0-0.0","63d151405b8e78eace7a44c3","6662009ae78f21dd82fcd179","66620929cb8948ab64ae8459","3645","","0","","","","","","","","<div align=center>When there is a 99% probability that the jars will switch, the next bead will most likely be drawn from the…<br><br></div>","","","","","","","","","",""
"html-button-response","11","346467","0.0-3.0-2.0-3.1-0.1","63d151405b8e78eace7a44c3","6662009ae78f21dd82fcd179","66620929cb8948ab64ae8459","857","","1","","","","","","","","<div align=center>When there is a 99% probability that the jars will switch, the next bead will most likely be drawn from the…<br><br></div>","","","","","","","","","",""
"instructions","12","359776","0.0-3.0-3.0","63d151405b8e78eace7a44c3","6662009ae78f21dd82fcd179","66620929cb8948ab64ae8459","11969","","","","[{""page_index"":0,""viewing_time"":11968}]","","","","","","","","","","","","","","","",""
"html-keyboard-response","13","364831","0.0-3.0-4.0-0.0","63d151405b8e78eace7a44c3","6662009ae78f21dd82fcd179","66620929cb8948ab64ae8459","5056",""," ","","","","","","","","<div align=center>In this practice block, there will be a <b>1% chance</b> that the jar on the next trial will be different from the jar on the current trial.<br><br></div>","","","","","","","","","",""
"image-keyboard-response","14","369348","0.0-3.0-4.0-1.0-0.0","63d151405b8e78eace7a44c3","6662009ae78f21dd82fcd179","66620929cb8948ab64ae8459","4515","","j","","","","","","","","./tasks/HMM-beads/Images/NoChoice.png","practice","0","0","0","0","9","1","false","",""
"image-keyboard-response","15","369656","0.0-3.0-4.0-1.0-1.0","63d151405b8e78eace7a44c3","6662009ae78f21dd82fcd179","66620929cb8948ab64ae8459","null","","null","","","","","","","","./tasks/HMM-beads/Images/WhiteBeadChoice.png","","","","","","","","","",""
"image-keyboard-response","16","370166","0.0-3.0-4.0-1.0-2.0","63d151405b8e78eace7a44c3","6662009ae78f21dd82fcd179","66620929cb8948ab64ae8459","null","","null","","","","","","","","./tasks/HMM-beads/Images/WhiteBeadChoiceWrong.png","","","","","","","","","",""
"image-keyboard-response","17","371647","0.0-3.0-4.0-1.0-0.1","63d151405b8e78eace7a44c3","6662009ae78f21dd82fcd179","66620929cb8948ab64ae8459","1481","","f","","","","","","","","./tasks/HMM-beads/Images/NewTrialBC.png","practice","0","1","0","0","0","0","true","",""
"image-keyboard-response","18","371955","0.0-3.0-4.0-1.0-1.1","63d151405b8e78eace7a44c3","6662009ae78f21dd82fcd179","66620929cb8948ab64ae8459","null","","null","","","","","","","","./tasks/HMM-beads/Images/BlackBeadChoice.png","","","","","","","","","",""
"image-keyboard-response","19","372460","0.0-3.0-4.0-1.0-2.1","63d151405b8e78eace7a44c3","6662009ae78f21dd82fcd179","66620929cb8948ab64ae8459","null","","null","","","","","","","","./tasks/HMM-beads/Images/BlackBeadChoiceCorrect.png","","","","","","","","","",""
"image-keyboard-response","20","375236","0.0-3.0-4.0-1.0-0.2","63d151405b8e78eace7a44c3","6662009ae78f21dd82fcd179","66620929cb8948ab64ae8459","2774","","f","","","","","","","","./tasks/HMM-beads/Images/NewTrialBC.png","practice","0","2","0","1","0","0","false","",""
"image-keyboard-response","21","375543","0.0-3.0-4.0-1.0-1.2","63d151405b8e78eace7a44c3","6662009ae78f21dd82fcd179","66620929cb8948ab64ae8459","null","","null","","","","","","","","./tasks/HMM-beads/Images/BlackBeadChoice.png","","","","","","","","","",""
"image-keyboard-response","22","376050","0.0-3.0-4.0-1.0-2.2","63d151405b8e78eace7a44c3","6662009ae78f21dd82fcd179","66620929cb8948ab64ae8459","null","","null","","","","","","","","./tasks/HMM-beads/Images/BlackBeadChoiceWrong.png","","","","","","","","","",""
"image-keyboard-response","23","376727","0.0-3.0-4.0-1.0-0.3","63d151405b8e78eace7a44c3","6662009ae78f21dd82fcd179","66620929cb8948ab64ae8459","676","","j","","","","","","","","./tasks/HMM-beads/Images/NewTrialWC.png","practice","0","3","0","0","1","1","false","",""
"image-keyboard-response","24","377031","0.0-3.0-4.0-1.0-1.3","63d151405b8e78eace7a44c3","6662009ae78f21dd82fcd179","66620929cb8948ab64ae8459","null","","null","","","","","","","","./tasks/HMM-beads/Images/WhiteBeadChoice.png","","","","","","","","","",""
"image-keyboard-response","25","377547","0.0-3.0-4.0-1.0-2.3","63d151405b8e78eace7a44c3","6662009ae78f21dd82fcd179","66620929cb8948ab64ae8459","null","","null","","","","","","","","./tasks/HMM-beads/Images/WhiteBeadChoiceWrong.png","","","","","","","","","",""
"image-keyboard-response","26","378178","0.0-3.0-4.0-1.0-0.4","63d151405b8e78eace7a44c3","6662009ae78f21dd82fcd179","66620929cb8948ab64ae8459","630","","f","","","","","","","","./tasks/HMM-beads/Images/NewTrialBC.png","practice","0","4","0","0","0","0","true","",""
"image-keyboard-response","27","378485","0.0-3.0-4.0-1.0-1.4","63d151405b8e78eace7a44c3","6662009ae78f21dd82fcd179","66620929cb8948ab64ae8459","null","","null","","","","","","","","./tasks/HMM-beads/Images/BlackBeadChoice.png","","","","","","","","","",""
"image-keyboard-response","28","378991","0.0-3.0-4.0-1.0-2.4","63d151405b8e78eace7a44c3","6662009ae78f21dd82fcd179","66620929cb8948ab64ae8459","null","","null","","","","","","","","./tasks/HMM-beads/Images/BlackBeadChoiceCorrect.png","","","","","","","","","",""
"image-keyboard-response","29","379094","0.0-3.0-4.0-1.0-0.5","63d151405b8e78eace7a44c3","6662009ae78f21dd82fcd179","66620929cb8948ab64ae8459","102","","f","","","","","","","","./tasks/HMM-beads/Images/NewTrialBC.png","practice","0","5","0","1","0","0","false","",""
"image-keyboard-response","30","379406","0.0-3.0-4.0-1.0-1.5","63d151405b8e78eace7a44c3","6662009ae78f21dd82fcd179","66620929cb8948ab64ae8459","null","","null","","","","","","","","./tasks/HMM-beads/Images/BlackBeadChoice.png","","","","","","","","","",""
"image-keyboard-response","31","379918","0.0-3.0-4.0-1.0-2.5","63d151405b8e78eace7a44c3","6662009ae78f21dd82fcd179","66620929cb8948ab64ae8459","null","","null","","","","","","","","./tasks/HMM-beads/Images/BlackBeadChoiceWrong.png","","","","","","","","","",""
"image-keyboard-response","32","380150","0.0-3.0-4.0-1.0-0.6","63d151405b8e78eace7a44c3","6662009ae78f21dd82fcd179","66620929cb8948ab64ae8459","232","","j","","","","","","","","./tasks/HMM-beads/Images/NewTrialWC.png","practice","0","6","0","0","1","1","false","",""
"image-keyboard-response","33","380454","0.0-3.0-4.0-1.0-1.6","63d151405b8e78eace7a44c3","6662009ae78f21dd82fcd179","66620929cb8948ab64ae8459","null","","null","","","","","","","","./tasks/HMM-beads/Images/WhiteBeadChoice.png","","","","","","","","","",""
"image-keyboard-response","34","380967","0.0-3.0-4.0-1.0-2.6","63d151405b8e78eace7a44c3","6662009ae78f21dd82fcd179","66620929cb8948ab64ae8459","null","","null","","","","","","","","./tasks/HMM-beads/Images/WhiteBeadChoiceWrong.png","","","","","","","","","",""
"image-keyboard-response","35","381521","0.0-3.0-4.0-1.0-0.7","63d151405b8e78eace7a44c3","6662009ae78f21dd82fcd179","66620929cb8948ab64ae8459","553","","f","","","","","","","","./tasks/HMM-beads/Images/NewTrialBC.png","practice","0","7","0","0","0","0","true","",""
"image-keyboard-response","36","381833","0.0-3.0-4.0-1.0-1.7","63d151405b8e78eace7a44c3","6662009ae78f21dd82fcd179","66620929cb8948ab64ae8459","null","","null","","","","","","","","./tasks/HMM-beads/Images/BlackBeadChoice.png","","","","","","","","","",""
"image-keyboard-response","37","382335","0.0-3.0-4.0-1.0-2.7","63d151405b8e78eace7a44c3","6662009ae78f21dd82fcd179","66620929cb8948ab64ae8459","null","","null","","","","","","","","./tasks/HMM-beads/Images/BlackBeadChoiceCorrect.png","","","","","","","","","",""
"image-keyboard-response","38","382391","0.0-3.0-4.0-1.0-0.8","63d151405b8e78eace7a44c3","6662009ae78f21dd82fcd179","66620929cb8948ab64ae8459","54","","f","","","","","","","","./tasks/HMM-beads/Images/NewTrialBC.png","practice","0","8","0","0","0","0","true","",""
"image-keyboard-response","39","382695","0.0-3.0-4.0-1.0-1.8","63d151405b8e78eace7a44c3","6662009ae78f21dd82fcd179","66620929cb8948ab64ae8459","null","","null","","","","","","","","./tasks/HMM-beads/Images/BlackBeadChoice.png","","","","","","","","","",""
"image-keyboard-response","40","383199","0.0-3.0-4.0-1.0-2.8","63d151405b8e78eace7a44c3","6662009ae78f21dd82fcd179","66620929cb8948ab64ae8459","null","","null","","","","","","","","./tasks/HMM-beads/Images/BlackBeadChoiceCorrect.png","","","","","","","","","",""
"image-keyboard-response","41","383395","0.0-3.0-4.0-1.0-0.9","63d151405b8e78eace7a44c3","6662009ae78f21dd82fcd179","66620929cb8948ab64ae8459","194","","f","","","","","","","","./tasks/HMM-beads/Images/NewTrialBC.png","practice","0","9","0","1","0","0","false","",""
"image-keyboard-response","42","383701","0.0-3.0-4.0-1.0-1.9","63d151405b8e78eace7a44c3","6662009ae78f21dd82fcd179","66620929cb8948ab64ae8459","null","","null","","","","","","","","./tasks/HMM-beads/Images/BlackBeadChoice.png","","","","","","","","","",""
"image-keyboard-response","43","384208","0.0-3.0-4.0-1.0-2.9","63d151405b8e78eace7a44c3","6662009ae78f21dd82fcd179","66620929cb8948ab64ae8459","null","","null","","","","","","","","./tasks/HMM-beads/Images/BlackBeadChoiceWrong.png","","","","","","","","","",""
"image-keyboard-response","44","384284","0.0-3.0-4.0-1.0-0.10","63d151405b8e78eace7a44c3","6662009ae78f21dd82fcd179","66620929cb8948ab64ae8459","75","","j","","","","","","","","./tasks/HMM-beads/Images/NewTrialWC.png","practice","0","10","0","0","1","1","false","",""
"image-keyboard-response","45","384601","0.0-3.0-4.0-1.0-1.10","63d151405b8e78eace7a44c3","6662009ae78f21dd82fcd179","66620929cb8948ab64ae8459","null","","null","","","","","","","","./tasks/HMM-beads/Images/WhiteBeadChoice.png","","","","","","","","","",""
"image-keyboard-response","46","385113","0.0-3.0-4.0-1.0-2.10","63d151405b8e78eace7a44c3","6662009ae78f21dd82fcd179","66620929cb8948ab64ae8459","null","","null","","","","","","","","./tasks/HMM-beads/Images/WhiteBeadChoiceWrong.png","","","","","","","","","",""
"image-keyboard-response","47","385338","0.0-3.0-4.0-1.0-0.11","63d151405b8e78eace7a44c3","6662009ae78f21dd82fcd179","66620929cb8948ab64ae8459","224","","f","","","","","","","","./tasks/HMM-beads/Images/NewTrialBC.png","practice","0","11","0","1","0","0","false","",""
"image-keyboard-response","48","385648","0.0-3.0-4.0-1.0-1.11","63d151405b8e78eace7a44c3","6662009ae78f21dd82fcd179","66620929cb8948ab64ae8459","null","","null","","","","","","","","./tasks/HMM-beads/Images/BlackBeadChoice.png","","","","","","","","","",""
"image-keyboard-response","49","386163","0.0-3.0-4.0-1.0-2.11","63d151405b8e78eace7a44c3","6662009ae78f21dd82fcd179","66620929cb8948ab64ae8459","null","","null","","","","","","","","./tasks/HMM-beads/Images/BlackBeadChoiceWrong.png","","","","","","","","","",""
"image-keyboard-response","50","386846","0.0-3.0-4.0-1.0-0.12","63d151405b8e78eace7a44c3","6662009ae78f21dd82fcd179","66620929cb8948ab64ae8459","682","","j","","","","","","","","./tasks/HMM-beads/Images/NewTrialWC.png","practice","0","12","0","0","1","1","false","",""
"image-keyboard-response","51","387153","0.0-3.0-4.0-1.0-1.12","63d151405b8e78eace7a44c3","6662009ae78f21dd82fcd179","66620929cb8948ab64ae8459","null","","null","","","","","","","","./tasks/HMM-beads/Images/WhiteBeadChoice.png","","","","","","","","","",""
"image-keyboard-response","52","387663","0.0-3.0-4.0-1.0-2.12","63d151405b8e78eace7a44c3","6662009ae78f21dd82fcd179","66620929cb8948ab64ae8459","null","","null","","","","","","","","./tasks/HMM-beads/Images/WhiteBeadChoiceWrong.png","","","","","","","","","",""
"image-keyboard-response","53","388332","0.0-3.0-4.0-1.0-0.13","63d151405b8e78eace7a44c3","6662009ae78f21dd82fcd179","66620929cb8948ab64ae8459","669","","f","","","","","","","","./tasks/HMM-beads/Images/NewTrialBC.png","practice","0","13","0","0","0","0","true","",""
"image-keyboard-response","54","388637","0.0-3.0-4.0-1.0-1.13","63d151405b8e78eace7a44c3","6662009ae78f21dd82fcd179","66620929cb8948ab64ae8459","null","","null","","","","","","","","./tasks/HMM-beads/Images/BlackBeadChoice.png","","","","","","","","","",""
"image-keyboard-response","55","389152","0.0-3.0-4.0-1.0-2.13","63d151405b8e78eace7a44c3","6662009ae78f21dd82fcd179","66620929cb8948ab64ae8459","null","","null","","","","","","","","./tasks/HMM-beads/Images/BlackBeadChoiceCorrect.png","","","","","","","","","",""
"image-keyboard-response","56","389447","0.0-3.0-4.0-1.0-0.14","63d151405b8e78eace7a44c3","6662009ae78f21dd82fcd179","66620929cb8948ab64ae8459","293","","f","","","","","","","","./tasks/HMM-beads/Images/NewTrialBC.png","practice","0","14","0","0","0","0","true","",""
"image-keyboard-response","57","389758","0.0-3.0-4.0-1.0-1.14","63d151405b8e78eace7a44c3","6662009ae78f21dd82fcd179","66620929cb8948ab64ae8459","null","","null","","","","","","","","./tasks/HMM-beads/Images/BlackBeadChoice.png","","","","","","","","","",""
"image-keyboard-response","58","390275","0.0-3.0-4.0-1.0-2.14","63d151405b8e78eace7a44c3","6662009ae78f21dd82fcd179","66620929cb8948ab64ae8459","null","","null","","","","","","","","./tasks/HMM-beads/Images/BlackBeadChoiceCorrect.png","","","","","","","","","",""
"image-keyboard-response","59","390385","0.0-3.0-4.0-1.0-0.15","63d151405b8e78eace7a44c3","6662009ae78f21dd82fcd179","66620929cb8948ab64ae8459","108","","f","","","","","","","","./tasks/HMM-beads/Images/NewTrialBC.png","practice","0","15","0","0","0","0","true","",""
"image-keyboard-response","60","390691","0.0-3.0-4.0-1.0-1.15","63d151405b8e78eace7a44c3","6662009ae78f21dd82fcd179","66620929cb8948ab64ae8459","null","","null","","","","","","","","./tasks/HMM-beads/Images/BlackBeadChoice.png","","","","","","","","","",""
"image-keyboard-response","61","391201","0.0-3.0-4.0-1.0-2.15","63d151405b8e78eace7a44c3","6662009ae78f21dd82fcd179","66620929cb8948ab64ae8459","null","","null","","","","","","","","./tasks/HMM-beads/Images/BlackBeadChoiceCorrect.png","","","","","","","","","",""
"image-keyboard-response","62","392625","0.0-3.0-4.0-1.0-0.16","63d151405b8e78eace7a44c3","6662009ae78f21dd82fcd179","66620929cb8948ab64ae8459","1423","","f","","","","","","","","./tasks/HMM-beads/Images/NewTrialBC.png","practice","0","16","0","0","0","0","true","",""
"image-keyboard-response","63","392934","0.0-3.0-4.0-1.0-1.16","63d151405b8e78eace7a44c3","6662009ae78f21dd82fcd179","66620929cb8948ab64ae8459","null","","null","","","","","","","","./tasks/HMM-beads/Images/BlackBeadChoice.png","","","","","","","","","",""
"image-keyboard-response","64","393449","0.0-3.0-4.0-1.0-2.16","63d151405b8e78eace7a44c3","6662009ae78f21dd82fcd179","66620929cb8948ab64ae8459","null","","null","","","","","","","","./tasks/HMM-beads/Images/BlackBeadChoiceCorrect.png","","","","","","","","","",""
"image-keyboard-response","65","394467","0.0-3.0-4.0-1.0-0.17","63d151405b8e78eace7a44c3","6662009ae78f21dd82fcd179","66620929cb8948ab64ae8459","1018","","f","","","","","","","","./tasks/HMM-beads/Images/NewTrialBC.png","practice","0","17","0","0","0","0","true","",""
"image-keyboard-response","66","394770","0.0-3.0-4.0-1.0-1.17","63d151405b8e78eace7a44c3","6662009ae78f21dd82fcd179","66620929cb8948ab64ae8459","null","","null","","","","","","","","./tasks/HMM-beads/Images/BlackBeadChoice.png","","","","","","","","","",""
"image-keyboard-response","67","395273","0.0-3.0-4.0-1.0-2.17","63d151405b8e78eace7a44c3","6662009ae78f21dd82fcd179","66620929cb8948ab64ae8459","null","","null","","","","","","","","./tasks/HMM-beads/Images/BlackBeadChoiceCorrect.png","","","","","","","","","",""
"image-keyboard-response","68","395362","0.0-3.0-4.0-1.0-0.18","63d151405b8e78eace7a44c3","6662009ae78f21dd82fcd179","66620929cb8948ab64ae8459","88","","f","","","","","","","","./tasks/HMM-beads/Images/NewTrialBC.png","practice","0","18","0","1","0","0","false","",""
"image-keyboard-response","69","395676","0.0-3.0-4.0-1.0-1.18","63d151405b8e78eace7a44c3","6662009ae78f21dd82fcd179","66620929cb8948ab64ae8459","null","","null","","","","","","","","./tasks/HMM-beads/Images/BlackBeadChoice.png","","","","","","","","","",""
"image-keyboard-response","70","396182","0.0-3.0-4.0-1.0-2.18","63d151405b8e78eace7a44c3","6662009ae78f21dd82fcd179","66620929cb8948ab64ae8459","null","","null","","","","","","","","./tasks/HMM-beads/Images/BlackBeadChoiceWrong.png","","","","","","","","","",""
"image-keyboard-response","71","396343","0.0-3.0-4.0-1.0-0.19","63d151405b8e78eace7a44c3","6662009ae78f21dd82fcd179","66620929cb8948ab64ae8459","161","","j","","","","","","","","./tasks/HMM-beads/Images/NewTrialWC.png","practice","0","19","0","0","1","1","false","",""
"image-keyboard-response","72","396657","0.0-3.0-4.0-1.0-1.19","63d151405b8e78eace7a44c3","6662009ae78f21dd82fcd179","66620929cb8948ab64ae8459","null","","null","","","","","","","","./tasks/HMM-beads/Images/WhiteBeadChoice.png","","","","","","","","","",""
"image-keyboard-response","73","397168","0.0-3.0-4.0-1.0-2.19","63d151405b8e78eace7a44c3","6662009ae78f21dd82fcd179","66620929cb8948ab64ae8459","null","","null","","","","","","","","./tasks/HMM-beads/Images/WhiteBeadChoiceWrong.png","","","","","","","","","",""
"image-keyboard-response","74","397335","0.0-3.0-4.0-1.0-0.20","63d151405b8e78eace7a44c3","6662009ae78f21dd82fcd179","66620929cb8948ab64ae8459","165","","f","","","","","","","","./tasks/HMM-beads/Images/NewTrialBC.png","practice","0","20","0","0","0","0","true","",""
"image-keyboard-response","75","397638","0.0-3.0-4.0-1.0-1.20","63d151405b8e78eace7a44c3","6662009ae78f21dd82fcd179","66620929cb8948ab64ae8459","null","","null","","","","","","","","./tasks/HMM-beads/Images/BlackBeadChoice.png","","","","","","","","","",""
"image-keyboard-response","76","398149","0.0-3.0-4.0-1.0-2.20","63d151405b8e78eace7a44c3","6662009ae78f21dd82fcd179","66620929cb8948ab64ae8459","null","","null","","","","","","","","./tasks/HMM-beads/Images/BlackBeadChoiceCorrect.png","","","","","","","","","",""
"image-keyboard-response","77","398357","0.0-3.0-4.0-1.0-0.21","63d151405b8e78eace7a44c3","6662009ae78f21dd82fcd179","66620929cb8948ab64ae8459","207","","f","","","","","","","","./tasks/HMM-beads/Images/NewTrialBC.png","practice","0","21","0","1","0","0","false","",""
"image-keyboard-response","78","398674","0.0-3.0-4.0-1.0-1.21","63d151405b8e78eace7a44c3","6662009ae78f21dd82fcd179","66620929cb8948ab64ae8459","null","","null","","","","","","","","./tasks/HMM-beads/Images/BlackBeadChoice.png","","","","","","","","","",""
"image-keyboard-response","79","399183","0.0-3.0-4.0-1.0-2.21","63d151405b8e78eace7a44c3","6662009ae78f21dd82fcd179","66620929cb8948ab64ae8459","null","","null","","","","","","","","./tasks/HMM-beads/Images/BlackBeadChoiceWrong.png","","","","","","","","","",""
"image-keyboard-response","80","399309","0.0-3.0-4.0-1.0-0.22","63d151405b8e78eace7a44c3","6662009ae78f21dd82fcd179","66620929cb8948ab64ae8459","125","","j","","","","","","","","./tasks/HMM-beads/Images/NewTrialWC.png","practice","0","22","1","1","1","1","true","",""
"image-keyboard-response","81","399617","0.0-3.0-4.0-1.0-1.22","63d151405b8e78eace7a44c3","6662009ae78f21dd82fcd179","66620929cb8948ab64ae8459","null","","null","","","","","","","","./tasks/HMM-beads/Images/WhiteBeadChoice.png","","","","","","","","","",""
"image-keyboard-response","82","400125","0.0-3.0-4.0-1.0-2.22","63d151405b8e78eace7a44c3","6662009ae78f21dd82fcd179","66620929cb8948ab64ae8459","null","","null","","","","","","","","./tasks/HMM-beads/Images/WhiteBeadChoiceCorrect.png","","","","","","","","","",""
"image-keyboard-response","83","400567","0.0-3.0-4.0-1.0-0.23","63d151405b8e78eace7a44c3","6662009ae78f21dd82fcd179","66620929cb8948ab64ae8459","441","","j","","","","","","","","./tasks/HMM-beads/Images/NewTrialWC.png","practice","0","23","1","0","1","1","false","",""
"image-keyboard-response","84","400873","0.0-3.0-4.0-1.0-1.23","63d151405b8e78eace7a44c3","6662009ae78f21dd82fcd179","66620929cb8948ab64ae8459","null","","null","","","","","","","","./tasks/HMM-beads/Images/WhiteBeadChoice.png","","","","","","","","","",""
"image-keyboard-response","85","401389","0.0-3.0-4.0-1.0-2.23","63d151405b8e78eace7a44c3","6662009ae78f21dd82fcd179","66620929cb8948ab64ae8459","null","","null","","","","","","","","./tasks/HMM-beads/Images/WhiteBeadChoiceWrong.png","","","","","","","","","",""
"image-keyboard-response","86","401879","0.0-3.0-4.0-1.0-0.24","63d151405b8e78eace7a44c3","6662009ae78f21dd82fcd179","66620929cb8948ab64ae8459","488","","f","","","","","","","","./tasks/HMM-beads/Images/NewTrialBC.png","practice","0","24","1","1","0","0","false","",""
"image-keyboard-response","87","402185","0.0-3.0-4.0-1.0-1.24","63d151405b8e78eace7a44c3","6662009ae78f21dd82fcd179","66620929cb8948ab64ae8459","null","","null","","","","","","","","./tasks/HMM-beads/Images/BlackBeadChoice.png","","","","","","","","","",""
"image-keyboard-response","88","402699","0.0-3.0-4.0-1.0-2.24","63d151405b8e78eace7a44c3","6662009ae78f21dd82fcd179","66620929cb8948ab64ae8459","null","","null","","","","","","","","./tasks/HMM-beads/Images/BlackBeadChoiceWrong.png","","","","","","","","","",""
"image-keyboard-response","89","403521","0.0-3.0-4.0-1.0-0.25","63d151405b8e78eace7a44c3","6662009ae78f21dd82fcd179","66620929cb8948ab64ae8459","820","","j","","","","","","","","./tasks/HMM-beads/Images/NewTrialWC.png","practice","0","25","1","1","1","1","true","",""
"image-keyboard-response","90","403834","0.0-3.0-4.0-1.0-1.25","63d151405b8e78eace7a44c3","6662009ae78f21dd82fcd179","66620929cb8948ab64ae8459","null","","null","","","","","","","","./tasks/HMM-beads/Images/WhiteBeadChoice.png","","","","","","","","","",""
"image-keyboard-response","91","404349","0.0-3.0-4.0-1.0-2.25","63d151405b8e78eace7a44c3","6662009ae78f21dd82fcd179","66620929cb8948ab64ae8459","null","","null","","","","","","","","./tasks/HMM-beads/Images/WhiteBeadChoiceCorrect.png","","","","","","","","","",""
"image-keyboard-response","92","406248","0.0-3.0-4.0-1.0-0.26","63d151405b8e78eace7a44c3","6662009ae78f21dd82fcd179","66620929cb8948ab64ae8459","1897","","j","","","","","","","","./tasks/HMM-beads/Images/NewTrialWC.png","practice","0","26","1","1","1","1","true","",""
"image-keyboard-response","93","406557","0.0-3.0-4.0-1.0-1.26","63d151405b8e78eace7a44c3","6662009ae78f21dd82fcd179","66620929cb8948ab64ae8459","null","","null","","","","","","","","./tasks/HMM-beads/Images/WhiteBeadChoice.png","","","","","","","","","",""
"image-keyboard-response","94","407075","0.0-3.0-4.0-1.0-2.26","63d151405b8e78eace7a44c3","6662009ae78f21dd82fcd179","66620929cb8948ab64ae8459","null","","null","","","","","","","","./tasks/HMM-beads/Images/WhiteBeadChoiceCorrect.png","","","","","","","","","",""
"image-keyboard-response","95","407103","0.0-3.0-4.0-1.0-0.27","63d151405b8e78eace7a44c3","6662009ae78f21dd82fcd179","66620929cb8948ab64ae8459","26","","j","","","","","","","","./tasks/HMM-beads/Images/NewTrialWC.png","practice","0","27","1","1","1","1","true","",""
"image-keyboard-response","96","407410","0.0-3.0-4.0-1.0-1.27","63d151405b8e78eace7a44c3","6662009ae78f21dd82fcd179","66620929cb8948ab64ae8459","null","","null","","","","","","","","./tasks/HMM-beads/Images/WhiteBeadChoice.png","","","","","","","","","",""
"image-keyboard-response","97","407914","0.0-3.0-4.0-1.0-2.27","63d151405b8e78eace7a44c3","6662009ae78f21dd82fcd179","66620929cb8948ab64ae8459","null","","null","","","","","","","","./tasks/HMM-beads/Images/WhiteBeadChoiceCorrect.png","","","","","","","","","",""
"image-keyboard-response","98","407931","0.0-3.0-4.0-1.0-0.28","63d151405b8e78eace7a44c3","6662009ae78f21dd82fcd179","66620929cb8948ab64ae8459","14","","j","","","","","","","","./tasks/HMM-beads/Images/NewTrialWC.png","practice","0","28","1","0","1","1","false","",""
"image-keyboard-response","99","408245","0.0-3.0-4.0-1.0-1.28","63d151405b8e78eace7a44c3","6662009ae78f21dd82fcd179","66620929cb8948ab64ae8459","null","","null","","","","","","","","./tasks/HMM-beads/Images/WhiteBeadChoice.png","","","","","","","","","",""
"image-keyboard-response","100","408755","0.0-3.0-4.0-1.0-2.28","63d151405b8e78eace7a44c3","6662009ae78f21dd82fcd179","66620929cb8948ab64ae8459","null","","null","","","","","","","","./tasks/HMM-beads/Images/WhiteBeadChoiceWrong.png","","","","","","","","","",""
"image-keyboard-response","101","408890","0.0-3.0-4.0-1.0-0.29","63d151405b8e78eace7a44c3","6662009ae78f21dd82fcd179","66620929cb8948ab64ae8459","135","","f","","","","","","","","./tasks/HMM-beads/Images/NewTrialBC.png","practice","0","29","1","1","0","0","false","",""
"image-keyboard-response","102","409192","0.0-3.0-4.0-1.0-1.29","63d151405b8e78eace7a44c3","6662009ae78f21dd82fcd179","66620929cb8948ab64ae8459","null","","null","","","","","","","","./tasks/HMM-beads/Images/BlackBeadChoice.png","","","","","","","","","",""
"image-keyboard-response","103","409694","0.0-3.0-4.0-1.0-2.29","63d151405b8e78eace7a44c3","6662009ae78f21dd82fcd179","66620929cb8948ab64ae8459","null","","null","","","","","","","","./tasks/HMM-beads/Images/BlackBeadChoiceWrong.png","","","","","","","","","",""
"image-keyboard-response","104","410252","0.0-3.0-4.0-1.0-0.30","63d151405b8e78eace7a44c3","6662009ae78f21dd82fcd179","66620929cb8948ab64ae8459","556","","j","","","","","","","","./tasks/HMM-beads/Images/NewTrialWC.png","practice","0","30","1","0","1","1","false","",""
"image-keyboard-response","105","410566","0.0-3.0-4.0-1.0-1.30","63d151405b8e78eace7a44c3","6662009ae78f21dd82fcd179","66620929cb8948ab64ae8459","null","","null","","","","","","","","./tasks/HMM-beads/Images/WhiteBeadChoice.png","","","","","","","","","",""
"image-keyboard-response","106","411073","0.0-3.0-4.0-1.0-2.30","63d151405b8e78eace7a44c3","6662009ae78f21dd82fcd179","66620929cb8948ab64ae8459","null","","null","","","","","","","","./tasks/HMM-beads/Images/WhiteBeadChoiceWrong.png","","","","","","","","","",""
"image-keyboard-response","107","411654","0.0-3.0-4.0-1.0-0.31","63d151405b8e78eace7a44c3","6662009ae78f21dd82fcd179","66620929cb8948ab64ae8459","581","","f","","","","","","","","./tasks/HMM-beads/Images/NewTrialBC.png","practice","0","31","1","1","0","0","false","",""
"image-keyboard-response","108","411965","0.0-3.0-4.0-1.0-1.31","63d151405b8e78eace7a44c3","6662009ae78f21dd82fcd179","66620929cb8948ab64ae8459","null","","null","","","","","","","","./tasks/HMM-beads/Images/BlackBeadChoice.png","","","","","","","","","",""
"image-keyboard-response","109","412481","0.0-3.0-4.0-1.0-2.31","63d151405b8e78eace7a44c3","6662009ae78f21dd82fcd179","66620929cb8948ab64ae8459","null","","null","","","","","","","","./tasks/HMM-beads/Images/BlackBeadChoiceWrong.png","","","","","","","","","",""
"image-keyboard-response","110","412985","0.0-3.0-4.0-1.0-0.32","63d151405b8e78eace7a44c3","6662009ae78f21dd82fcd179","66620929cb8948ab64ae8459","503","","j","","","","","","","","./tasks/HMM-beads/Images/NewTrialWC.png","practice","0","32","1","1","1","1","true","",""
"image-keyboard-response","111","413301","0.0-3.0-4.0-1.0-1.32","63d151405b8e78eace7a44c3","6662009ae78f21dd82fcd179","66620929cb8948ab64ae8459","null","","null","","","","","","","","./tasks/HMM-beads/Images/WhiteBeadChoice.png","","","","","","","","","",""
"image-keyboard-response","112","413817","0.0-3.0-4.0-1.0-2.32","63d151405b8e78eace7a44c3","6662009ae78f21dd82fcd179","66620929cb8948ab64ae8459","null","","null","","","","","","","","./tasks/HMM-beads/Images/WhiteBeadChoiceCorrect.png","","","","","","","","","",""
"image-keyboard-response","113","414312","0.0-3.0-4.0-1.0-0.33","63d151405b8e78eace7a44c3","6662009ae78f21dd82fcd179","66620929cb8948ab64ae8459","495","","j","","","","","","","","./tasks/HMM-beads/Images/NewTrialWC.png","practice","0","33","1","1","1","1","true","",""
"image-keyboard-response","114","414624","0.0-3.0-4.0-1.0-1.33","63d151405b8e78eace7a44c3","6662009ae78f21dd82fcd179","66620929cb8948ab64ae8459","null","","null","","","","","","","","./tasks/HMM-beads/Images/WhiteBeadChoice.png","","","","","","","","","",""
"image-keyboard-response","115","415131","0.0-3.0-4.0-1.0-2.33","63d151405b8e78eace7a44c3","6662009ae78f21dd82fcd179","66620929cb8948ab64ae8459","null","","null","","","","","","","","./tasks/HMM-beads/Images/WhiteBeadChoiceCorrect.png","","","","","","","","","",""
"image-keyboard-response","116","415571","0.0-3.0-4.0-1.0-0.34","63d151405b8e78eace7a44c3","6662009ae78f21dd82fcd179","66620929cb8948ab64ae8459","439","","j","","","","","","","","./tasks/HMM-beads/Images/NewTrialWC.png","practice","0","34","1","1","1","1","true","",""
"image-keyboard-response","117","415887","0.0-3.0-4.0-1.0-1.34","63d151405b8e78eace7a44c3","6662009ae78f21dd82fcd179","66620929cb8948ab64ae8459","null","","null","","","","","","","","./tasks/HMM-beads/Images/WhiteBeadChoice.png","","","","","","","","","",""
"image-keyboard-response","118","416400","0.0-3.0-4.0-1.0-2.34","63d151405b8e78eace7a44c3","6662009ae78f21dd82fcd179","66620929cb8948ab64ae8459","null","","null","","","","","","","","./tasks/HMM-beads/Images/WhiteBeadChoiceCorrect.png","","","","","","","","","",""
"image-keyboard-response","119","416828","0.0-3.0-4.0-1.0-0.35","63d151405b8e78eace7a44c3","6662009ae78f21dd82fcd179","66620929cb8948ab64ae8459","426","","j","","","","","","","","./tasks/HMM-beads/Images/NewTrialWC.png","practice","0","35","1","1","1","1","true","",""
"image-keyboard-response","120","417143","0.0-3.0-4.0-1.0-1.35","63d151405b8e78eace7a44c3","6662009ae78f21dd82fcd179","66620929cb8948ab64ae8459","null","","null","","","","","","","","./tasks/HMM-beads/Images/WhiteBeadChoice.png","","","","","","","","","",""
"image-keyboard-response","121","417648","0.0-3.0-4.0-1.0-2.35","63d151405b8e78eace7a44c3","6662009ae78f21dd82fcd179","66620929cb8948ab64ae8459","null","","null","","","","","","","","./tasks/HMM-beads/Images/WhiteBeadChoiceCorrect.png","","","","","","","","","",""
"image-keyboard-response","122","417843","0.0-3.0-4.0-1.0-0.36","63d151405b8e78eace7a44c3","6662009ae78f21dd82fcd179","66620929cb8948ab64ae8459","193","","j","","","","","","","","./tasks/HMM-beads/Images/NewTrialWC.png","practice","0","36","1","0","1","1","false","",""
"image-keyboard-response","123","418151","0.0-3.0-4.0-1.0-1.36","63d151405b8e78eace7a44c3","6662009ae78f21dd82fcd179","66620929cb8948ab64ae8459","null","","null","","","","","","","","./tasks/HMM-beads/Images/WhiteBeadChoice.png","","","","","","","","","",""
"image-keyboard-response","124","418653","0.0-3.0-4.0-1.0-2.36","63d151405b8e78eace7a44c3","6662009ae78f21dd82fcd179","66620929cb8948ab64ae8459","null","","null","","","","","","","","./tasks/HMM-beads/Images/WhiteBeadChoiceWrong.png","","","","","","","","","",""
"image-keyboard-response","125","418763","0.0-3.0-4.0-1.0-0.37","63d151405b8e78eace7a44c3","6662009ae78f21dd82fcd179","66620929cb8948ab64ae8459","109","","f","","","","","","","","./tasks/HMM-beads/Images/NewTrialBC.png","practice","0","37","1","1","0","0","false","",""
"image-keyboard-response","126","419072","0.0-3.0-4.0-1.0-1.37","63d151405b8e78eace7a44c3","6662009ae78f21dd82fcd179","66620929cb8948ab64ae8459","null","","null","","","","","","","","./tasks/HMM-beads/Images/BlackBeadChoice.png","","","","","","","","","",""
"image-keyboard-response","127","419588","0.0-3.0-4.0-1.0-2.37","63d151405b8e78eace7a44c3","6662009ae78f21dd82fcd179","66620929cb8948ab64ae8459","null","","null","","","","","","","","./tasks/HMM-beads/Images/BlackBeadChoiceWrong.png","","","","","","","","","",""
"image-keyboard-response","128","419998","0.0-3.0-4.0-1.0-0.38","63d151405b8e78eace7a44c3","6662009ae78f21dd82fcd179","66620929cb8948ab64ae8459","409","","j","","","","","","","","./tasks/HMM-beads/Images/NewTrialWC.png","practice","0","38","1","1","1","1","true","",""
"image-keyboard-response","129","420313","0.0-3.0-4.0-1.0-1.38","63d151405b8e78eace7a44c3","6662009ae78f21dd82fcd179","66620929cb8948ab64ae8459","null","","null","","","","","","","","./tasks/HMM-beads/Images/WhiteBeadChoice.png","","","","","","","","","",""
"image-keyboard-response","130","420822","0.0-3.0-4.0-1.0-2.38","63d151405b8e78eace7a44c3","6662009ae78f21dd82fcd179","66620929cb8948ab64ae8459","null","","null","","","","","","","","./tasks/HMM-beads/Images/WhiteBeadChoiceCorrect.png","","","","","","","","","",""
"image-keyboard-response","131","421118","0.0-3.0-4.0-1.0-0.39","63d151405b8e78eace7a44c3","6662009ae78f21dd82fcd179","66620929cb8948ab64ae8459","295","","j","","","","","","","","./tasks/HMM-beads/Images/NewTrialWC.png","practice","0","39","1","1","1","1","true","",""
"image-keyboard-response","132","421421","0.0-3.0-4.0-1.0-1.39","63d151405b8e78eace7a44c3","6662009ae78f21dd82fcd179","66620929cb8948ab64ae8459","null","","null","","","","","","","","./tasks/HMM-beads/Images/WhiteBeadChoice.png","","","","","","","","","",""
"image-keyboard-response","133","421926","0.0-3.0-4.0-1.0-2.39","63d151405b8e78eace7a44c3","6662009ae78f21dd82fcd179","66620929cb8948ab64ae8459","null","","null","","","","","","","","./tasks/HMM-beads/Images/WhiteBeadChoiceCorrect.png","","","","","","","","","",""
"html-keyboard-response","134","424186","0.0-3.0-4.0-2.0","63d151405b8e78eace7a44c3","6662009ae78f21dd82fcd179","66620929cb8948ab64ae8459","2259",""," ","","","","","","","","","","","","","","","","","",""
"instructions","135","436825","0.0-3.0-5.0","63d151405b8e78eace7a44c3","6662009ae78f21dd82fcd179","66620929cb8948ab64ae8459","12638","","","","[{""page_index"":0,""viewing_time"":10131},{""page_index"":1,""viewing_time"":2506}]","","","","","","","","","","","","","","","",""
"html-keyboard-response","136","444415","0.0-3.0-6.0-0.0","63d151405b8e78eace7a44c3","6662009ae78f21dd82fcd179","66620929cb8948ab64ae8459","7588",""," ","","","","","","","","<div align=center>In this block, there will be a <b>1% chance</b> that the jar on the next trial will be different from the jar on the current trial.<br><br></div>","","","","","","","","","",""
"image-keyboard-response","137","446649","0.0-3.0-6.0-1.0-0.0","63d151405b8e78eace7a44c3","6662009ae78f21dd82fcd179","66620929cb8948ab64ae8459","2233","","f","","","","","","","","./tasks/HMM-beads/Images/NoChoice.png","lowH","1","0","1","0","9","0","true","",""
"image-keyboard-response","138","446954","0.0-3.0-6.0-1.0-1.0","63d151405b8e78eace7a44c3","6662009ae78f21dd82fcd179","66620929cb8948ab64ae8459","null","","null","","","","","","","","./tasks/HMM-beads/Images/BlackBeadChoice.png","","","","","","","","","",""
"image-keyboard-response","139","447468","0.0-3.0-6.0-1.0-2.0","63d151405b8e78eace7a44c3","6662009ae78f21dd82fcd179","66620929cb8948ab64ae8459","null","","null","","","","","","","","./tasks/HMM-beads/Images/BlackBeadChoiceCorrect.png","","","","","","","","","",""
"image-keyboard-response","140","448041","0.0-3.0-6.0-1.0-0.1","63d151405b8e78eace7a44c3","6662009ae78f21dd82fcd179","66620929cb8948ab64ae8459","572","","f","","","","","","","","./tasks/HMM-beads/Images/NewTrialBC.png","lowH","1","1","1","1","0","0","false","",""
"image-keyboard-response","141","448345","0.0-3.0-6.0-1.0-1.1","63d151405b8e78eace7a44c3","6662009ae78f21dd82fcd179","66620929cb8948ab64ae8459","null","","null","","","","","","","","./tasks/HMM-beads/Images/BlackBeadChoice.png","","","","","","","","","",""
"image-keyboard-response","142","448850","0.0-3.0-6.0-1.0-2.1","63d151405b8e78eace7a44c3","6662009ae78f21dd82fcd179","66620929cb8948ab64ae8459","null","","null","","","","","","","","./tasks/HMM-beads/Images/BlackBeadChoiceWrong.png","","","","","","","","","",""
"image-keyboard-response","143","449362","0.0-3.0-6.0-1.0-0.2","63d151405b8e78eace7a44c3","6662009ae78f21dd82fcd179","66620929cb8948ab64ae8459","509","","j","","","","","","","","./tasks/HMM-beads/Images/NewTrialWC.png","lowH","1","2","1","1","1","1","true","",""
"image-keyboard-response","144","449666","0.0-3.0-6.0-1.0-1.2","63d151405b8e78eace7a44c3","6662009ae78f21dd82fcd179","66620929cb8948ab64ae8459","null","","null","","","","","","","","./tasks/HMM-beads/Images/WhiteBeadChoice.png","","","","","","","","","",""
"image-keyboard-response","145","450184","0.0-3.0-6.0-1.0-2.2","63d151405b8e78eace7a44c3","6662009ae78f21dd82fcd179","66620929cb8948ab64ae8459","null","","null","","","","","","","","./tasks/HMM-beads/Images/WhiteBeadChoiceCorrect.png","","","","","","","","","",""
"image-keyboard-response","146","450602","0.0-3.0-6.0-1.0-0.3","63d151405b8e78eace7a44c3","6662009ae78f21dd82fcd179","66620929cb8948ab64ae8459","417","","j","","","","","","","","./tasks/HMM-beads/Images/NewTrialWC.png","lowH","1","3","1","1","1","1","true","",""
"image-keyboard-response","147","450906","0.0-3.0-6.0-1.0-1.3","63d151405b8e78eace7a44c3","6662009ae78f21dd82fcd179","66620929cb8948ab64ae8459","null","","null","","","","","","","","./tasks/HMM-beads/Images/WhiteBeadChoice.png","","","","","","","","","",""
"image-keyboard-response","148","451423","0.0-3.0-6.0-1.0-2.3","63d151405b8e78eace7a44c3","6662009ae78f21dd82fcd179","66620929cb8948ab64ae8459","null","","null","","","","","","","","./tasks/HMM-beads/Images/WhiteBeadChoiceCorrect.png","","","","","","","","","",""
"image-keyboard-response","149","451666","0.0-3.0-6.0-1.0-0.4","63d151405b8e78eace7a44c3","6662009ae78f21dd82fcd179","66620929cb8948ab64ae8459","242","","j","","","","","","","","./tasks/HMM-beads/Images/NewTrialWC.png","lowH","1","4","1","1","1","1","true","",""
"image-keyboard-response","150","451968","0.0-3.0-6.0-1.0-1.4","63d151405b8e78eace7a44c3","6662009ae78f21dd82fcd179","66620929cb8948ab64ae8459","null","","null","","","","","","","","./tasks/HMM-beads/Images/WhiteBeadChoice.png","","","","","","","","","",""
"image-keyboard-response","151","452485","0.0-3.0-6.0-1.0-2.4","63d151405b8e78eace7a44c3","6662009ae78f21dd82fcd179","66620929cb8948ab64ae8459","null","","null","","","","","","","","./tasks/HMM-beads/Images/WhiteBeadChoiceCorrect.png","","","","","","","","","",""
"image-keyboard-response","152","452580","0.0-3.0-6.0-1.0-0.5","63d151405b8e78eace7a44c3","6662009ae78f21dd82fcd179","66620929cb8948ab64ae8459","93","","j","","","","","","","","./tasks/HMM-beads/Images/NewTrialWC.png","lowH","1","5","1","1","1","1","true","",""
"image-keyboard-response","153","452885","0.0-3.0-6.0-1.0-1.5","63d151405b8e78eace7a44c3","6662009ae78f21dd82fcd179","66620929cb8948ab64ae8459","null","","null","","","","","","","","./tasks/HMM-beads/Images/WhiteBeadChoice.png","","","","","","","","","",""
"image-keyboard-response","154","453395","0.0-3.0-6.0-1.0-2.5","63d151405b8e78eace7a44c3","6662009ae78f21dd82fcd179","66620929cb8948ab64ae8459","null","","null","","","","","","","","./tasks/HMM-beads/Images/WhiteBeadChoiceCorrect.png","","","","","","","","","",""
"image-keyboard-response","155","453712","0.0-3.0-6.0-1.0-0.6","63d151405b8e78eace7a44c3","6662009ae78f21dd82fcd179","66620929cb8948ab64ae8459","316","","j","","","","","","","","./tasks/HMM-beads/Images/NewTrialWC.png","lowH","1","6","1","0","1","1","false","",""
"image-keyboard-response","156","454015","0.0-3.0-6.0-1.0-1.6","63d151405b8e78eace7a44c3","6662009ae78f21dd82fcd179","66620929cb8948ab64ae8459","null","","null","","","","","","","","./tasks/HMM-beads/Images/WhiteBeadChoice.png","","","","","","","","","",""
"image-keyboard-response","157","454528","0.0-3.0-6.0-1.0-2.6","63d151405b8e78eace7a44c3","6662009ae78f21dd82fcd179","66620929cb8948ab64ae8459","null","","null","","","","","","","","./tasks/HMM-beads/Images/WhiteBeadChoiceWrong.png","","","","","","","","","",""
"image-keyboard-response","158","454711","0.0-3.0-6.0-1.0-0.7","63d151405b8e78eace7a44c3","6662009ae78f21dd82fcd179","66620929cb8948ab64ae8459","182","","f","","","","","","","","./tasks/HMM-beads/Images/NewTrialBC.png","lowH","1","7","1","1","0","0","false","",""
"image-keyboard-response","159","455013","0.0-3.0-6.0-1.0-1.7","63d151405b8e78eace7a44c3","6662009ae78f21dd82fcd179","66620929cb8948ab64ae8459","null","","null","","","","","","","","./tasks/HMM-beads/Images/BlackBeadChoice.png","","","","","","","","","",""
"image-keyboard-response","160","455524","0.0-3.0-6.0-1.0-2.7","63d151405b8e78eace7a44c3","6662009ae78f21dd82fcd179","66620929cb8948ab64ae8459","null","","null","","","","","","","","./tasks/HMM-beads/Images/BlackBeadChoiceWrong.png","","","","","","","","","",""
"image-keyboard-response","161","455746","0.0-3.0-6.0-1.0-0.8","63d151405b8e78eace7a44c3","6662009ae78f21dd82fcd179","66620929cb8948ab64ae8459","222","","j","","","","","","","","./tasks/HMM-beads/Images/NewTrialWC.png","lowH","1","8","1","1","1","1","true","",""
"image-keyboard-response","162","456054","0.0-3.0-6.0-1.0-1.8","63d151405b8e78eace7a44c3","6662009ae78f21dd82fcd179","66620929cb8948ab64ae8459","null","","null","","","","","","","","./tasks/HMM-beads/Images/WhiteBeadChoice.png","","","","","","","","","",""
"image-keyboard-response","163","456567","0.0-3.0-6.0-1.0-2.8","63d151405b8e78eace7a44c3","6662009ae78f21dd82fcd179","66620929cb8948ab64ae8459","null","","null","","","","","","","","./tasks/HMM-beads/Images/WhiteBeadChoiceCorrect.png","","","","","","","","","",""
"image-keyboard-response","164","456794","0.0-3.0-6.0-1.0-0.9","63d151405b8e78eace7a44c3","6662009ae78f21dd82fcd179","66620929cb8948ab64ae8459","225","","j","","","","","","","","./tasks/HMM-beads/Images/NewTrialWC.png","lowH","1","9","1","1","1","1","true","",""
"image-keyboard-response","165","457101","0.0-3.0-6.0-1.0-1.9","63d151405b8e78eace7a44c3","6662009ae78f21dd82fcd179","66620929cb8948ab64ae8459","null","","null","","","","","","","","./tasks/HMM-beads/Images/WhiteBeadChoice.png","","","","","","","","","",""
"image-keyboard-response","166","457609","0.0-3.0-6.0-1.0-2.9","63d151405b8e78eace7a44c3","6662009ae78f21dd82fcd179","66620929cb8948ab64ae8459","null","","null","","","","","","","","./tasks/HMM-beads/Images/WhiteBeadChoiceCorrect.png","","","","","","","","","",""
"image-keyboard-response","167","457995","0.0-3.0-6.0-1.0-0.10","63d151405b8e78eace7a44c3","6662009ae78f21dd82fcd179","66620929cb8948ab64ae8459","385","","j","","","","","","","","./tasks/HMM-beads/Images/NewTrialWC.png","lowH","1","10","1","1","1","1","true","",""
"image-keyboard-response","168","458308","0.0-3.0-6.0-1.0-1.10","63d151405b8e78eace7a44c3","6662009ae78f21dd82fcd179","66620929cb8948ab64ae8459","null","","null","","","","","","","","./tasks/HMM-beads/Images/WhiteBeadChoice.png","","","","","","","","","",""
"image-keyboard-response","169","458826","0.0-3.0-6.0-1.0-2.10","63d151405b8e78eace7a44c3","6662009ae78f21dd82fcd179","66620929cb8948ab64ae8459","null","","null","","","","","","","","./tasks/HMM-beads/Images/WhiteBeadChoiceCorrect.png","","","","","","","","","",""
"image-keyboard-response","170","459214","0.0-3.0-6.0-1.0-0.11","63d151405b8e78eace7a44c3","6662009ae78f21dd82fcd179","66620929cb8948ab64ae8459","387","","j","","","","","","","","./tasks/HMM-beads/Images/NewTrialWC.png","lowH","1","11","1","1","1","1","true","",""
"image-keyboard-response","171","459526","0.0-3.0-6.0-1.0-1.11","63d151405b8e78eace7a44c3","6662009ae78f21dd82fcd179","66620929cb8948ab64ae8459","null","","null","","","","","","","","./tasks/HMM-beads/Images/WhiteBeadChoice.png","","","","","","","","","",""
"image-keyboard-response","172","460037","0.0-3.0-6.0-1.0-2.11","63d151405b8e78eace7a44c3","6662009ae78f21dd82fcd179","66620929cb8948ab64ae8459","null","","null","","","","","","","","./tasks/HMM-beads/Images/WhiteBeadChoiceCorrect.png","","","","","","","","","",""
"image-keyboard-response","173","460519","0.0-3.0-6.0-1.0-0.12","63d151405b8e78eace7a44c3","6662009ae78f21dd82fcd179","66620929cb8948ab64ae8459","481","","j","","","","","","","","./tasks/HMM-beads/Images/NewTrialWC.png","lowH","1","12","1","1","1","1","true","",""
"image-keyboard-response","174","460829","0.0-3.0-6.0-1.0-1.12","63d151405b8e78eace7a44c3","6662009ae78f21dd82fcd179","66620929cb8948ab64ae8459","null","","null","","","","","","","","./tasks/HMM-beads/Images/WhiteBeadChoice.png","","","","","","","","","",""
"image-keyboard-response","175","461344","0.0-3.0-6.0-1.0-2.12","63d151405b8e78eace7a44c3","6662009ae78f21dd82fcd179","66620929cb8948ab64ae8459","null","","null","","","","","","","","./tasks/HMM-beads/Images/WhiteBeadChoiceCorrect.png","","","","","","","","","",""
"image-keyboard-response","176","461545","0.0-3.0-6.0-1.0-0.13","63d151405b8e78eace7a44c3","6662009ae78f21dd82fcd179","66620929cb8948ab64ae8459","200","","j","","","","","","","","./tasks/HMM-beads/Images/NewTrialWC.png","lowH","1","13","1","0","1","1","false","",""
"image-keyboard-response","177","461853","0.0-3.0-6.0-1.0-1.13","63d151405b8e78eace7a44c3","6662009ae78f21dd82fcd179","66620929cb8948ab64ae8459","null","","null","","","","","","","","./tasks/HMM-beads/Images/WhiteBeadChoice.png","","","","","","","","","",""
"image-keyboard-response","178","462355","0.0-3.0-6.0-1.0-2.13","63d151405b8e78eace7a44c3","6662009ae78f21dd82fcd179","66620929cb8948ab64ae8459","null","","null","","","","","","","","./tasks/HMM-beads/Images/WhiteBeadChoiceWrong.png","","","","","","","","","",""
"image-keyboard-response","179","462782","0.0-3.0-6.0-1.0-0.14","63d151405b8e78eace7a44c3","6662009ae78f21dd82fcd179","66620929cb8948ab64ae8459","427","","f","","","","","","","","./tasks/HMM-beads/Images/NewTrialBC.png","lowH","1","14","1","0","0","0","true","",""
"image-keyboard-response","180","463092","0.0-3.0-6.0-1.0-1.14","63d151405b8e78eace7a44c3","6662009ae78f21dd82fcd179","66620929cb8948ab64ae8459","null","","null","","","","","","","","./tasks/HMM-beads/Images/BlackBeadChoice.png","","","","","","","","","",""
"image-keyboard-response","181","463598","0.0-3.0-6.0-1.0-2.14","63d151405b8e78eace7a44c3","6662009ae78f21dd82fcd179","66620929cb8948ab64ae8459","null","","null","","","","","","","","./tasks/HMM-beads/Images/BlackBeadChoiceCorrect.png","","","","","","","","","",""
"image-keyboard-response","182","463812","0.0-3.0-6.0-1.0-0.15","63d151405b8e78eace7a44c3","6662009ae78f21dd82fcd179","66620929cb8948ab64ae8459","213","","f","","","","","","","","./tasks/HMM-beads/Images/NewTrialBC.png","lowH","1","15","1","1","0","0","false","",""
"image-keyboard-response","183","464118","0.0-3.0-6.0-1.0-1.15","63d151405b8e78eace7a44c3","6662009ae78f21dd82fcd179","66620929cb8948ab64ae8459","null","","null","","","","","","","","./tasks/HMM-beads/Images/BlackBeadChoice.png","","","","","","","","","",""
"image-keyboard-response","184","464619","0.0-3.0-6.0-1.0-2.15","63d151405b8e78eace7a44c3","6662009ae78f21dd82fcd179","66620929cb8948ab64ae8459","null","","null","","","","","","","","./tasks/HMM-beads/Images/BlackBeadChoiceWrong.png","","","","","","","","","",""
"image-keyboard-response","185","465054","0.0-3.0-6.0-1.0-0.16","63d151405b8e78eace7a44c3","6662009ae78f21dd82fcd179","66620929cb8948ab64ae8459","434","","j","","","","","","","","./tasks/HMM-beads/Images/NewTrialWC.png","lowH","1","16","1","1","1","1","true","",""
"image-keyboard-response","186","465359","0.0-3.0-6.0-1.0-1.16","63d151405b8e78eace7a44c3","6662009ae78f21dd82fcd179","66620929cb8948ab64ae8459","null","","null","","","","","","","","./tasks/HMM-beads/Images/WhiteBeadChoice.png","","","","","","","","","",""
"image-keyboard-response","187","465871","0.0-3.0-6.0-1.0-2.16","63d151405b8e78eace7a44c3","6662009ae78f21dd82fcd179","66620929cb8948ab64ae8459","null","","null","","","","","","","","./tasks/HMM-beads/Images/WhiteBeadChoiceCorrect.png","","","","","","","","","",""
"image-keyboard-response","188","465894","0.0-3.0-6.0-1.0-0.17","63d151405b8e78eace7a44c3","6662009ae78f21dd82fcd179","66620929cb8948ab64ae8459","23","","j","","","","","","","","./tasks/HMM-beads/Images/NewTrialWC.png","lowH","1","17","1","1","1","1","true","",""
"image-keyboard-response","189","466196","0.0-3.0-6.0-1.0-1.17","63d151405b8e78eace7a44c3","6662009ae78f21dd82fcd179","66620929cb8948ab64ae8459","null","","null","","","","","","","","./tasks/HMM-beads/Images/WhiteBeadChoice.png","","","","","","","","","",""
"image-keyboard-response","190","466706","0.0-3.0-6.0-1.0-2.17","63d151405b8e78eace7a44c3","6662009ae78f21dd82fcd179","66620929cb8948ab64ae8459","null","","null","","","","","","","","./tasks/HMM-beads/Images/WhiteBeadChoiceCorrect.png","","","","","","","","","",""
"image-keyboard-response","191","467874","0.0-3.0-6.0-1.0-0.18","63d151405b8e78eace7a44c3","6662009ae78f21dd82fcd179","66620929cb8948ab64ae8459","1166","","j","","","","","","","","./tasks/HMM-beads/Images/NewTrialWC.png","lowH","1","18","1","1","1","1","true","",""
"image-keyboard-response","192","468185","0.0-3.0-6.0-1.0-1.18","63d151405b8e78eace7a44c3","6662009ae78f21dd82fcd179","66620929cb8948ab64ae8459","null","","null","","","","","","","","./tasks/HMM-beads/Images/WhiteBeadChoice.png","","","","","","","","","",""
"image-keyboard-response","193","468701","0.0-3.0-6.0-1.0-2.18","63d151405b8e78eace7a44c3","6662009ae78f21dd82fcd179","66620929cb8948ab64ae8459","null","","null","","","","","","","","./tasks/HMM-beads/Images/WhiteBeadChoiceCorrect.png","","","","","","","","","",""
"image-keyboard-response","194","469074","0.0-3.0-6.0-1.0-0.19","63d151405b8e78eace7a44c3","6662009ae78f21dd82fcd179","66620929cb8948ab64ae8459","372","","j","","","","","","","","./tasks/HMM-beads/Images/NewTrialWC.png","lowH","1","19","1","1","1","1","true","",""
"image-keyboard-response","195","469389","0.0-3.0-6.0-1.0-1.19","63d151405b8e78eace7a44c3","6662009ae78f21dd82fcd179","66620929cb8948ab64ae8459","null","","null","","","","","","","","./tasks/HMM-beads/Images/WhiteBeadChoice.png","","","","","","","","","",""
"image-keyboard-response","196","469898","0.0-3.0-6.0-1.0-2.19","63d151405b8e78eace7a44c3","6662009ae78f21dd82fcd179","66620929cb8948ab64ae8459","null","","null","","","","","","","","./tasks/HMM-beads/Images/WhiteBeadChoiceCorrect.png","","","","","","","","","",""
"image-keyboard-response","197","470275","0.0-3.0-6.0-1.0-0.20","63d151405b8e78eace7a44c3","6662009ae78f21dd82fcd179","66620929cb8948ab64ae8459","376","","j","","","","","","","","./tasks/HMM-beads/Images/NewTrialWC.png","lowH","1","20","1","1","1","1","true","",""
"image-keyboard-response","198","470584","0.0-3.0-6.0-1.0-1.20","63d151405b8e78eace7a44c3","6662009ae78f21dd82fcd179","66620929cb8948ab64ae8459","null","","null","","","","","","","","./tasks/HMM-beads/Images/WhiteBeadChoice.png","","","","","","","","","",""
"image-keyboard-response","199","471087","0.0-3.0-6.0-1.0-2.20","63d151405b8e78eace7a44c3","6662009ae78f21dd82fcd179","66620929cb8948ab64ae8459","null","","null","","","","","","","","./tasks/HMM-beads/Images/WhiteBeadChoiceCorrect.png","","","","","","","","","",""
"image-keyboard-response","200","471328","0.0-3.0-6.0-1.0-0.21","63d151405b8e78eace7a44c3","6662009ae78f21dd82fcd179","66620929cb8948ab64ae8459","240","","j","","","","","","","","./tasks/HMM-beads/Images/NewTrialWC.png","lowH","1","21","1","1","1","1","true","",""
"image-keyboard-response","201","471637","0.0-3.0-6.0-1.0-1.21","63d151405b8e78eace7a44c3","6662009ae78f21dd82fcd179","66620929cb8948ab64ae8459","null","","null","","","","","","","","./tasks/HMM-beads/Images/WhiteBeadChoice.png","","","","","","","","","",""
"image-keyboard-response","202","472143","0.0-3.0-6.0-1.0-2.21","63d151405b8e78eace7a44c3","6662009ae78f21dd82fcd179","66620929cb8948ab64ae8459","null","","null","","","","","","","","./tasks/HMM-beads/Images/WhiteBeadChoiceCorrect.png","","","","","","","","","",""
"image-keyboard-response","203","472299","0.0-3.0-6.0-1.0-0.22","63d151405b8e78eace7a44c3","6662009ae78f21dd82fcd179","66620929cb8948ab64ae8459","155","","j","","","","","","","","./tasks/HMM-beads/Images/NewTrialWC.png","lowH","1","22","1","1","1","1","true","",""
"image-keyboard-response","204","472608","0.0-3.0-6.0-1.0-1.22","63d151405b8e78eace7a44c3","6662009ae78f21dd82fcd179","66620929cb8948ab64ae8459","null","","null","","","","","","","","./tasks/HMM-beads/Images/WhiteBeadChoice.png","","","","","","","","","",""
"image-keyboard-response","205","473120","0.0-3.0-6.0-1.0-2.22","63d151405b8e78eace7a44c3","6662009ae78f21dd82fcd179","66620929cb8948ab64ae8459","null","","null","","","","","","","","./tasks/HMM-beads/Images/WhiteBeadChoiceCorrect.png","","","","","","","","","",""
"image-keyboard-response","206","473445","0.0-3.0-6.0-1.0-0.23","63d151405b8e78eace7a44c3","6662009ae78f21dd82fcd179","66620929cb8948ab64ae8459","323","","j","","","","","","","","./tasks/HMM-beads/Images/NewTrialWC.png","lowH","1","23","1","1","1","1","true","",""
"image-keyboard-response","207","473757","0.0-3.0-6.0-1.0-1.23","63d151405b8e78eace7a44c3","6662009ae78f21dd82fcd179","66620929cb8948ab64ae8459","null","","null","","","","","","","","./tasks/HMM-beads/Images/WhiteBeadChoice.png","","","","","","","","","",""
"image-keyboard-response","208","474260","0.0-3.0-6.0-1.0-2.23","63d151405b8e78eace7a44c3","6662009ae78f21dd82fcd179","66620929cb8948ab64ae8459","null","","null","","","","","","","","./tasks/HMM-beads/Images/WhiteBeadChoiceCorrect.png","","","","","","","","","",""
"image-keyboard-response","209","474529","0.0-3.0-6.0-1.0-0.24","63d151405b8e78eace7a44c3","6662009ae78f21dd82fcd179","66620929cb8948ab64ae8459","268","","j","","","","","","","","./tasks/HMM-beads/Images/NewTrialWC.png","lowH","1","24","1","0","1","1","false","",""
"image-keyboard-response","210","474841","0.0-3.0-6.0-1.0-1.24","63d151405b8e78eace7a44c3","6662009ae78f21dd82fcd179","66620929cb8948ab64ae8459","null","","null","","","","","","","","./tasks/HMM-beads/Images/WhiteBeadChoice.png","","","","","","","","","",""
"image-keyboard-response","211","475355","0.0-3.0-6.0-1.0-2.24","63d151405b8e78eace7a44c3","6662009ae78f21dd82fcd179","66620929cb8948ab64ae8459","null","","null","","","","","","","","./tasks/HMM-beads/Images/WhiteBeadChoiceWrong.png","","","","","","","","","",""
"image-keyboard-response","212","475526","0.0-3.0-6.0-1.0-0.25","63d151405b8e78eace7a44c3","6662009ae78f21dd82fcd179","66620929cb8948ab64ae8459","170","","f","","","","","","","","./tasks/HMM-beads/Images/NewTrialBC.png","lowH","1","25","1","1","0","0","false","",""
"image-keyboard-response","213","475841","0.0-3.0-6.0-1.0-1.25","63d151405b8e78eace7a44c3","6662009ae78f21dd82fcd179","66620929cb8948ab64ae8459","null","","null","","","","","","","","./tasks/HMM-beads/Images/BlackBeadChoice.png","","","","","","","","","",""
"image-keyboard-response","214","476357","0.0-3.0-6.0-1.0-2.25","63d151405b8e78eace7a44c3","6662009ae78f21dd82fcd179","66620929cb8948ab64ae8459","null","","null","","","","","","","","./tasks/HMM-beads/Images/BlackBeadChoiceWrong.png","","","","","","","","","",""
"image-keyboard-response","215","476407","0.0-3.0-6.0-1.0-0.26","63d151405b8e78eace7a44c3","6662009ae78f21dd82fcd179","66620929cb8948ab64ae8459","49","","j","","","","","","","","./tasks/HMM-beads/Images/NewTrialWC.png","lowH","1","26","1","0","1","1","false","",""
"image-keyboard-response","216","476720","0.0-3.0-6.0-1.0-1.26","63d151405b8e78eace7a44c3","6662009ae78f21dd82fcd179","66620929cb8948ab64ae8459","null","","null","","","","","","","","./tasks/HMM-beads/Images/WhiteBeadChoice.png","","","","","","","","","",""
"image-keyboard-response","217","477225","0.0-3.0-6.0-1.0-2.26","63d151405b8e78eace7a44c3","6662009ae78f21dd82fcd179","66620929cb8948ab64ae8459","null","","null","","","","","","","","./tasks/HMM-beads/Images/WhiteBeadChoiceWrong.png","","","","","","","","","",""
"image-keyboard-response","218","477411","0.0-3.0-6.0-1.0-0.27","63d151405b8e78eace7a44c3","6662009ae78f21dd82fcd179","66620929cb8948ab64ae8459","184","","f","","","","","","","","./tasks/HMM-beads/Images/NewTrialBC.png","lowH","1","27","1","1","0","0","false","",""
"image-keyboard-response","219","477715","0.0-3.0-6.0-1.0-1.27","63d151405b8e78eace7a44c3","6662009ae78f21dd82fcd179","66620929cb8948ab64ae8459","null","","null","","","","","","","","./tasks/HMM-beads/Images/BlackBeadChoice.png","","","","","","","","","",""
"image-keyboard-response","220","478223","0.0-3.0-6.0-1.0-2.27","63d151405b8e78eace7a44c3","6662009ae78f21dd82fcd179","66620929cb8948ab64ae8459","null","","null","","","","","","","","./tasks/HMM-beads/Images/BlackBeadChoiceWrong.png","","","","","","","","","",""
"image-keyboard-response","221","478402","0.0-3.0-6.0-1.0-0.28","63d151405b8e78eace7a44c3","6662009ae78f21dd82fcd179","66620929cb8948ab64ae8459","177","","j","","","","","","","","./tasks/HMM-beads/Images/NewTrialWC.png","lowH","1","28","1","1","1","1","true","",""
"image-keyboard-response","222","478706","0.0-3.0-6.0-1.0-1.28","63d151405b8e78eace7a44c3","6662009ae78f21dd82fcd179","66620929cb8948ab64ae8459","null","","null","","","","","","","","./tasks/HMM-beads/Images/WhiteBeadChoice.png","","","","","","","","","",""
"image-keyboard-response","223","479210","0.0-3.0-6.0-1.0-2.28","63d151405b8e78eace7a44c3","6662009ae78f21dd82fcd179","66620929cb8948ab64ae8459","null","","null","","","","","","","","./tasks/HMM-beads/Images/WhiteBeadChoiceCorrect.png","","","","","","","","","",""
"image-keyboard-response","224","479267","0.0-3.0-6.0-1.0-0.29","63d151405b8e78eace7a44c3","6662009ae78f21dd82fcd179","66620929cb8948ab64ae8459","57","","j","","","","","","","","./tasks/HMM-beads/Images/NewTrialWC.png","lowH","1","29","1","1","1","1","true","",""
"image-keyboard-response","225","479577","0.0-3.0-6.0-1.0-1.29","63d151405b8e78eace7a44c3","6662009ae78f21dd82fcd179","66620929cb8948ab64ae8459","null","","null","","","","","","","","./tasks/HMM-beads/Images/WhiteBeadChoice.png","","","","","","","","","",""
"image-keyboard-response","226","480080","0.0-3.0-6.0-1.0-2.29","63d151405b8e78eace7a44c3","6662009ae78f21dd82fcd179","66620929cb8948ab64ae8459","null","","null","","","","","","","","./tasks/HMM-beads/Images/WhiteBeadChoiceCorrect.png","","","","","","","","","",""
"image-keyboard-response","227","480894","0.0-3.0-6.0-1.0-0.30","63d151405b8e78eace7a44c3","6662009ae78f21dd82fcd179","66620929cb8948ab64ae8459","813","","j","","","","","","","","./tasks/HMM-beads/Images/NewTrialWC.png","lowH","1","30","1","1","1","1","true","",""
"image-keyboard-response","228","481203","0.0-3.0-6.0-1.0-1.30","63d151405b8e78eace7a44c3","6662009ae78f21dd82fcd179","66620929cb8948ab64ae8459","null","","null","","","","","","","","./tasks/HMM-beads/Images/WhiteBeadChoice.png","","","","","","","","","",""
"image-keyboard-response","229","481706","0.0-3.0-6.0-1.0-2.30","63d151405b8e78eace7a44c3","6662009ae78f21dd82fcd179","66620929cb8948ab64ae8459","null","","null","","","","","","","","./tasks/HMM-beads/Images/WhiteBeadChoiceCorrect.png","","","","","","","","","",""
"image-keyboard-response","230","482050","0.0-3.0-6.0-1.0-0.31","63d151405b8e78eace7a44c3","6662009ae78f21dd82fcd179","66620929cb8948ab64ae8459","343","","j","","","","","","","","./tasks/HMM-beads/Images/NewTrialWC.png","lowH","1","31","1","1","1","1","true","",""
"image-keyboard-response","231","482353","0.0-3.0-6.0-1.0-1.31","63d151405b8e78eace7a44c3","6662009ae78f21dd82fcd179","66620929cb8948ab64ae8459","null","","null","","","","","","","","./tasks/HMM-beads/Images/WhiteBeadChoice.png","","","","","","","","","",""
"image-keyboard-response","232","482863","0.0-3.0-6.0-1.0-2.31","63d151405b8e78eace7a44c3","6662009ae78f21dd82fcd179","66620929cb8948ab64ae8459","null","","null","","","","","","","","./tasks/HMM-beads/Images/WhiteBeadChoiceCorrect.png","","","","","","","","","",""
"image-keyboard-response","233","483170","0.0-3.0-6.0-1.0-0.32","63d151405b8e78eace7a44c3","6662009ae78f21dd82fcd179","66620929cb8948ab64ae8459","306","","j","","","","","","","","./tasks/HMM-beads/Images/NewTrialWC.png","lowH","1","32","1","1","1","1","true","",""
"image-keyboard-response","234","483474","0.0-3.0-6.0-1.0-1.32","63d151405b8e78eace7a44c3","6662009ae78f21dd82fcd179","66620929cb8948ab64ae8459","null","","null","","","","","","","","./tasks/HMM-beads/Images/WhiteBeadChoice.png","","","","","","","","","",""
"image-keyboard-response","235","483987","0.0-3.0-6.0-1.0-2.32","63d151405b8e78eace7a44c3","6662009ae78f21dd82fcd179","66620929cb8948ab64ae8459","null","","null","","","","","","","","./tasks/HMM-beads/Images/WhiteBeadChoiceCorrect.png","","","","","","","","","",""
"image-keyboard-response","236","484320","0.0-3.0-6.0-1.0-0.33","63d151405b8e78eace7a44c3","6662009ae78f21dd82fcd179","66620929cb8948ab64ae8459","331","","j","","","","","","","","./tasks/HMM-beads/Images/NewTrialWC.png","lowH","1","33","1","1","1","1","true","",""
"image-keyboard-response","237","484630","0.0-3.0-6.0-1.0-1.33","63d151405b8e78eace7a44c3","6662009ae78f21dd82fcd179","66620929cb8948ab64ae8459","null","","null","","","","","","","","./tasks/HMM-beads/Images/WhiteBeadChoice.png","","","","","","","","","",""
"image-keyboard-response","238","485136","0.0-3.0-6.0-1.0-2.33","63d151405b8e78eace7a44c3","6662009ae78f21dd82fcd179","66620929cb8948ab64ae8459","null","","null","","","","","","","","./tasks/HMM-beads/Images/WhiteBeadChoiceCorrect.png","","","","","","","","","",""
"image-keyboard-response","239","485369","0.0-3.0-6.0-1.0-0.34","63d151405b8e78eace7a44c3","6662009ae78f21dd82fcd179","66620929cb8948ab64ae8459","232","","j","","","","","","","","./tasks/HMM-beads/Images/NewTrialWC.png","lowH","1","34","1","1","1","1","true","",""
"image-keyboard-response","240","485674","0.0-3.0-6.0-1.0-1.34","63d151405b8e78eace7a44c3","6662009ae78f21dd82fcd179","66620929cb8948ab64ae8459","null","","null","","","","","","","","./tasks/HMM-beads/Images/WhiteBeadChoice.png","","","","","","","","","",""
"image-keyboard-response","241","486186","0.0-3.0-6.0-1.0-2.34","63d151405b8e78eace7a44c3","6662009ae78f21dd82fcd179","66620929cb8948ab64ae8459","null","","null","","","","","","","","./tasks/HMM-beads/Images/WhiteBeadChoiceCorrect.png","","","","","","","","","",""
"image-keyboard-response","242","486545","0.0-3.0-6.0-1.0-0.35","63d151405b8e78eace7a44c3","6662009ae78f21dd82fcd179","66620929cb8948ab64ae8459","357","","j","","","","","","","","./tasks/HMM-beads/Images/NewTrialWC.png","lowH","1","35","1","1","1","1","true","",""
"image-keyboard-response","243","486859","0.0-3.0-6.0-1.0-1.35","63d151405b8e78eace7a44c3","6662009ae78f21dd82fcd179","66620929cb8948ab64ae8459","null","","null","","","","","","","","./tasks/HMM-beads/Images/WhiteBeadChoice.png","","","","","","","","","",""
"image-keyboard-response","244","487366","0.0-3.0-6.0-1.0-2.35","63d151405b8e78eace7a44c3","6662009ae78f21dd82fcd179","66620929cb8948ab64ae8459","null","","null","","","","","","","","./tasks/HMM-beads/Images/WhiteBeadChoiceCorrect.png","","","","","","","","","",""
"image-keyboard-response","245","487631","0.0-3.0-6.0-1.0-0.36","63d151405b8e78eace7a44c3","6662009ae78f21dd82fcd179","66620929cb8948ab64ae8459","263","","j","","","","","","","","./tasks/HMM-beads/Images/NewTrialWC.png","lowH","1","36","1","1","1","1","true","",""
"image-keyboard-response","246","487936","0.0-3.0-6.0-1.0-1.36","63d151405b8e78eace7a44c3","6662009ae78f21dd82fcd179","66620929cb8948ab64ae8459","null","","null","","","","","","","","./tasks/HMM-beads/Images/WhiteBeadChoice.png","","","","","","","","","",""
"image-keyboard-response","247","488438","0.0-3.0-6.0-1.0-2.36","63d151405b8e78eace7a44c3","6662009ae78f21dd82fcd179","66620929cb8948ab64ae8459","null","","null","","","","","","","","./tasks/HMM-beads/Images/WhiteBeadChoiceCorrect.png","","","","","","","","","",""
"image-keyboard-response","248","488668","0.0-3.0-6.0-1.0-0.37","63d151405b8e78eace7a44c3","6662009ae78f21dd82fcd179","66620929cb8948ab64ae8459","229","","j","","","","","","","","./tasks/HMM-beads/Images/NewTrialWC.png","lowH","1","37","1","1","1","1","true","",""
"image-keyboard-response","249","488983","0.0-3.0-6.0-1.0-1.37","63d151405b8e78eace7a44c3","6662009ae78f21dd82fcd179","66620929cb8948ab64ae8459","null","","null","","","","","","","","./tasks/HMM-beads/Images/WhiteBeadChoice.png","","","","","","","","","",""
"image-keyboard-response","250","489489","0.0-3.0-6.0-1.0-2.37","63d151405b8e78eace7a44c3","6662009ae78f21dd82fcd179","66620929cb8948ab64ae8459","null","","null","","","","","","","","./tasks/HMM-beads/Images/WhiteBeadChoiceCorrect.png","","","","","","","","","",""
"image-keyboard-response","251","489789","0.0-3.0-6.0-1.0-0.38","63d151405b8e78eace7a44c3","6662009ae78f21dd82fcd179","66620929cb8948ab64ae8459","298","","j","","","","","","","","./tasks/HMM-beads/Images/NewTrialWC.png","lowH","1","38","1","1","1","1","true","",""
"image-keyboard-response","252","490095","0.0-3.0-6.0-1.0-1.38","63d151405b8e78eace7a44c3","6662009ae78f21dd82fcd179","66620929cb8948ab64ae8459","null","","null","","","","","","","","./tasks/HMM-beads/Images/WhiteBeadChoice.png","","","","","","","","","",""
"image-keyboard-response","253","490603","0.0-3.0-6.0-1.0-2.38","63d151405b8e78eace7a44c3","6662009ae78f21dd82fcd179","66620929cb8948ab64ae8459","null","","null","","","","","","","","./tasks/HMM-beads/Images/WhiteBeadChoiceCorrect.png","","","","","","","","","",""
"image-keyboard-response","254","490858","0.0-3.0-6.0-1.0-0.39","63d151405b8e78eace7a44c3","6662009ae78f21dd82fcd179","66620929cb8948ab64ae8459","254","","j","","","","","","","","./tasks/HMM-beads/Images/NewTrialWC.png","lowH","1","39","1","1","1","1","true","",""
"image-keyboard-response","255","491165","0.0-3.0-6.0-1.0-1.39","63d151405b8e78eace7a44c3","6662009ae78f21dd82fcd179","66620929cb8948ab64ae8459","null","","null","","","","","","","","./tasks/HMM-beads/Images/WhiteBeadChoice.png","","","","","","","","","",""
"image-keyboard-response","256","491673","0.0-3.0-6.0-1.0-2.39","63d151405b8e78eace7a44c3","6662009ae78f21dd82fcd179","66620929cb8948ab64ae8459","null","","null","","","","","","","","./tasks/HMM-beads/Images/WhiteBeadChoiceCorrect.png","","","","","","","","","",""
"image-keyboard-response","257","491925","0.0-3.0-6.0-1.0-0.40","63d151405b8e78eace7a44c3","6662009ae78f21dd82fcd179","66620929cb8948ab64ae8459","252","","j","","","","","","","","./tasks/HMM-beads/Images/NewTrialWC.png","lowH","1","40","1","1","1","1","true","",""
"image-keyboard-response","258","492239","0.0-3.0-6.0-1.0-1.40","63d151405b8e78eace7a44c3","6662009ae78f21dd82fcd179","66620929cb8948ab64ae8459","null","","null","","","","","","","","./tasks/HMM-beads/Images/WhiteBeadChoice.png","","","","","","","","","",""
"image-keyboard-response","259","492742","0.0-3.0-6.0-1.0-2.40","63d151405b8e78eace7a44c3","6662009ae78f21dd82fcd179","66620929cb8948ab64ae8459","null","","null","","","","","","","","./tasks/HMM-beads/Images/WhiteBeadChoiceCorrect.png","","","","","","","","","",""
"image-keyboard-response","260","493024","0.0-3.0-6.0-1.0-0.41","63d151405b8e78eace7a44c3","6662009ae78f21dd82fcd179","66620929cb8948ab64ae8459","281","","j","","","","","","","","./tasks/HMM-beads/Images/NewTrialWC.png","lowH","1","41","1","1","1","1","true","",""
"image-keyboard-response","261","493339","0.0-3.0-6.0-1.0-1.41","63d151405b8e78eace7a44c3","6662009ae78f21dd82fcd179","66620929cb8948ab64ae8459","null","","null","","","","","","","","./tasks/HMM-beads/Images/WhiteBeadChoice.png","","","","","","","","","",""
"image-keyboard-response","262","493858","0.0-3.0-6.0-1.0-2.41","63d151405b8e78eace7a44c3","6662009ae78f21dd82fcd179","66620929cb8948ab64ae8459","null","","null","","","","","","","","./tasks/HMM-beads/Images/WhiteBeadChoiceCorrect.png","","","","","","","","","",""
"image-keyboard-response","263","494260","0.0-3.0-6.0-1.0-0.42","63d151405b8e78eace7a44c3","6662009ae78f21dd82fcd179","66620929cb8948ab64ae8459","401","","f","","","","","","","","./tasks/HMM-beads/Images/NewTrialWC.png","lowH","1","42","1","1","1","0","false","",""
"image-keyboard-response","264","494561","0.0-3.0-6.0-1.0-1.42","63d151405b8e78eace7a44c3","6662009ae78f21dd82fcd179","66620929cb8948ab64ae8459","null","","null","","","","","","","","./tasks/HMM-beads/Images/BlackBeadChoice.png","","","","","","","","","",""
"image-keyboard-response","265","495068","0.0-3.0-6.0-1.0-2.42","63d151405b8e78eace7a44c3","6662009ae78f21dd82fcd179","66620929cb8948ab64ae8459","null","","null","","","","","","","","./tasks/HMM-beads/Images/BlackBeadChoiceWrong.png","","","","","","","","","",""
"image-keyboard-response","266","495171","0.0-3.0-6.0-1.0-0.43","63d151405b8e78eace7a44c3","6662009ae78f21dd82fcd179","66620929cb8948ab64ae8459","102","","j","","","","","","","","./tasks/HMM-beads/Images/NewTrialWC.png","lowH","1","43","1","1","1","1","true","",""
"image-keyboard-response","267","495473","0.0-3.0-6.0-1.0-1.43","63d151405b8e78eace7a44c3","6662009ae78f21dd82fcd179","66620929cb8948ab64ae8459","null","","null","","","","","","","","./tasks/HMM-beads/Images/WhiteBeadChoice.png","","","","","","","","","",""
"image-keyboard-response","268","495977","0.0-3.0-6.0-1.0-2.43","63d151405b8e78eace7a44c3","6662009ae78f21dd82fcd179","66620929cb8948ab64ae8459","null","","null","","","","","","","","./tasks/HMM-beads/Images/WhiteBeadChoiceCorrect.png","","","","","","","","","",""
"image-keyboard-response","269","496346","0.0-3.0-6.0-1.0-0.44","63d151405b8e78eace7a44c3","6662009ae78f21dd82fcd179","66620929cb8948ab64ae8459","367","","j","","","","","","","","./tasks/HMM-beads/Images/NewTrialWC.png","lowH","1","44","1","1","1","1","true","",""
"image-keyboard-response","270","496663","0.0-3.0-6.0-1.0-1.44","63d151405b8e78eace7a44c3","6662009ae78f21dd82fcd179","66620929cb8948ab64ae8459","null","","null","","","","","","","","./tasks/HMM-beads/Images/WhiteBeadChoice.png","","","","","","","","","",""
"image-keyboard-response","271","497170","0.0-3.0-6.0-1.0-2.44","63d151405b8e78eace7a44c3","6662009ae78f21dd82fcd179","66620929cb8948ab64ae8459","null","","null","","","","","","","","./tasks/HMM-beads/Images/WhiteBeadChoiceCorrect.png","","","","","","","","","",""
"image-keyboard-response","272","497409","0.0-3.0-6.0-1.0-0.45","63d151405b8e78eace7a44c3","6662009ae78f21dd82fcd179","66620929cb8948ab64ae8459","238","","j","","","","","","","","./tasks/HMM-beads/Images/NewTrialWC.png","lowH","1","45","1","1","1","1","true","",""
"image-keyboard-response","273","497717","0.0-3.0-6.0-1.0-1.45","63d151405b8e78eace7a44c3","6662009ae78f21dd82fcd179","66620929cb8948ab64ae8459","null","","null","","","","","","","","./tasks/HMM-beads/Images/WhiteBeadChoice.png","","","","","","","","","",""
"image-keyboard-response","274","498220","0.0-3.0-6.0-1.0-2.45","63d151405b8e78eace7a44c3","6662009ae78f21dd82fcd179","66620929cb8948ab64ae8459","null","","null","","","","","","","","./tasks/HMM-beads/Images/WhiteBeadChoiceCorrect.png","","","","","","","","","",""
"image-keyboard-response","275","498471","0.0-3.0-6.0-1.0-0.46","63d151405b8e78eace7a44c3","6662009ae78f21dd82fcd179","66620929cb8948ab64ae8459","249","","j","","","","","","","","./tasks/HMM-beads/Images/NewTrialWC.png","lowH","1","46","1","1","1","1","true","",""
"image-keyboard-response","276","498774","0.0-3.0-6.0-1.0-1.46","63d151405b8e78eace7a44c3","6662009ae78f21dd82fcd179","66620929cb8948ab64ae8459","null","","null","","","","","","","","./tasks/HMM-beads/Images/WhiteBeadChoice.png","","","","","","","","","",""
"image-keyboard-response","277","499281","0.0-3.0-6.0-1.0-2.46","63d151405b8e78eace7a44c3","6662009ae78f21dd82fcd179","66620929cb8948ab64ae8459","null","","null","","","","","","","","./tasks/HMM-beads/Images/WhiteBeadChoiceCorrect.png","","","","","","","","","",""
"image-keyboard-response","278","499939","0.0-3.0-6.0-1.0-0.47","63d151405b8e78eace7a44c3","6662009ae78f21dd82fcd179","66620929cb8948ab64ae8459","657","","j","","","","","","","","./tasks/HMM-beads/Images/NewTrialWC.png","lowH","1","47","1","0","1","1","false","",""
"image-keyboard-response","279","500246","0.0-3.0-6.0-1.0-1.47","63d151405b8e78eace7a44c3","6662009ae78f21dd82fcd179","66620929cb8948ab64ae8459","null","","null","","","","","","","","./tasks/HMM-beads/Images/WhiteBeadChoice.png","","","","","","","","","",""
"image-keyboard-response","280","500758","0.0-3.0-6.0-1.0-2.47","63d151405b8e78eace7a44c3","6662009ae78f21dd82fcd179","66620929cb8948ab64ae8459","null","","null","","","","","","","","./tasks/HMM-beads/Images/WhiteBeadChoiceWrong.png","","","","","","","","","",""
"image-keyboard-response","281","500931","0.0-3.0-6.0-1.0-0.48","63d151405b8e78eace7a44c3","6662009ae78f21dd82fcd179","66620929cb8948ab64ae8459","172","","f","","","","","","","","./tasks/HMM-beads/Images/NewTrialBC.png","lowH","1","48","1","0","0","0","true","",""
"image-keyboard-response","282","501246","0.0-3.0-6.0-1.0-1.48","63d151405b8e78eace7a44c3","6662009ae78f21dd82fcd179","66620929cb8948ab64ae8459","null","","null","","","","","","","","./tasks/HMM-beads/Images/BlackBeadChoice.png","","","","","","","","","",""
"image-keyboard-response","283","501756","0.0-3.0-6.0-1.0-2.48","63d151405b8e78eace7a44c3","6662009ae78f21dd82fcd179","66620929cb8948ab64ae8459","null","","null","","","","","","","","./tasks/HMM-beads/Images/BlackBeadChoiceCorrect.png","","","","","","","","","",""
"image-keyboard-response","284","501780","0.0-3.0-6.0-1.0-0.49","63d151405b8e78eace7a44c3","6662009ae78f21dd82fcd179","66620929cb8948ab64ae8459","22","","f","","","","","","","","./tasks/HMM-beads/Images/NewTrialBC.png","lowH","1","49","1","0","0","0","true","",""
"image-keyboard-response","285","502095","0.0-3.0-6.0-1.0-1.49","63d151405b8e78eace7a44c3","6662009ae78f21dd82fcd179","66620929cb8948ab64ae8459","null","","null","","","","","","","","./tasks/HMM-beads/Images/BlackBeadChoice.png","","","","","","","","","",""
"image-keyboard-response","286","502607","0.0-3.0-6.0-1.0-2.49","63d151405b8e78eace7a44c3","6662009ae78f21dd82fcd179","66620929cb8948ab64ae8459","null","","null","","","","","","","","./tasks/HMM-beads/Images/BlackBeadChoiceCorrect.png","","","","","","","","","",""
"image-keyboard-response","287","502758","0.0-3.0-6.0-1.0-0.50","63d151405b8e78eace7a44c3","6662009ae78f21dd82fcd179","66620929cb8948ab64ae8459","149","","f","","","","","","","","./tasks/HMM-beads/Images/NewTrialBC.png","lowH","1","50","1","1","0","0","false","",""
"image-keyboard-response","288","503064","0.0-3.0-6.0-1.0-1.50","63d151405b8e78eace7a44c3","6662009ae78f21dd82fcd179","66620929cb8948ab64ae8459","null","","null","","","","","","","","./tasks/HMM-beads/Images/BlackBeadChoice.png","","","","","","","","","",""
"image-keyboard-response","289","503571","0.0-3.0-6.0-1.0-2.50","63d151405b8e78eace7a44c3","6662009ae78f21dd82fcd179","66620929cb8948ab64ae8459","null","","null","","","","","","","","./tasks/HMM-beads/Images/BlackBeadChoiceWrong.png","","","","","","","","","",""
"image-keyboard-response","290","503716","0.0-3.0-6.0-1.0-0.51","63d151405b8e78eace7a44c3","6662009ae78f21dd82fcd179","66620929cb8948ab64ae8459","144","","j","","","","","","","","./tasks/HMM-beads/Images/NewTrialWC.png","lowH","1","51","1","1","1","1","true","",""
"image-keyboard-response","291","504021","0.0-3.0-6.0-1.0-1.51","63d151405b8e78eace7a44c3","6662009ae78f21dd82fcd179","66620929cb8948ab64ae8459","null","","null","","","","","","","","./tasks/HMM-beads/Images/WhiteBeadChoice.png","","","","","","","","","",""
"image-keyboard-response","292","504526","0.0-3.0-6.0-1.0-2.51","63d151405b8e78eace7a44c3","6662009ae78f21dd82fcd179","66620929cb8948ab64ae8459","null","","null","","","","","","","","./tasks/HMM-beads/Images/WhiteBeadChoiceCorrect.png","","","","","","","","","",""
"image-keyboard-response","293","504618","0.0-3.0-6.0-1.0-0.52","63d151405b8e78eace7a44c3","6662009ae78f21dd82fcd179","66620929cb8948ab64ae8459","89","","j","","","","","","","","./tasks/HMM-beads/Images/NewTrialWC.png","lowH","1","52","1","1","1","1","true","",""
"image-keyboard-response","294","504932","0.0-3.0-6.0-1.0-1.52","63d151405b8e78eace7a44c3","6662009ae78f21dd82fcd179","66620929cb8948ab64ae8459","null","","null","","","","","","","","./tasks/HMM-beads/Images/WhiteBeadChoice.png","","","","","","","","","",""
"image-keyboard-response","295","505441","0.0-3.0-6.0-1.0-2.52","63d151405b8e78eace7a44c3","6662009ae78f21dd82fcd179","66620929cb8948ab64ae8459","null","","null","","","","","","","","./tasks/HMM-beads/Images/WhiteBeadChoiceCorrect.png","","","","","","","","","",""
"image-keyboard-response","296","505581","0.0-3.0-6.0-1.0-0.53","63d151405b8e78eace7a44c3","6662009ae78f21dd82fcd179","66620929cb8948ab64ae8459","140","","j","","","","","","","","./tasks/HMM-beads/Images/NewTrialWC.png","lowH","1","53","1","1","1","1","true","",""
"image-keyboard-response","297","505891","0.0-3.0-6.0-1.0-1.53","63d151405b8e78eace7a44c3","6662009ae78f21dd82fcd179","66620929cb8948ab64ae8459","null","","null","","","","","","","","./tasks/HMM-beads/Images/WhiteBeadChoice.png","","","","","","","","","",""
"image-keyboard-response","298","506397","0.0-3.0-6.0-1.0-2.53","63d151405b8e78eace7a44c3","6662009ae78f21dd82fcd179","66620929cb8948ab64ae8459","null","","null","","","","","","","","./tasks/HMM-beads/Images/WhiteBeadChoiceCorrect.png","","","","","","","","","",""
"image-keyboard-response","299","506742","0.0-3.0-6.0-1.0-0.54","63d151405b8e78eace7a44c3","6662009ae78f21dd82fcd179","66620929cb8948ab64ae8459","343","","j","","","","","","","","./tasks/HMM-beads/Images/NewTrialWC.png","lowH","1","54","1","1","1","1","true","",""
"image-keyboard-response","300","507050","0.0-3.0-6.0-1.0-1.54","63d151405b8e78eace7a44c3","6662009ae78f21dd82fcd179","66620929cb8948ab64ae8459","null","","null","","","","","","","","./tasks/HMM-beads/Images/WhiteBeadChoice.png","","","","","","","","","",""
"image-keyboard-response","301","507565","0.0-3.0-6.0-1.0-2.54","63d151405b8e78eace7a44c3","6662009ae78f21dd82fcd179","66620929cb8948ab64ae8459","null","","null","","","","","","","","./tasks/HMM-beads/Images/WhiteBeadChoiceCorrect.png","","","","","","","","","",""
"image-keyboard-response","302","507702","0.0-3.0-6.0-1.0-0.55","63d151405b8e78eace7a44c3","6662009ae78f21dd82fcd179","66620929cb8948ab64ae8459","135","","j","","","","","","","","./tasks/HMM-beads/Images/NewTrialWC.png","lowH","1","55","1","1","1","1","true","",""
"image-keyboard-response","303","508017","0.0-3.0-6.0-1.0-1.55","63d151405b8e78eace7a44c3","6662009ae78f21dd82fcd179","66620929cb8948ab64ae8459","null","","null","","","","","","","","./tasks/HMM-beads/Images/WhiteBeadChoice.png","","","","","","","","","",""
"image-keyboard-response","304","508526","0.0-3.0-6.0-1.0-2.55","63d151405b8e78eace7a44c3","6662009ae78f21dd82fcd179","66620929cb8948ab64ae8459","null","","null","","","","","","","","./tasks/HMM-beads/Images/WhiteBeadChoiceCorrect.png","","","","","","","","","",""
"image-keyboard-response","305","508586","0.0-3.0-6.0-1.0-0.56","63d151405b8e78eace7a44c3","6662009ae78f21dd82fcd179","66620929cb8948ab64ae8459","59","","j","","","","","","","","./tasks/HMM-beads/Images/NewTrialWC.png","lowH","1","56","1","1","1","1","true","",""
"image-keyboard-response","306","508888","0.0-3.0-6.0-1.0-1.56","63d151405b8e78eace7a44c3","6662009ae78f21dd82fcd179","66620929cb8948ab64ae8459","null","","null","","","","","","","","./tasks/HMM-beads/Images/WhiteBeadChoice.png","","","","","","","","","",""
"image-keyboard-response","307","509396","0.0-3.0-6.0-1.0-2.56","63d151405b8e78eace7a44c3","6662009ae78f21dd82fcd179","66620929cb8948ab64ae8459","null","","null","","","","","","","","./tasks/HMM-beads/Images/WhiteBeadChoiceCorrect.png","","","","","","","","","",""
"image-keyboard-response","308","510261","0.0-3.0-6.0-1.0-0.57","63d151405b8e78eace7a44c3","6662009ae78f21dd82fcd179","66620929cb8948ab64ae8459","863","","j","","","","","","","","./tasks/HMM-beads/Images/NewTrialWC.png","lowH","1","57","1","1","1","1","true","",""
"image-keyboard-response","309","510569","0.0-3.0-6.0-1.0-1.57","63d151405b8e78eace7a44c3","6662009ae78f21dd82fcd179","66620929cb8948ab64ae8459","null","","null","","","","","","","","./tasks/HMM-beads/Images/WhiteBeadChoice.png","","","","","","","","","",""
"image-keyboard-response","310","511075","0.0-3.0-6.0-1.0-2.57","63d151405b8e78eace7a44c3","6662009ae78f21dd82fcd179","66620929cb8948ab64ae8459","null","","null","","","","","","","","./tasks/HMM-beads/Images/WhiteBeadChoiceCorrect.png","","","","","","","","","",""
"image-keyboard-response","311","511473","0.0-3.0-6.0-1.0-0.58","63d151405b8e78eace7a44c3","6662009ae78f21dd82fcd179","66620929cb8948ab64ae8459","398","","j","","","","","","","","./tasks/HMM-beads/Images/NewTrialWC.png","lowH","1","58","1","1","1","1","true","",""
"image-keyboard-response","312","511774","0.0-3.0-6.0-1.0-1.58","63d151405b8e78eace7a44c3","6662009ae78f21dd82fcd179","66620929cb8948ab64ae8459","null","","null","","","","","","","","./tasks/HMM-beads/Images/WhiteBeadChoice.png","","","","","","","","","",""
"image-keyboard-response","313","512287","0.0-3.0-6.0-1.0-2.58","63d151405b8e78eace7a44c3","6662009ae78f21dd82fcd179","66620929cb8948ab64ae8459","null","","null","","","","","","","","./tasks/HMM-beads/Images/WhiteBeadChoiceCorrect.png","","","","","","","","","",""
"image-keyboard-response","314","512657","0.0-3.0-6.0-1.0-0.59","63d151405b8e78eace7a44c3","6662009ae78f21dd82fcd179","66620929cb8948ab64ae8459","368","","f","","","","","","","","./tasks/HMM-beads/Images/NewTrialWC.png","lowH","1","59","1","0","1","0","true","",""
"image-keyboard-response","315","512965","0.0-3.0-6.0-1.0-1.59","63d151405b8e78eace7a44c3","6662009ae78f21dd82fcd179","66620929cb8948ab64ae8459","null","","null","","","","","","","","./tasks/HMM-beads/Images/BlackBeadChoice.png","","","","","","","","","",""
"image-keyboard-response","316","513474","0.0-3.0-6.0-1.0-2.59","63d151405b8e78eace7a44c3","6662009ae78f21dd82fcd179","66620929cb8948ab64ae8459","null","","null","","","","","","","","./tasks/HMM-beads/Images/BlackBeadChoiceCorrect.png","","","","","","","","","",""
"image-keyboard-response","317","513555","0.0-3.0-6.0-1.0-0.60","63d151405b8e78eace7a44c3","6662009ae78f21dd82fcd179","66620929cb8948ab64ae8459","80","","f","","","","","","","","./tasks/HMM-beads/Images/NewTrialBC.png","lowH","1","60","1","1","0","0","false","",""
"image-keyboard-response","318","513870","0.0-3.0-6.0-1.0-1.60","63d151405b8e78eace7a44c3","6662009ae78f21dd82fcd179","66620929cb8948ab64ae8459","null","","null","","","","","","","","./tasks/HMM-beads/Images/BlackBeadChoice.png","","","","","","","","","",""
"image-keyboard-response","319","514382","0.0-3.0-6.0-1.0-2.60","63d151405b8e78eace7a44c3","6662009ae78f21dd82fcd179","66620929cb8948ab64ae8459","null","","null","","","","","","","","./tasks/HMM-beads/Images/BlackBeadChoiceWrong.png","","","","","","","","","",""
"image-keyboard-response","320","514638","0.0-3.0-6.0-1.0-0.61","63d151405b8e78eace7a44c3","6662009ae78f21dd82fcd179","66620929cb8948ab64ae8459","255","","j","","","","","","","","./tasks/HMM-beads/Images/NewTrialWC.png","lowH","1","61","1","1","1","1","true","",""
"image-keyboard-response","321","514945","0.0-3.0-6.0-1.0-1.61","63d151405b8e78eace7a44c3","6662009ae78f21dd82fcd179","66620929cb8948ab64ae8459","null","","null","","","","","","","","./tasks/HMM-beads/Images/WhiteBeadChoice.png","","","","","","","","","",""
"image-keyboard-response","322","515457","0.0-3.0-6.0-1.0-2.61","63d151405b8e78eace7a44c3","6662009ae78f21dd82fcd179","66620929cb8948ab64ae8459","null","","null","","","","","","","","./tasks/HMM-beads/Images/WhiteBeadChoiceCorrect.png","","","","","","","","","",""
"image-keyboard-response","323","515810","0.0-3.0-6.0-1.0-0.62","63d151405b8e78eace7a44c3","6662009ae78f21dd82fcd179","66620929cb8948ab64ae8459","352","","j","","","","","","","","./tasks/HMM-beads/Images/NewTrialWC.png","lowH","1","62","1","0","1","1","false","",""
"image-keyboard-response","324","516117","0.0-3.0-6.0-1.0-1.62","63d151405b8e78eace7a44c3","6662009ae78f21dd82fcd179","66620929cb8948ab64ae8459","null","","null","","","","","","","","./tasks/HMM-beads/Images/WhiteBeadChoice.png","","","","","","","","","",""
"image-keyboard-response","325","516627","0.0-3.0-6.0-1.0-2.62","63d151405b8e78eace7a44c3","6662009ae78f21dd82fcd179","66620929cb8948ab64ae8459","null","","null","","","","","","","","./tasks/HMM-beads/Images/WhiteBeadChoiceWrong.png","","","","","","","","","",""
"image-keyboard-response","326","516876","0.0-3.0-6.0-1.0-0.63","63d151405b8e78eace7a44c3","6662009ae78f21dd82fcd179","66620929cb8948ab64ae8459","248","","f","","","","","","","","./tasks/HMM-beads/Images/NewTrialBC.png","lowH","1","63","1","1","0","0","false","",""
"image-keyboard-response","327","517194","0.0-3.0-6.0-1.0-1.63","63d151405b8e78eace7a44c3","6662009ae78f21dd82fcd179","66620929cb8948ab64ae8459","null","","null","","","","","","","","./tasks/HMM-beads/Images/BlackBeadChoice.png","","","","","","","","","",""
"image-keyboard-response","328","517707","0.0-3.0-6.0-1.0-2.63","63d151405b8e78eace7a44c3","6662009ae78f21dd82fcd179","66620929cb8948ab64ae8459","null","","null","","","","","","","","./tasks/HMM-beads/Images/BlackBeadChoiceWrong.png","","","","","","","","","",""
"image-keyboard-response","329","517754","0.0-3.0-6.0-1.0-0.64","63d151405b8e78eace7a44c3","6662009ae78f21dd82fcd179","66620929cb8948ab64ae8459","46","","j","","","","","","","","./tasks/HMM-beads/Images/NewTrialWC.png","lowH","1","64","1","1","1","1","true","",""
"image-keyboard-response","330","518070","0.0-3.0-6.0-1.0-1.64","63d151405b8e78eace7a44c3","6662009ae78f21dd82fcd179","66620929cb8948ab64ae8459","null","","null","","","","","","","","./tasks/HMM-beads/Images/WhiteBeadChoice.png","","","","","","","","","",""
"image-keyboard-response","331","518581","0.0-3.0-6.0-1.0-2.64","63d151405b8e78eace7a44c3","6662009ae78f21dd82fcd179","66620929cb8948ab64ae8459","null","","null","","","","","","","","./tasks/HMM-beads/Images/WhiteBeadChoiceCorrect.png","","","","","","","","","",""
"image-keyboard-response","332","519071","0.0-3.0-6.0-1.0-0.65","63d151405b8e78eace7a44c3","6662009ae78f21dd82fcd179","66620929cb8948ab64ae8459","489","","j","","","","","","","","./tasks/HMM-beads/Images/NewTrialWC.png","lowH","1","65","1","1","1","1","true","",""
"image-keyboard-response","333","519383","0.0-3.0-6.0-1.0-1.65","63d151405b8e78eace7a44c3","6662009ae78f21dd82fcd179","66620929cb8948ab64ae8459","null","","null","","","","","","","","./tasks/HMM-beads/Images/WhiteBeadChoice.png","","","","","","","","","",""
"image-keyboard-response","334","519899","0.0-3.0-6.0-1.0-2.65","63d151405b8e78eace7a44c3","6662009ae78f21dd82fcd179","66620929cb8948ab64ae8459","null","","null","","","","","","","","./tasks/HMM-beads/Images/WhiteBeadChoiceCorrect.png","","","","","","","","","",""
"image-keyboard-response","335","520090","0.0-3.0-6.0-1.0-0.66","63d151405b8e78eace7a44c3","6662009ae78f21dd82fcd179","66620929cb8948ab64ae8459","189","","j","","","","","","","","./tasks/HMM-beads/Images/NewTrialWC.png","lowH","1","66","1","1","1","1","true","",""
"image-keyboard-response","336","520402","0.0-3.0-6.0-1.0-1.66","63d151405b8e78eace7a44c3","6662009ae78f21dd82fcd179","66620929cb8948ab64ae8459","null","","null","","","","","","","","./tasks/HMM-beads/Images/WhiteBeadChoice.png","","","","","","","","","",""
"image-keyboard-response","337","520918","0.0-3.0-6.0-1.0-2.66","63d151405b8e78eace7a44c3","6662009ae78f21dd82fcd179","66620929cb8948ab64ae8459","null","","null","","","","","","","","./tasks/HMM-beads/Images/WhiteBeadChoiceCorrect.png","","","","","","","","","",""
"image-keyboard-response","338","521205","0.0-3.0-6.0-1.0-0.67","63d151405b8e78eace7a44c3","6662009ae78f21dd82fcd179","66620929cb8948ab64ae8459","285","","j","","","","","","","","./tasks/HMM-beads/Images/NewTrialWC.png","lowH","1","67","1","0","1","1","false","",""
"image-keyboard-response","339","521509","0.0-3.0-6.0-1.0-1.67","63d151405b8e78eace7a44c3","6662009ae78f21dd82fcd179","66620929cb8948ab64ae8459","null","","null","","","","","","","","./tasks/HMM-beads/Images/WhiteBeadChoice.png","","","","","","","","","",""
"image-keyboard-response","340","522012","0.0-3.0-6.0-1.0-2.67","63d151405b8e78eace7a44c3","6662009ae78f21dd82fcd179","66620929cb8948ab64ae8459","null","","null","","","","","","","","./tasks/HMM-beads/Images/WhiteBeadChoiceWrong.png","","","","","","","","","",""
"image-keyboard-response","341","522282","0.0-3.0-6.0-1.0-0.68","63d151405b8e78eace7a44c3","6662009ae78f21dd82fcd179","66620929cb8948ab64ae8459","270","","f","","","","","","","","./tasks/HMM-beads/Images/NewTrialBC.png","lowH","1","68","1","1","0","0","false","",""
"image-keyboard-response","342","522582","0.0-3.0-6.0-1.0-1.68","63d151405b8e78eace7a44c3","6662009ae78f21dd82fcd179","66620929cb8948ab64ae8459","null","","null","","","","","","","","./tasks/HMM-beads/Images/BlackBeadChoice.png","","","","","","","","","",""
"image-keyboard-response","343","523092","0.0-3.0-6.0-1.0-2.68","63d151405b8e78eace7a44c3","6662009ae78f21dd82fcd179","66620929cb8948ab64ae8459","null","","null","","","","","","","","./tasks/HMM-beads/Images/BlackBeadChoiceWrong.png","","","","","","","","","",""
"image-keyboard-response","344","523132","0.0-3.0-6.0-1.0-0.69","63d151405b8e78eace7a44c3","6662009ae78f21dd82fcd179","66620929cb8948ab64ae8459","39","","j","","","","","","","","./tasks/HMM-beads/Images/NewTrialWC.png","lowH","1","69","0","1","1","1","true","",""
"image-keyboard-response","345","523436","0.0-3.0-6.0-1.0-1.69","63d151405b8e78eace7a44c3","6662009ae78f21dd82fcd179","66620929cb8948ab64ae8459","null","","null","","","","","","","","./tasks/HMM-beads/Images/WhiteBeadChoice.png","","","","","","","","","",""
"image-keyboard-response","346","523940","0.0-3.0-6.0-1.0-2.69","63d151405b8e78eace7a44c3","6662009ae78f21dd82fcd179","66620929cb8948ab64ae8459","null","","null","","","","","","","","./tasks/HMM-beads/Images/WhiteBeadChoiceCorrect.png","","","","","","","","","",""
"image-keyboard-response","347","524497","0.0-3.0-6.0-1.0-0.70","63d151405b8e78eace7a44c3","6662009ae78f21dd82fcd179","66620929cb8948ab64ae8459","556","","j","","","","","","","","./tasks/HMM-beads/Images/NewTrialWC.png","lowH","1","70","0","1","1","1","true","",""
"image-keyboard-response","348","524806","0.0-3.0-6.0-1.0-1.70","63d151405b8e78eace7a44c3","6662009ae78f21dd82fcd179","66620929cb8948ab64ae8459","null","","null","","","","","","","","./tasks/HMM-beads/Images/WhiteBeadChoice.png","","","","","","","","","",""
"image-keyboard-response","349","525312","0.0-3.0-6.0-1.0-2.70","63d151405b8e78eace7a44c3","6662009ae78f21dd82fcd179","66620929cb8948ab64ae8459","null","","null","","","","","","","","./tasks/HMM-beads/Images/WhiteBeadChoiceCorrect.png","","","","","","","","","",""
"image-keyboard-response","350","525605","0.0-3.0-6.0-1.0-0.71","63d151405b8e78eace7a44c3","6662009ae78f21dd82fcd179","66620929cb8948ab64ae8459","292","","j","","","","","","","","./tasks/HMM-beads/Images/NewTrialWC.png","lowH","1","71","0","0","1","1","false","",""
"image-keyboard-response","351","525916","0.0-3.0-6.0-1.0-1.71","63d151405b8e78eace7a44c3","6662009ae78f21dd82fcd179","66620929cb8948ab64ae8459","null","","null","","","","","","","","./tasks/HMM-beads/Images/WhiteBeadChoice.png","","","","","","","","","",""
"image-keyboard-response","352","526433","0.0-3.0-6.0-1.0-2.71","63d151405b8e78eace7a44c3","6662009ae78f21dd82fcd179","66620929cb8948ab64ae8459","null","","null","","","","","","","","./tasks/HMM-beads/Images/WhiteBeadChoiceWrong.png","","","","","","","","","",""
"image-keyboard-response","353","526594","0.0-3.0-6.0-1.0-0.72","63d151405b8e78eace7a44c3","6662009ae78f21dd82fcd179","66620929cb8948ab64ae8459","158","","f","","","","","","","","./tasks/HMM-beads/Images/NewTrialBC.png","lowH","1","72","0","0","0","0","true","",""
"image-keyboard-response","354","526901","0.0-3.0-6.0-1.0-1.72","63d151405b8e78eace7a44c3","6662009ae78f21dd82fcd179","66620929cb8948ab64ae8459","null","","null","","","","","","","","./tasks/HMM-beads/Images/BlackBeadChoice.png","","","","","","","","","",""
"image-keyboard-response","355","527414","0.0-3.0-6.0-1.0-2.72","63d151405b8e78eace7a44c3","6662009ae78f21dd82fcd179","66620929cb8948ab64ae8459","null","","null","","","","","","","","./tasks/HMM-beads/Images/BlackBeadChoiceCorrect.png","","","","","","","","","",""
"image-keyboard-response","356","527990","0.0-3.0-6.0-1.0-0.73","63d151405b8e78eace7a44c3","6662009ae78f21dd82fcd179","66620929cb8948ab64ae8459","574","","f","","","","","","","","./tasks/HMM-beads/Images/NewTrialBC.png","lowH","1","73","0","1","0","0","false","",""
"image-keyboard-response","357","528293","0.0-3.0-6.0-1.0-1.73","63d151405b8e78eace7a44c3","6662009ae78f21dd82fcd179","66620929cb8948ab64ae8459","null","","null","","","","","","","","./tasks/HMM-beads/Images/BlackBeadChoice.png","","","","","","","","","",""
"image-keyboard-response","358","528796","0.0-3.0-6.0-1.0-2.73","63d151405b8e78eace7a44c3","6662009ae78f21dd82fcd179","66620929cb8948ab64ae8459","null","","null","","","","","","","","./tasks/HMM-beads/Images/BlackBeadChoiceWrong.png","","","","","","","","","",""
"image-keyboard-response","359","529000","0.0-3.0-6.0-1.0-0.74","63d151405b8e78eace7a44c3","6662009ae78f21dd82fcd179","66620929cb8948ab64ae8459","202","","j","","","","","","","","./tasks/HMM-beads/Images/NewTrialWC.png","lowH","1","74","0","0","1","1","false","",""
"image-keyboard-response","360","529315","0.0-3.0-6.0-1.0-1.74","63d151405b8e78eace7a44c3","6662009ae78f21dd82fcd179","66620929cb8948ab64ae8459","null","","null","","","","","","","","./tasks/HMM-beads/Images/WhiteBeadChoice.png","","","","","","","","","",""
"image-keyboard-response","361","529822","0.0-3.0-6.0-1.0-2.74","63d151405b8e78eace7a44c3","6662009ae78f21dd82fcd179","66620929cb8948ab64ae8459","null","","null","","","","","","","","./tasks/HMM-beads/Images/WhiteBeadChoiceWrong.png","","","","","","","","","",""
"image-keyboard-response","362","530079","0.0-3.0-6.0-1.0-0.75","63d151405b8e78eace7a44c3","6662009ae78f21dd82fcd179","66620929cb8948ab64ae8459","256","","f","","","","","","","","./tasks/HMM-beads/Images/NewTrialBC.png","lowH","1","75","0","1","0","0","false","",""
"image-keyboard-response","363","530390","0.0-3.0-6.0-1.0-1.75","63d151405b8e78eace7a44c3","6662009ae78f21dd82fcd179","66620929cb8948ab64ae8459","null","","null","","","","","","","","./tasks/HMM-beads/Images/BlackBeadChoice.png","","","","","","","","","",""
"image-keyboard-response","364","530906","0.0-3.0-6.0-1.0-2.75","63d151405b8e78eace7a44c3","6662009ae78f21dd82fcd179","66620929cb8948ab64ae8459","null","","null","","","","","","","","./tasks/HMM-beads/Images/BlackBeadChoiceWrong.png","","","","","","","","","",""
"image-keyboard-response","365","531139","0.0-3.0-6.0-1.0-0.76","63d151405b8e78eace7a44c3","6662009ae78f21dd82fcd179","66620929cb8948ab64ae8459","231","","j","","","","","","","","./tasks/HMM-beads/Images/NewTrialWC.png","lowH","1","76","0","1","1","1","true","",""
"image-keyboard-response","366","531448","0.0-3.0-6.0-1.0-1.76","63d151405b8e78eace7a44c3","6662009ae78f21dd82fcd179","66620929cb8948ab64ae8459","null","","null","","","","","","","","./tasks/HMM-beads/Images/WhiteBeadChoice.png","","","","","","","","","",""
"image-keyboard-response","367","531957","0.0-3.0-6.0-1.0-2.76","63d151405b8e78eace7a44c3","6662009ae78f21dd82fcd179","66620929cb8948ab64ae8459","null","","null","","","","","","","","./tasks/HMM-beads/Images/WhiteBeadChoiceCorrect.png","","","","","","","","","",""
"image-keyboard-response","368","532192","0.0-3.0-6.0-1.0-0.77","63d151405b8e78eace7a44c3","6662009ae78f21dd82fcd179","66620929cb8948ab64ae8459","233","","j","","","","","","","","./tasks/HMM-beads/Images/NewTrialWC.png","lowH","1","77","0","0","1","1","false","",""
"image-keyboard-response","369","532498","0.0-3.0-6.0-1.0-1.77","63d151405b8e78eace7a44c3","6662009ae78f21dd82fcd179","66620929cb8948ab64ae8459","null","","null","","","","","","","","./tasks/HMM-beads/Images/WhiteBeadChoice.png","","","","","","","","","",""
"image-keyboard-response","370","533003","0.0-3.0-6.0-1.0-2.77","63d151405b8e78eace7a44c3","6662009ae78f21dd82fcd179","66620929cb8948ab64ae8459","null","","null","","","","","","","","./tasks/HMM-beads/Images/WhiteBeadChoiceWrong.png","","","","","","","","","",""
"image-keyboard-response","371","533296","0.0-3.0-6.0-1.0-0.78","63d151405b8e78eace7a44c3","6662009ae78f21dd82fcd179","66620929cb8948ab64ae8459","292","","f","","","","","","","","./tasks/HMM-beads/Images/NewTrialBC.png","lowH","1","78","0","0","0","0","true","",""
"image-keyboard-response","372","533605","0.0-3.0-6.0-1.0-1.78","63d151405b8e78eace7a44c3","6662009ae78f21dd82fcd179","66620929cb8948ab64ae8459","null","","null","","","","","","","","./tasks/HMM-beads/Images/BlackBeadChoice.png","","","","","","","","","",""
"image-keyboard-response","373","534111","0.0-3.0-6.0-1.0-2.78","63d151405b8e78eace7a44c3","6662009ae78f21dd82fcd179","66620929cb8948ab64ae8459","null","","null","","","","","","","","./tasks/HMM-beads/Images/BlackBeadChoiceCorrect.png","","","","","","","","","",""
