"trial_type","trial_index","time_elapsed","internal_node_id","subject_id","study_id","session_id","rt","url","response","question_order","view_history","success","timeout","failed_images","failed_audio","failed_video","stimulus","block","block_rep","trial_number","jar","bead","previous_bead","choice","correct","lowH_score","total_bonus"
"pavlovia","0","790","0.0-0.0","60e2600a329d5ebfcb54b413","6662009ae78f21dd82fcd179","6662079f855fbcd7995bd50c","","","","","","","","","","","","","","","","","","","","",""
"external-html","1","8752","0.0-1.0-0.0","60e2600a329d5ebfcb54b413","6662009ae78f21dd82fcd179","6662079f855fbcd7995bd50c","7828","new_consent.html","","","","","","","","","","","","","","","","","","",""
"survey-multi-choice","2","17863","0.0-1.0-1.0","60e2600a329d5ebfcb54b413","6662009ae78f21dd82fcd179","6662079f855fbcd7995bd50c","9109","","{""Q0"":""Female"",""Q1"":""Black or African American""}","[0,1]","","","","","","","","","","","","","","","","",""
"survey-text","3","22010","0.0-1.0-2.0","60e2600a329d5ebfcb54b413","6662009ae78f21dd82fcd179","6662079f855fbcd7995bd50c","4144","","{""Q0"":""28""}","","","","","","","","","","","","","","","","","",""
"instructions","4","24174","0.0-2.0","60e2600a329d5ebfcb54b413","6662009ae78f21dd82fcd179","6662079f855fbcd7995bd50c","2056","","","","[{""page_index"":0,""viewing_time"":2056}]","","","","","","","","","","","","","","","",""
"preload","5","25314","0.0-3.0-0.0","60e2600a329d5ebfcb54b413","6662009ae78f21dd82fcd179","6662079f855fbcd7995bd50c","","","","","","true","false","[]","[]","[]","","","","","","","","","","",""
"instructions","6","125875","0.0-3.0-1.0","60e2600a329d5ebfcb54b413","6662009ae78f21dd82fcd179","6662079f855fbcd7995bd50c","100562","","","","[{""page_index"":0,""viewing_time"":14520},{""page_index"":1,""viewing_time"":6247},{""page_index"":2,""viewing_time"":4610},{""page_index"":3,""viewing_time"":4388},{""page_index"":4,""viewing_time"":11164},{""page_index"":5,""viewing_time"":15163},{""page_index"":6,""viewing_time"":5910},{""page_index"":7,""viewing_time"":9149},{""page_index"":8,""viewing_time"":5987},{""page_index"":9,""viewing_time"":13863},{""page_index"":10,""viewing_time"":6947},{""page_index"":11,""viewing_time"":2613}]","","","","","","","","","","","","","","","",""
"html-button-response","7","129990","0.0-3.0-2.0-0.0-0.0","60e2600a329d5ebfcb54b413","6662009ae78f21dd82fcd179","6662079f855fbcd7995bd50c","4113","","1","","","","","","","","<div align=center>Your goal is to predict…?<br><br></div>","","","","","","","","","",""
"html-button-response","8","136407","0.0-3.0-2.0-1.0-0.0","60e2600a329d5ebfcb54b413","6662009ae78f21dd82fcd179","6662079f855fbcd7995bd50c","4491","","2","","","","","","","","<div align=center>In the jar with mostly white beads, there are ___% white beads and ___% black beads?<br><br></div>","","","","","","","","","",""
"html-button-response","9","143760","0.0-3.0-2.0-2.0-0.0","60e2600a329d5ebfcb54b413","6662009ae78f21dd82fcd179","6662079f855fbcd7995bd50c","5774","","1","","","","","","","","<div align=center>When there is a 1% probability that the jars will switch, the next bead will most likely be drawn from the…<br><br></div>","","","","","","","","","",""
"html-button-response","10","154908","0.0-3.0-2.0-2.1-0.1","60e2600a329d5ebfcb54b413","6662009ae78f21dd82fcd179","6662079f855fbcd7995bd50c","1104","","0","","","","","","","","<div align=center>When there is a 1% probability that the jars will switch, the next bead will most likely be drawn from the…<br><br></div>","","","","","","","","","",""
"html-button-response","11","163353","0.0-3.0-2.0-3.0-0.0","60e2600a329d5ebfcb54b413","6662009ae78f21dd82fcd179","6662079f855fbcd7995bd50c","6740","","1","","","","","","","","<div align=center>When there is a 99% probability that the jars will switch, the next bead will most likely be drawn from the…<br><br></div>","","","","","","","","","",""
"instructions","12","185281","0.0-3.0-3.0","60e2600a329d5ebfcb54b413","6662009ae78f21dd82fcd179","6662079f855fbcd7995bd50c","20307","","","","[{""page_index"":0,""viewing_time"":20307}]","","","","","","","","","","","","","","","",""
"html-keyboard-response","13","190427","0.0-3.0-4.0-0.0","60e2600a329d5ebfcb54b413","6662009ae78f21dd82fcd179","6662079f855fbcd7995bd50c","5144",""," ","","","","","","","","<div align=center>In this practice block, there will be a <b>1% chance</b> that the jar on the next trial will be different from the jar on the current trial.<br><br></div>","","","","","","","","","",""
"image-keyboard-response","14","199686","0.0-3.0-4.0-1.0-0.0","60e2600a329d5ebfcb54b413","6662009ae78f21dd82fcd179","6662079f855fbcd7995bd50c","9258","","f","","","","","","","","./tasks/HMM-beads/Images/NoChoice.png","practice","0","0","0","0","9","0","true","",""
"image-keyboard-response","15","199995","0.0-3.0-4.0-1.0-1.0","60e2600a329d5ebfcb54b413","6662009ae78f21dd82fcd179","6662079f855fbcd7995bd50c","null","","null","","","","","","","","./tasks/HMM-beads/Images/BlackBeadChoice.png","","","","","","","","","",""
"image-keyboard-response","16","200499","0.0-3.0-4.0-1.0-2.0","60e2600a329d5ebfcb54b413","6662009ae78f21dd82fcd179","6662079f855fbcd7995bd50c","null","","null","","","","","","","","./tasks/HMM-beads/Images/BlackBeadChoiceCorrect.png","","","","","","","","","",""
"image-keyboard-response","17","206005","0.0-3.0-4.0-1.0-0.1","60e2600a329d5ebfcb54b413","6662009ae78f21dd82fcd179","6662079f855fbcd7995bd50c","5505","","f","","","","","","","","./tasks/HMM-beads/Images/NewTrialBC.png","practice","0","1","0","0","0","0","true","",""
"image-keyboard-response","18","206318","0.0-3.0-4.0-1.0-1.1","60e2600a329d5ebfcb54b413","6662009ae78f21dd82fcd179","6662079f855fbcd7995bd50c","null","","null","","","","","","","","./tasks/HMM-beads/Images/BlackBeadChoice.png","","","","","","","","","",""
"image-keyboard-response","19","206831","0.0-3.0-4.0-1.0-2.1","60e2600a329d5ebfcb54b413","6662009ae78f21dd82fcd179","6662079f855fbcd7995bd50c","null","","null","","","","","","","","./tasks/HMM-beads/Images/BlackBeadChoiceCorrect.png","","","","","","","","","",""
"image-keyboard-response","20","209408","0.0-3.0-4.0-1.0-0.2","60e2600a329d5ebfcb54b413","6662009ae78f21dd82fcd179","6662079f855fbcd7995bd50c","2576","","f","","","","","","","","./tasks/HMM-beads/Images/NewTrialBC.png","practice","0","2","0","1","0","0","false","",""
"image-keyboard-response","21","209721","0.0-3.0-4.0-1.0-1.2","60e2600a329d5ebfcb54b413","6662009ae78f21dd82fcd179","6662079f855fbcd7995bd50c","null","","null","","","","","","","","./tasks/HMM-beads/Images/BlackBeadChoice.png","","","","","","","","","",""
"image-keyboard-response","22","210234","0.0-3.0-4.0-1.0-2.2","60e2600a329d5ebfcb54b413","6662009ae78f21dd82fcd179","6662079f855fbcd7995bd50c","null","","null","","","","","","","","./tasks/HMM-beads/Images/BlackBeadChoiceWrong.png","","","","","","","","","",""
"image-keyboard-response","23","211477","0.0-3.0-4.0-1.0-0.3","60e2600a329d5ebfcb54b413","6662009ae78f21dd82fcd179","6662079f855fbcd7995bd50c","1242","","j","","","","","","","","./tasks/HMM-beads/Images/NewTrialWC.png","practice","0","3","0","0","1","1","false","",""
"image-keyboard-response","24","211781","0.0-3.0-4.0-1.0-1.3","60e2600a329d5ebfcb54b413","6662009ae78f21dd82fcd179","6662079f855fbcd7995bd50c","null","","null","","","","","","","","./tasks/HMM-beads/Images/WhiteBeadChoice.png","","","","","","","","","",""
"image-keyboard-response","25","212295","0.0-3.0-4.0-1.0-2.3","60e2600a329d5ebfcb54b413","6662009ae78f21dd82fcd179","6662079f855fbcd7995bd50c","null","","null","","","","","","","","./tasks/HMM-beads/Images/WhiteBeadChoiceWrong.png","","","","","","","","","",""
"image-keyboard-response","26","212815","0.0-3.0-4.0-1.0-0.4","60e2600a329d5ebfcb54b413","6662009ae78f21dd82fcd179","6662079f855fbcd7995bd50c","517","","f","","","","","","","","./tasks/HMM-beads/Images/NewTrialBC.png","practice","0","4","0","0","0","0","true","",""
"image-keyboard-response","27","213118","0.0-3.0-4.0-1.0-1.4","60e2600a329d5ebfcb54b413","6662009ae78f21dd82fcd179","6662079f855fbcd7995bd50c","null","","null","","","","","","","","./tasks/HMM-beads/Images/BlackBeadChoice.png","","","","","","","","","",""
"image-keyboard-response","28","213631","0.0-3.0-4.0-1.0-2.4","60e2600a329d5ebfcb54b413","6662009ae78f21dd82fcd179","6662079f855fbcd7995bd50c","null","","null","","","","","","","","./tasks/HMM-beads/Images/BlackBeadChoiceCorrect.png","","","","","","","","","",""
"image-keyboard-response","29","213832","0.0-3.0-4.0-1.0-0.5","60e2600a329d5ebfcb54b413","6662009ae78f21dd82fcd179","6662079f855fbcd7995bd50c","201","","f","","","","","","","","./tasks/HMM-beads/Images/NewTrialBC.png","practice","0","5","0","1","0","0","false","",""
"image-keyboard-response","30","214144","0.0-3.0-4.0-1.0-1.5","60e2600a329d5ebfcb54b413","6662009ae78f21dd82fcd179","6662079f855fbcd7995bd50c","null","","null","","","","","","","","./tasks/HMM-beads/Images/BlackBeadChoice.png","","","","","","","","","",""
"image-keyboard-response","31","214656","0.0-3.0-4.0-1.0-2.5","60e2600a329d5ebfcb54b413","6662009ae78f21dd82fcd179","6662079f855fbcd7995bd50c","null","","null","","","","","","","","./tasks/HMM-beads/Images/BlackBeadChoiceWrong.png","","","","","","","","","",""
"image-keyboard-response","32","214752","0.0-3.0-4.0-1.0-0.6","60e2600a329d5ebfcb54b413","6662009ae78f21dd82fcd179","6662079f855fbcd7995bd50c","95","","j","","","","","","","","./tasks/HMM-beads/Images/NewTrialWC.png","practice","0","6","0","0","1","1","false","",""
"image-keyboard-response","33","215058","0.0-3.0-4.0-1.0-1.6","60e2600a329d5ebfcb54b413","6662009ae78f21dd82fcd179","6662079f855fbcd7995bd50c","null","","null","","","","","","","","./tasks/HMM-beads/Images/WhiteBeadChoice.png","","","","","","","","","",""
"image-keyboard-response","34","215571","0.0-3.0-4.0-1.0-2.6","60e2600a329d5ebfcb54b413","6662009ae78f21dd82fcd179","6662079f855fbcd7995bd50c","null","","null","","","","","","","","./tasks/HMM-beads/Images/WhiteBeadChoiceWrong.png","","","","","","","","","",""
"image-keyboard-response","35","215599","0.0-3.0-4.0-1.0-0.7","60e2600a329d5ebfcb54b413","6662009ae78f21dd82fcd179","6662079f855fbcd7995bd50c","27","","f","","","","","","","","./tasks/HMM-beads/Images/NewTrialBC.png","practice","0","7","0","0","0","0","true","",""
"image-keyboard-response","36","215910","0.0-3.0-4.0-1.0-1.7","60e2600a329d5ebfcb54b413","6662009ae78f21dd82fcd179","6662079f855fbcd7995bd50c","null","","null","","","","","","","","./tasks/HMM-beads/Images/BlackBeadChoice.png","","","","","","","","","",""
"image-keyboard-response","37","216421","0.0-3.0-4.0-1.0-2.7","60e2600a329d5ebfcb54b413","6662009ae78f21dd82fcd179","6662079f855fbcd7995bd50c","null","","null","","","","","","","","./tasks/HMM-beads/Images/BlackBeadChoiceCorrect.png","","","","","","","","","",""
"image-keyboard-response","38","218428","0.0-3.0-4.0-1.0-0.8","60e2600a329d5ebfcb54b413","6662009ae78f21dd82fcd179","6662079f855fbcd7995bd50c","2007","","f","","","","","","","","./tasks/HMM-beads/Images/NewTrialBC.png","practice","0","8","0","0","0","0","true","",""
"image-keyboard-response","39","218748","0.0-3.0-4.0-1.0-1.8","60e2600a329d5ebfcb54b413","6662009ae78f21dd82fcd179","6662079f855fbcd7995bd50c","null","","null","","","","","","","","./tasks/HMM-beads/Images/BlackBeadChoice.png","","","","","","","","","",""
"image-keyboard-response","40","219261","0.0-3.0-4.0-1.0-2.8","60e2600a329d5ebfcb54b413","6662009ae78f21dd82fcd179","6662079f855fbcd7995bd50c","null","","null","","","","","","","","./tasks/HMM-beads/Images/BlackBeadChoiceCorrect.png","","","","","","","","","",""
"image-keyboard-response","41","220508","0.0-3.0-4.0-1.0-0.9","60e2600a329d5ebfcb54b413","6662009ae78f21dd82fcd179","6662079f855fbcd7995bd50c","1245","","f","","","","","","","","./tasks/HMM-beads/Images/NewTrialBC.png","practice","0","9","0","1","0","0","false","",""
"image-keyboard-response","42","220811","0.0-3.0-4.0-1.0-1.9","60e2600a329d5ebfcb54b413","6662009ae78f21dd82fcd179","6662079f855fbcd7995bd50c","null","","null","","","","","","","","./tasks/HMM-beads/Images/BlackBeadChoice.png","","","","","","","","","",""
"image-keyboard-response","43","221325","0.0-3.0-4.0-1.0-2.9","60e2600a329d5ebfcb54b413","6662009ae78f21dd82fcd179","6662079f855fbcd7995bd50c","null","","null","","","","","","","","./tasks/HMM-beads/Images/BlackBeadChoiceWrong.png","","","","","","","","","",""
"image-keyboard-response","44","221536","0.0-3.0-4.0-1.0-0.10","60e2600a329d5ebfcb54b413","6662009ae78f21dd82fcd179","6662079f855fbcd7995bd50c","211","","j","","","","","","","","./tasks/HMM-beads/Images/NewTrialWC.png","practice","0","10","0","0","1","1","false","",""
"image-keyboard-response","45","221838","0.0-3.0-4.0-1.0-1.10","60e2600a329d5ebfcb54b413","6662009ae78f21dd82fcd179","6662079f855fbcd7995bd50c","null","","null","","","","","","","","./tasks/HMM-beads/Images/WhiteBeadChoice.png","","","","","","","","","",""
"image-keyboard-response","46","222351","0.0-3.0-4.0-1.0-2.10","60e2600a329d5ebfcb54b413","6662009ae78f21dd82fcd179","6662079f855fbcd7995bd50c","null","","null","","","","","","","","./tasks/HMM-beads/Images/WhiteBeadChoiceWrong.png","","","","","","","","","",""
"image-keyboard-response","47","222399","0.0-3.0-4.0-1.0-0.11","60e2600a329d5ebfcb54b413","6662009ae78f21dd82fcd179","6662079f855fbcd7995bd50c","46","","f","","","","","","","","./tasks/HMM-beads/Images/NewTrialBC.png","practice","0","11","0","1","0","0","false","",""
"image-keyboard-response","48","222709","0.0-3.0-4.0-1.0-1.11","60e2600a329d5ebfcb54b413","6662009ae78f21dd82fcd179","6662079f855fbcd7995bd50c","null","","null","","","","","","","","./tasks/HMM-beads/Images/BlackBeadChoice.png","","","","","","","","","",""
"image-keyboard-response","49","223221","0.0-3.0-4.0-1.0-2.11","60e2600a329d5ebfcb54b413","6662009ae78f21dd82fcd179","6662079f855fbcd7995bd50c","null","","null","","","","","","","","./tasks/HMM-beads/Images/BlackBeadChoiceWrong.png","","","","","","","","","",""
"image-keyboard-response","50","223502","0.0-3.0-4.0-1.0-0.12","60e2600a329d5ebfcb54b413","6662009ae78f21dd82fcd179","6662079f855fbcd7995bd50c","280","","j","","","","","","","","./tasks/HMM-beads/Images/NewTrialWC.png","practice","0","12","0","0","1","1","false","",""
"image-keyboard-response","51","223809","0.0-3.0-4.0-1.0-1.12","60e2600a329d5ebfcb54b413","6662009ae78f21dd82fcd179","6662079f855fbcd7995bd50c","null","","null","","","","","","","","./tasks/HMM-beads/Images/WhiteBeadChoice.png","","","","","","","","","",""
"image-keyboard-response","52","224321","0.0-3.0-4.0-1.0-2.12","60e2600a329d5ebfcb54b413","6662009ae78f21dd82fcd179","6662079f855fbcd7995bd50c","null","","null","","","","","","","","./tasks/HMM-beads/Images/WhiteBeadChoiceWrong.png","","","","","","","","","",""
"image-keyboard-response","53","226685","0.0-3.0-4.0-1.0-0.13","60e2600a329d5ebfcb54b413","6662009ae78f21dd82fcd179","6662079f855fbcd7995bd50c","2362","","f","","","","","","","","./tasks/HMM-beads/Images/NewTrialBC.png","practice","0","13","0","0","0","0","true","",""
"image-keyboard-response","54","226990","0.0-3.0-4.0-1.0-1.13","60e2600a329d5ebfcb54b413","6662009ae78f21dd82fcd179","6662079f855fbcd7995bd50c","null","","null","","","","","","","","./tasks/HMM-beads/Images/BlackBeadChoice.png","","","","","","","","","",""
"image-keyboard-response","55","227504","0.0-3.0-4.0-1.0-2.13","60e2600a329d5ebfcb54b413","6662009ae78f21dd82fcd179","6662079f855fbcd7995bd50c","null","","null","","","","","","","","./tasks/HMM-beads/Images/BlackBeadChoiceCorrect.png","","","","","","","","","",""
"image-keyboard-response","56","227589","0.0-3.0-4.0-1.0-0.14","60e2600a329d5ebfcb54b413","6662009ae78f21dd82fcd179","6662079f855fbcd7995bd50c","83","","f","","","","","","","","./tasks/HMM-beads/Images/NewTrialBC.png","practice","0","14","0","0","0","0","true","",""
"image-keyboard-response","57","227893","0.0-3.0-4.0-1.0-1.14","60e2600a329d5ebfcb54b413","6662009ae78f21dd82fcd179","6662079f855fbcd7995bd50c","null","","null","","","","","","","","./tasks/HMM-beads/Images/BlackBeadChoice.png","","","","","","","","","",""
"image-keyboard-response","58","228405","0.0-3.0-4.0-1.0-2.14","60e2600a329d5ebfcb54b413","6662009ae78f21dd82fcd179","6662079f855fbcd7995bd50c","null","","null","","","","","","","","./tasks/HMM-beads/Images/BlackBeadChoiceCorrect.png","","","","","","","","","",""
"image-keyboard-response","59","228931","0.0-3.0-4.0-1.0-0.15","60e2600a329d5ebfcb54b413","6662009ae78f21dd82fcd179","6662079f855fbcd7995bd50c","525","","f","","","","","","","","./tasks/HMM-beads/Images/NewTrialBC.png","practice","0","15","0","0","0","0","true","",""
"image-keyboard-response","60","229242","0.0-3.0-4.0-1.0-1.15","60e2600a329d5ebfcb54b413","6662009ae78f21dd82fcd179","6662079f855fbcd7995bd50c","null","","null","","","","","","","","./tasks/HMM-beads/Images/BlackBeadChoice.png","","","","","","","","","",""
"image-keyboard-response","61","229756","0.0-3.0-4.0-1.0-2.15","60e2600a329d5ebfcb54b413","6662009ae78f21dd82fcd179","6662079f855fbcd7995bd50c","null","","null","","","","","","","","./tasks/HMM-beads/Images/BlackBeadChoiceCorrect.png","","","","","","","","","",""
"image-keyboard-response","62","230185","0.0-3.0-4.0-1.0-0.16","60e2600a329d5ebfcb54b413","6662009ae78f21dd82fcd179","6662079f855fbcd7995bd50c","428","","f","","","","","","","","./tasks/HMM-beads/Images/NewTrialBC.png","practice","0","16","0","0","0","0","true","",""
"image-keyboard-response","63","230500","0.0-3.0-4.0-1.0-1.16","60e2600a329d5ebfcb54b413","6662009ae78f21dd82fcd179","6662079f855fbcd7995bd50c","null","","null","","","","","","","","./tasks/HMM-beads/Images/BlackBeadChoice.png","","","","","","","","","",""
"image-keyboard-response","64","231012","0.0-3.0-4.0-1.0-2.16","60e2600a329d5ebfcb54b413","6662009ae78f21dd82fcd179","6662079f855fbcd7995bd50c","null","","null","","","","","","","","./tasks/HMM-beads/Images/BlackBeadChoiceCorrect.png","","","","","","","","","",""
"image-keyboard-response","65","231322","0.0-3.0-4.0-1.0-0.17","60e2600a329d5ebfcb54b413","6662009ae78f21dd82fcd179","6662079f855fbcd7995bd50c","308","","f","","","","","","","","./tasks/HMM-beads/Images/NewTrialBC.png","practice","0","17","0","0","0","0","true","",""
"image-keyboard-response","66","231630","0.0-3.0-4.0-1.0-1.17","60e2600a329d5ebfcb54b413","6662009ae78f21dd82fcd179","6662079f855fbcd7995bd50c","null","","null","","","","","","","","./tasks/HMM-beads/Images/BlackBeadChoice.png","","","","","","","","","",""
"image-keyboard-response","67","232144","0.0-3.0-4.0-1.0-2.17","60e2600a329d5ebfcb54b413","6662009ae78f21dd82fcd179","6662079f855fbcd7995bd50c","null","","null","","","","","","","","./tasks/HMM-beads/Images/BlackBeadChoiceCorrect.png","","","","","","","","","",""
"image-keyboard-response","68","232765","0.0-3.0-4.0-1.0-0.18","60e2600a329d5ebfcb54b413","6662009ae78f21dd82fcd179","6662079f855fbcd7995bd50c","621","","f","","","","","","","","./tasks/HMM-beads/Images/NewTrialBC.png","practice","0","18","0","1","0","0","false","",""
"image-keyboard-response","69","233074","0.0-3.0-4.0-1.0-1.18","60e2600a329d5ebfcb54b413","6662009ae78f21dd82fcd179","6662079f855fbcd7995bd50c","null","","null","","","","","","","","./tasks/HMM-beads/Images/BlackBeadChoice.png","","","","","","","","","",""
"image-keyboard-response","70","233587","0.0-3.0-4.0-1.0-2.18","60e2600a329d5ebfcb54b413","6662009ae78f21dd82fcd179","6662079f855fbcd7995bd50c","null","","null","","","","","","","","./tasks/HMM-beads/Images/BlackBeadChoiceWrong.png","","","","","","","","","",""
"image-keyboard-response","71","233878","0.0-3.0-4.0-1.0-0.19","60e2600a329d5ebfcb54b413","6662009ae78f21dd82fcd179","6662079f855fbcd7995bd50c","291","","j","","","","","","","","./tasks/HMM-beads/Images/NewTrialWC.png","practice","0","19","0","0","1","1","false","",""
"image-keyboard-response","72","234193","0.0-3.0-4.0-1.0-1.19","60e2600a329d5ebfcb54b413","6662009ae78f21dd82fcd179","6662079f855fbcd7995bd50c","null","","null","","","","","","","","./tasks/HMM-beads/Images/WhiteBeadChoice.png","","","","","","","","","",""
"image-keyboard-response","73","234708","0.0-3.0-4.0-1.0-2.19","60e2600a329d5ebfcb54b413","6662009ae78f21dd82fcd179","6662079f855fbcd7995bd50c","null","","null","","","","","","","","./tasks/HMM-beads/Images/WhiteBeadChoiceWrong.png","","","","","","","","","",""
"image-keyboard-response","74","235147","0.0-3.0-4.0-1.0-0.20","60e2600a329d5ebfcb54b413","6662009ae78f21dd82fcd179","6662079f855fbcd7995bd50c","438","","f","","","","","","","","./tasks/HMM-beads/Images/NewTrialBC.png","practice","0","20","0","0","0","0","true","",""
"image-keyboard-response","75","235453","0.0-3.0-4.0-1.0-1.20","60e2600a329d5ebfcb54b413","6662009ae78f21dd82fcd179","6662079f855fbcd7995bd50c","null","","null","","","","","","","","./tasks/HMM-beads/Images/BlackBeadChoice.png","","","","","","","","","",""
"image-keyboard-response","76","235965","0.0-3.0-4.0-1.0-2.20","60e2600a329d5ebfcb54b413","6662009ae78f21dd82fcd179","6662079f855fbcd7995bd50c","null","","null","","","","","","","","./tasks/HMM-beads/Images/BlackBeadChoiceCorrect.png","","","","","","","","","",""
"image-keyboard-response","77","236163","0.0-3.0-4.0-1.0-0.21","60e2600a329d5ebfcb54b413","6662009ae78f21dd82fcd179","6662079f855fbcd7995bd50c","197","","f","","","","","","","","./tasks/HMM-beads/Images/NewTrialBC.png","practice","0","21","0","1","0","0","false","",""
"image-keyboard-response","78","236478","0.0-3.0-4.0-1.0-1.21","60e2600a329d5ebfcb54b413","6662009ae78f21dd82fcd179","6662079f855fbcd7995bd50c","null","","null","","","","","","","","./tasks/HMM-beads/Images/BlackBeadChoice.png","","","","","","","","","",""
"image-keyboard-response","79","236988","0.0-3.0-4.0-1.0-2.21","60e2600a329d5ebfcb54b413","6662009ae78f21dd82fcd179","6662079f855fbcd7995bd50c","null","","null","","","","","","","","./tasks/HMM-beads/Images/BlackBeadChoiceWrong.png","","","","","","","","","",""
"image-keyboard-response","80","237303","0.0-3.0-4.0-1.0-0.22","60e2600a329d5ebfcb54b413","6662009ae78f21dd82fcd179","6662079f855fbcd7995bd50c","313","","j","","","","","","","","./tasks/HMM-beads/Images/NewTrialWC.png","practice","0","22","1","1","1","1","true","",""
"image-keyboard-response","81","237609","0.0-3.0-4.0-1.0-1.22","60e2600a329d5ebfcb54b413","6662009ae78f21dd82fcd179","6662079f855fbcd7995bd50c","null","","null","","","","","","","","./tasks/HMM-beads/Images/WhiteBeadChoice.png","","","","","","","","","",""
"image-keyboard-response","82","238120","0.0-3.0-4.0-1.0-2.22","60e2600a329d5ebfcb54b413","6662009ae78f21dd82fcd179","6662079f855fbcd7995bd50c","null","","null","","","","","","","","./tasks/HMM-beads/Images/WhiteBeadChoiceCorrect.png","","","","","","","","","",""
"image-keyboard-response","83","238327","0.0-3.0-4.0-1.0-0.23","60e2600a329d5ebfcb54b413","6662009ae78f21dd82fcd179","6662079f855fbcd7995bd50c","205","","j","","","","","","","","./tasks/HMM-beads/Images/NewTrialWC.png","practice","0","23","1","0","1","1","false","",""
"image-keyboard-response","84","238632","0.0-3.0-4.0-1.0-1.23","60e2600a329d5ebfcb54b413","6662009ae78f21dd82fcd179","6662079f855fbcd7995bd50c","null","","null","","","","","","","","./tasks/HMM-beads/Images/WhiteBeadChoice.png","","","","","","","","","",""
"image-keyboard-response","85","239141","0.0-3.0-4.0-1.0-2.23","60e2600a329d5ebfcb54b413","6662009ae78f21dd82fcd179","6662079f855fbcd7995bd50c","null","","null","","","","","","","","./tasks/HMM-beads/Images/WhiteBeadChoiceWrong.png","","","","","","","","","",""
"image-keyboard-response","86","239449","0.0-3.0-4.0-1.0-0.24","60e2600a329d5ebfcb54b413","6662009ae78f21dd82fcd179","6662079f855fbcd7995bd50c","306","","f","","","","","","","","./tasks/HMM-beads/Images/NewTrialBC.png","practice","0","24","1","1","0","0","false","",""
"image-keyboard-response","87","239762","0.0-3.0-4.0-1.0-1.24","60e2600a329d5ebfcb54b413","6662009ae78f21dd82fcd179","6662079f855fbcd7995bd50c","null","","null","","","","","","","","./tasks/HMM-beads/Images/BlackBeadChoice.png","","","","","","","","","",""
"image-keyboard-response","88","240273","0.0-3.0-4.0-1.0-2.24","60e2600a329d5ebfcb54b413","6662009ae78f21dd82fcd179","6662079f855fbcd7995bd50c","null","","null","","","","","","","","./tasks/HMM-beads/Images/BlackBeadChoiceWrong.png","","","","","","","","","",""
"image-keyboard-response","89","240559","0.0-3.0-4.0-1.0-0.25","60e2600a329d5ebfcb54b413","6662009ae78f21dd82fcd179","6662079f855fbcd7995bd50c","285","","j","","","","","","","","./tasks/HMM-beads/Images/NewTrialWC.png","practice","0","25","1","1","1","1","true","",""
"image-keyboard-response","90","240865","0.0-3.0-4.0-1.0-1.25","60e2600a329d5ebfcb54b413","6662009ae78f21dd82fcd179","6662079f855fbcd7995bd50c","null","","null","","","","","","","","./tasks/HMM-beads/Images/WhiteBeadChoice.png","","","","","","","","","",""
"image-keyboard-response","91","241377","0.0-3.0-4.0-1.0-2.25","60e2600a329d5ebfcb54b413","6662009ae78f21dd82fcd179","6662079f855fbcd7995bd50c","null","","null","","","","","","","","./tasks/HMM-beads/Images/WhiteBeadChoiceCorrect.png","","","","","","","","","",""
"image-keyboard-response","92","241684","0.0-3.0-4.0-1.0-0.26","60e2600a329d5ebfcb54b413","6662009ae78f21dd82fcd179","6662079f855fbcd7995bd50c","307","","j","","","","","","","","./tasks/HMM-beads/Images/NewTrialWC.png","practice","0","26","1","1","1","1","true","",""
"image-keyboard-response","93","241997","0.0-3.0-4.0-1.0-1.26","60e2600a329d5ebfcb54b413","6662009ae78f21dd82fcd179","6662079f855fbcd7995bd50c","null","","null","","","","","","","","./tasks/HMM-beads/Images/WhiteBeadChoice.png","","","","","","","","","",""
"image-keyboard-response","94","242510","0.0-3.0-4.0-1.0-2.26","60e2600a329d5ebfcb54b413","6662009ae78f21dd82fcd179","6662079f855fbcd7995bd50c","null","","null","","","","","","","","./tasks/HMM-beads/Images/WhiteBeadChoiceCorrect.png","","","","","","","","","",""
"image-keyboard-response","95","242827","0.0-3.0-4.0-1.0-0.27","60e2600a329d5ebfcb54b413","6662009ae78f21dd82fcd179","6662079f855fbcd7995bd50c","315","","j","","","","","","","","./tasks/HMM-beads/Images/NewTrialWC.png","practice","0","27","1","1","1","1","true","",""
"image-keyboard-response","96","243133","0.0-3.0-4.0-1.0-1.27","60e2600a329d5ebfcb54b413","6662009ae78f21dd82fcd179","6662079f855fbcd7995bd50c","null","","null","","","","","","","","./tasks/HMM-beads/Images/WhiteBeadChoice.png","","","","","","","","","",""
"image-keyboard-response","97","243647","0.0-3.0-4.0-1.0-2.27","60e2600a329d5ebfcb54b413","6662009ae78f21dd82fcd179","6662079f855fbcd7995bd50c","null","","null","","","","","","","","./tasks/HMM-beads/Images/WhiteBeadChoiceCorrect.png","","","","","","","","","",""
"image-keyboard-response","98","244009","0.0-3.0-4.0-1.0-0.28","60e2600a329d5ebfcb54b413","6662009ae78f21dd82fcd179","6662079f855fbcd7995bd50c","361","","j","","","","","","","","./tasks/HMM-beads/Images/NewTrialWC.png","practice","0","28","1","0","1","1","false","",""
"image-keyboard-response","99","244319","0.0-3.0-4.0-1.0-1.28","60e2600a329d5ebfcb54b413","6662009ae78f21dd82fcd179","6662079f855fbcd7995bd50c","null","","null","","","","","","","","./tasks/HMM-beads/Images/WhiteBeadChoice.png","","","","","","","","","",""
"image-keyboard-response","100","244831","0.0-3.0-4.0-1.0-2.28","60e2600a329d5ebfcb54b413","6662009ae78f21dd82fcd179","6662079f855fbcd7995bd50c","null","","null","","","","","","","","./tasks/HMM-beads/Images/WhiteBeadChoiceWrong.png","","","","","","","","","",""
"image-keyboard-response","101","245180","0.0-3.0-4.0-1.0-0.29","60e2600a329d5ebfcb54b413","6662009ae78f21dd82fcd179","6662079f855fbcd7995bd50c","347","","f","","","","","","","","./tasks/HMM-beads/Images/NewTrialBC.png","practice","0","29","1","1","0","0","false","",""
"image-keyboard-response","102","245487","0.0-3.0-4.0-1.0-1.29","60e2600a329d5ebfcb54b413","6662009ae78f21dd82fcd179","6662079f855fbcd7995bd50c","null","","null","","","","","","","","./tasks/HMM-beads/Images/BlackBeadChoice.png","","","","","","","","","",""
"image-keyboard-response","103","246000","0.0-3.0-4.0-1.0-2.29","60e2600a329d5ebfcb54b413","6662009ae78f21dd82fcd179","6662079f855fbcd7995bd50c","null","","null","","","","","","","","./tasks/HMM-beads/Images/BlackBeadChoiceWrong.png","","","","","","","","","",""
"image-keyboard-response","104","246263","0.0-3.0-4.0-1.0-0.30","60e2600a329d5ebfcb54b413","6662009ae78f21dd82fcd179","6662079f855fbcd7995bd50c","261","","j","","","","","","","","./tasks/HMM-beads/Images/NewTrialWC.png","practice","0","30","1","0","1","1","false","",""
"image-keyboard-response","105","246574","0.0-3.0-4.0-1.0-1.30","60e2600a329d5ebfcb54b413","6662009ae78f21dd82fcd179","6662079f855fbcd7995bd50c","null","","null","","","","","","","","./tasks/HMM-beads/Images/WhiteBeadChoice.png","","","","","","","","","",""
"image-keyboard-response","106","247088","0.0-3.0-4.0-1.0-2.30","60e2600a329d5ebfcb54b413","6662009ae78f21dd82fcd179","6662079f855fbcd7995bd50c","null","","null","","","","","","","","./tasks/HMM-beads/Images/WhiteBeadChoiceWrong.png","","","","","","","","","",""
"image-keyboard-response","107","247253","0.0-3.0-4.0-1.0-0.31","60e2600a329d5ebfcb54b413","6662009ae78f21dd82fcd179","6662079f855fbcd7995bd50c","165","","f","","","","","","","","./tasks/HMM-beads/Images/NewTrialBC.png","practice","0","31","1","1","0","0","false","",""
"image-keyboard-response","108","247570","0.0-3.0-4.0-1.0-1.31","60e2600a329d5ebfcb54b413","6662009ae78f21dd82fcd179","6662079f855fbcd7995bd50c","null","","null","","","","","","","","./tasks/HMM-beads/Images/BlackBeadChoice.png","","","","","","","","","",""
"image-keyboard-response","109","248080","0.0-3.0-4.0-1.0-2.31","60e2600a329d5ebfcb54b413","6662009ae78f21dd82fcd179","6662079f855fbcd7995bd50c","null","","null","","","","","","","","./tasks/HMM-beads/Images/BlackBeadChoiceWrong.png","","","","","","","","","",""
"image-keyboard-response","110","248262","0.0-3.0-4.0-1.0-0.32","60e2600a329d5ebfcb54b413","6662009ae78f21dd82fcd179","6662079f855fbcd7995bd50c","181","","j","","","","","","","","./tasks/HMM-beads/Images/NewTrialWC.png","practice","0","32","1","1","1","1","true","",""
"image-keyboard-response","111","248577","0.0-3.0-4.0-1.0-1.32","60e2600a329d5ebfcb54b413","6662009ae78f21dd82fcd179","6662079f855fbcd7995bd50c","null","","null","","","","","","","","./tasks/HMM-beads/Images/WhiteBeadChoice.png","","","","","","","","","",""
"image-keyboard-response","112","249088","0.0-3.0-4.0-1.0-2.32","60e2600a329d5ebfcb54b413","6662009ae78f21dd82fcd179","6662079f855fbcd7995bd50c","null","","null","","","","","","","","./tasks/HMM-beads/Images/WhiteBeadChoiceCorrect.png","","","","","","","","","",""
"image-keyboard-response","113","249264","0.0-3.0-4.0-1.0-0.33","60e2600a329d5ebfcb54b413","6662009ae78f21dd82fcd179","6662079f855fbcd7995bd50c","174","","j","","","","","","","","./tasks/HMM-beads/Images/NewTrialWC.png","practice","0","33","1","1","1","1","true","",""
"image-keyboard-response","114","249570","0.0-3.0-4.0-1.0-1.33","60e2600a329d5ebfcb54b413","6662009ae78f21dd82fcd179","6662079f855fbcd7995bd50c","null","","null","","","","","","","","./tasks/HMM-beads/Images/WhiteBeadChoice.png","","","","","","","","","",""
"image-keyboard-response","115","250084","0.0-3.0-4.0-1.0-2.33","60e2600a329d5ebfcb54b413","6662009ae78f21dd82fcd179","6662079f855fbcd7995bd50c","null","","null","","","","","","","","./tasks/HMM-beads/Images/WhiteBeadChoiceCorrect.png","","","","","","","","","",""
"image-keyboard-response","116","250314","0.0-3.0-4.0-1.0-0.34","60e2600a329d5ebfcb54b413","6662009ae78f21dd82fcd179","6662079f855fbcd7995bd50c","229","","j","","","","","","","","./tasks/HMM-beads/Images/NewTrialWC.png","practice","0","34","1","1","1","1","true","",""
"image-keyboard-response","117","250630","0.0-3.0-4.0-1.0-1.34","60e2600a329d5ebfcb54b413","6662009ae78f21dd82fcd179","6662079f855fbcd7995bd50c","null","","null","","","","","","","","./tasks/HMM-beads/Images/WhiteBeadChoice.png","","","","","","","","","",""
"image-keyboard-response","118","251142","0.0-3.0-4.0-1.0-2.34","60e2600a329d5ebfcb54b413","6662009ae78f21dd82fcd179","6662079f855fbcd7995bd50c","null","","null","","","","","","","","./tasks/HMM-beads/Images/WhiteBeadChoiceCorrect.png","","","","","","","","","",""
"image-keyboard-response","119","251432","0.0-3.0-4.0-1.0-0.35","60e2600a329d5ebfcb54b413","6662009ae78f21dd82fcd179","6662079f855fbcd7995bd50c","289","","j","","","","","","","","./tasks/HMM-beads/Images/NewTrialWC.png","practice","0","35","1","1","1","1","true","",""
"image-keyboard-response","120","251748","0.0-3.0-4.0-1.0-1.35","60e2600a329d5ebfcb54b413","6662009ae78f21dd82fcd179","6662079f855fbcd7995bd50c","null","","null","","","","","","","","./tasks/HMM-beads/Images/WhiteBeadChoice.png","","","","","","","","","",""
"image-keyboard-response","121","252260","0.0-3.0-4.0-1.0-2.35","60e2600a329d5ebfcb54b413","6662009ae78f21dd82fcd179","6662079f855fbcd7995bd50c","null","","null","","","","","","","","./tasks/HMM-beads/Images/WhiteBeadChoiceCorrect.png","","","","","","","","","",""
"image-keyboard-response","122","252526","0.0-3.0-4.0-1.0-0.36","60e2600a329d5ebfcb54b413","6662009ae78f21dd82fcd179","6662079f855fbcd7995bd50c","264","","j","","","","","","","","./tasks/HMM-beads/Images/NewTrialWC.png","practice","0","36","1","0","1","1","false","",""
"image-keyboard-response","123","252835","0.0-3.0-4.0-1.0-1.36","60e2600a329d5ebfcb54b413","6662009ae78f21dd82fcd179","6662079f855fbcd7995bd50c","null","","null","","","","","","","","./tasks/HMM-beads/Images/WhiteBeadChoice.png","","","","","","","","","",""
"image-keyboard-response","124","253349","0.0-3.0-4.0-1.0-2.36","60e2600a329d5ebfcb54b413","6662009ae78f21dd82fcd179","6662079f855fbcd7995bd50c","null","","null","","","","","","","","./tasks/HMM-beads/Images/WhiteBeadChoiceWrong.png","","","","","","","","","",""
"image-keyboard-response","125","253596","0.0-3.0-4.0-1.0-0.37","60e2600a329d5ebfcb54b413","6662009ae78f21dd82fcd179","6662079f855fbcd7995bd50c","246","","f","","","","","","","","./tasks/HMM-beads/Images/NewTrialBC.png","practice","0","37","1","1","0","0","false","",""
"image-keyboard-response","126","253910","0.0-3.0-4.0-1.0-1.37","60e2600a329d5ebfcb54b413","6662009ae78f21dd82fcd179","6662079f855fbcd7995bd50c","null","","null","","","","","","","","./tasks/HMM-beads/Images/BlackBeadChoice.png","","","","","","","","","",""
"image-keyboard-response","127","254422","0.0-3.0-4.0-1.0-2.37","60e2600a329d5ebfcb54b413","6662009ae78f21dd82fcd179","6662079f855fbcd7995bd50c","null","","null","","","","","","","","./tasks/HMM-beads/Images/BlackBeadChoiceWrong.png","","","","","","","","","",""
"image-keyboard-response","128","254560","0.0-3.0-4.0-1.0-0.38","60e2600a329d5ebfcb54b413","6662009ae78f21dd82fcd179","6662079f855fbcd7995bd50c","137","","j","","","","","","","","./tasks/HMM-beads/Images/NewTrialWC.png","practice","0","38","1","1","1","1","true","",""
"image-keyboard-response","129","254873","0.0-3.0-4.0-1.0-1.38","60e2600a329d5ebfcb54b413","6662009ae78f21dd82fcd179","6662079f855fbcd7995bd50c","null","","null","","","","","","","","./tasks/HMM-beads/Images/WhiteBeadChoice.png","","","","","","","","","",""
"image-keyboard-response","130","255385","0.0-3.0-4.0-1.0-2.38","60e2600a329d5ebfcb54b413","6662009ae78f21dd82fcd179","6662079f855fbcd7995bd50c","null","","null","","","","","","","","./tasks/HMM-beads/Images/WhiteBeadChoiceCorrect.png","","","","","","","","","",""
"image-keyboard-response","131","255556","0.0-3.0-4.0-1.0-0.39","60e2600a329d5ebfcb54b413","6662009ae78f21dd82fcd179","6662079f855fbcd7995bd50c","169","","j","","","","","","","","./tasks/HMM-beads/Images/NewTrialWC.png","practice","0","39","1","1","1","1","true","",""
"image-keyboard-response","132","255867","0.0-3.0-4.0-1.0-1.39","60e2600a329d5ebfcb54b413","6662009ae78f21dd82fcd179","6662079f855fbcd7995bd50c","null","","null","","","","","","","","./tasks/HMM-beads/Images/WhiteBeadChoice.png","","","","","","","","","",""
"image-keyboard-response","133","256379","0.0-3.0-4.0-1.0-2.39","60e2600a329d5ebfcb54b413","6662009ae78f21dd82fcd179","6662079f855fbcd7995bd50c","null","","null","","","","","","","","./tasks/HMM-beads/Images/WhiteBeadChoiceCorrect.png","","","","","","","","","",""
"html-keyboard-response","134","271569","0.0-3.0-4.0-2.0","60e2600a329d5ebfcb54b413","6662009ae78f21dd82fcd179","6662079f855fbcd7995bd50c","15189",""," ","","","","","","","","","","","","","","","","","",""
"instructions","135","285558","0.0-3.0-5.0","60e2600a329d5ebfcb54b413","6662009ae78f21dd82fcd179","6662079f855fbcd7995bd50c","13988","","","","[{""page_index"":0,""viewing_time"":10207},{""page_index"":1,""viewing_time"":3780}]","","","","","","","","","","","","","","","",""
"html-keyboard-response","136","296562","0.0-3.0-6.0-0.0","60e2600a329d5ebfcb54b413","6662009ae78f21dd82fcd179","6662079f855fbcd7995bd50c","11003",""," ","","","","","","","","<div align=center>In this block, there will be a <b>1% chance</b> that the jar on the next trial will be different from the jar on the current trial.<br><br></div>","","","","","","","","","",""
"image-keyboard-response","137","300182","0.0-3.0-6.0-1.0-0.0","60e2600a329d5ebfcb54b413","6662009ae78f21dd82fcd179","6662079f855fbcd7995bd50c","3618","","f","","","","","","","","./tasks/HMM-beads/Images/NoChoice.png","lowH","1","0","1","0","9","0","true","",""
"image-keyboard-response","138","300492","0.0-3.0-6.0-1.0-1.0","60e2600a329d5ebfcb54b413","6662009ae78f21dd82fcd179","6662079f855fbcd7995bd50c","null","","null","","","","","","","","./tasks/HMM-beads/Images/BlackBeadChoice.png","","","","","","","","","",""
"image-keyboard-response","139","301009","0.0-3.0-6.0-1.0-2.0","60e2600a329d5ebfcb54b413","6662009ae78f21dd82fcd179","6662079f855fbcd7995bd50c","null","","null","","","","","","","","./tasks/HMM-beads/Images/BlackBeadChoiceCorrect.png","","","","","","","","","",""
"image-keyboard-response","140","303494","0.0-3.0-6.0-1.0-0.1","60e2600a329d5ebfcb54b413","6662009ae78f21dd82fcd179","6662079f855fbcd7995bd50c","2483","","f","","","","","","","","./tasks/HMM-beads/Images/NewTrialBC.png","lowH","1","1","1","1","0","0","false","",""
"image-keyboard-response","141","303803","0.0-3.0-6.0-1.0-1.1","60e2600a329d5ebfcb54b413","6662009ae78f21dd82fcd179","6662079f855fbcd7995bd50c","null","","null","","","","","","","","./tasks/HMM-beads/Images/BlackBeadChoice.png","","","","","","","","","",""
"image-keyboard-response","142","304317","0.0-3.0-6.0-1.0-2.1","60e2600a329d5ebfcb54b413","6662009ae78f21dd82fcd179","6662079f855fbcd7995bd50c","null","","null","","","","","","","","./tasks/HMM-beads/Images/BlackBeadChoiceWrong.png","","","","","","","","","",""
"image-keyboard-response","143","304890","0.0-3.0-6.0-1.0-0.2","60e2600a329d5ebfcb54b413","6662009ae78f21dd82fcd179","6662079f855fbcd7995bd50c","572","","j","","","","","","","","./tasks/HMM-beads/Images/NewTrialWC.png","lowH","1","2","1","1","1","1","true","",""
"image-keyboard-response","144","305203","0.0-3.0-6.0-1.0-1.2","60e2600a329d5ebfcb54b413","6662009ae78f21dd82fcd179","6662079f855fbcd7995bd50c","null","","null","","","","","","","","./tasks/HMM-beads/Images/WhiteBeadChoice.png","","","","","","","","","",""
"image-keyboard-response","145","305717","0.0-3.0-6.0-1.0-2.2","60e2600a329d5ebfcb54b413","6662009ae78f21dd82fcd179","6662079f855fbcd7995bd50c","null","","null","","","","","","","","./tasks/HMM-beads/Images/WhiteBeadChoiceCorrect.png","","","","","","","","","",""
"image-keyboard-response","146","306136","0.0-3.0-6.0-1.0-0.3","60e2600a329d5ebfcb54b413","6662009ae78f21dd82fcd179","6662079f855fbcd7995bd50c","414","","j","","","","","","","","./tasks/HMM-beads/Images/NewTrialWC.png","lowH","1","3","1","1","1","1","true","",""
"image-keyboard-response","147","306444","0.0-3.0-6.0-1.0-1.3","60e2600a329d5ebfcb54b413","6662009ae78f21dd82fcd179","6662079f855fbcd7995bd50c","null","","null","","","","","","","","./tasks/HMM-beads/Images/WhiteBeadChoice.png","","","","","","","","","",""
"image-keyboard-response","148","306955","0.0-3.0-6.0-1.0-2.3","60e2600a329d5ebfcb54b413","6662009ae78f21dd82fcd179","6662079f855fbcd7995bd50c","null","","null","","","","","","","","./tasks/HMM-beads/Images/WhiteBeadChoiceCorrect.png","","","","","","","","","",""
"image-keyboard-response","149","307525","0.0-3.0-6.0-1.0-0.4","60e2600a329d5ebfcb54b413","6662009ae78f21dd82fcd179","6662079f855fbcd7995bd50c","569","","j","","","","","","","","./tasks/HMM-beads/Images/NewTrialWC.png","lowH","1","4","1","1","1","1","true","",""
"image-keyboard-response","150","307829","0.0-3.0-6.0-1.0-1.4","60e2600a329d5ebfcb54b413","6662009ae78f21dd82fcd179","6662079f855fbcd7995bd50c","null","","null","","","","","","","","./tasks/HMM-beads/Images/WhiteBeadChoice.png","","","","","","","","","",""
"image-keyboard-response","151","308339","0.0-3.0-6.0-1.0-2.4","60e2600a329d5ebfcb54b413","6662009ae78f21dd82fcd179","6662079f855fbcd7995bd50c","null","","null","","","","","","","","./tasks/HMM-beads/Images/WhiteBeadChoiceCorrect.png","","","","","","","","","",""
"image-keyboard-response","152","308791","0.0-3.0-6.0-1.0-0.5","60e2600a329d5ebfcb54b413","6662009ae78f21dd82fcd179","6662079f855fbcd7995bd50c","451","","j","","","","","","","","./tasks/HMM-beads/Images/NewTrialWC.png","lowH","1","5","1","1","1","1","true","",""
"image-keyboard-response","153","309100","0.0-3.0-6.0-1.0-1.5","60e2600a329d5ebfcb54b413","6662009ae78f21dd82fcd179","6662079f855fbcd7995bd50c","null","","null","","","","","","","","./tasks/HMM-beads/Images/WhiteBeadChoice.png","","","","","","","","","",""
"image-keyboard-response","154","309608","0.0-3.0-6.0-1.0-2.5","60e2600a329d5ebfcb54b413","6662009ae78f21dd82fcd179","6662079f855fbcd7995bd50c","null","","null","","","","","","","","./tasks/HMM-beads/Images/WhiteBeadChoiceCorrect.png","","","","","","","","","",""
"image-keyboard-response","155","310160","0.0-3.0-6.0-1.0-0.6","60e2600a329d5ebfcb54b413","6662009ae78f21dd82fcd179","6662079f855fbcd7995bd50c","551","","j","","","","","","","","./tasks/HMM-beads/Images/NewTrialWC.png","lowH","1","6","1","0","1","1","false","",""
"image-keyboard-response","156","310463","0.0-3.0-6.0-1.0-1.6","60e2600a329d5ebfcb54b413","6662009ae78f21dd82fcd179","6662079f855fbcd7995bd50c","null","","null","","","","","","","","./tasks/HMM-beads/Images/WhiteBeadChoice.png","","","","","","","","","",""
"image-keyboard-response","157","310976","0.0-3.0-6.0-1.0-2.6","60e2600a329d5ebfcb54b413","6662009ae78f21dd82fcd179","6662079f855fbcd7995bd50c","null","","null","","","","","","","","./tasks/HMM-beads/Images/WhiteBeadChoiceWrong.png","","","","","","","","","",""
"image-keyboard-response","158","311734","0.0-3.0-6.0-1.0-0.7","60e2600a329d5ebfcb54b413","6662009ae78f21dd82fcd179","6662079f855fbcd7995bd50c","757","","f","","","","","","","","./tasks/HMM-beads/Images/NewTrialBC.png","lowH","1","7","1","1","0","0","false","",""
"image-keyboard-response","159","312050","0.0-3.0-6.0-1.0-1.7","60e2600a329d5ebfcb54b413","6662009ae78f21dd82fcd179","6662079f855fbcd7995bd50c","null","","null","","","","","","","","./tasks/HMM-beads/Images/BlackBeadChoice.png","","","","","","","","","",""
"image-keyboard-response","160","312564","0.0-3.0-6.0-1.0-2.7","60e2600a329d5ebfcb54b413","6662009ae78f21dd82fcd179","6662079f855fbcd7995bd50c","null","","null","","","","","","","","./tasks/HMM-beads/Images/BlackBeadChoiceWrong.png","","","","","","","","","",""
"image-keyboard-response","161","313104","0.0-3.0-6.0-1.0-0.8","60e2600a329d5ebfcb54b413","6662009ae78f21dd82fcd179","6662079f855fbcd7995bd50c","540","","j","","","","","","","","./tasks/HMM-beads/Images/NewTrialWC.png","lowH","1","8","1","1","1","1","true","",""
"image-keyboard-response","162","313420","0.0-3.0-6.0-1.0-1.8","60e2600a329d5ebfcb54b413","6662009ae78f21dd82fcd179","6662079f855fbcd7995bd50c","null","","null","","","","","","","","./tasks/HMM-beads/Images/WhiteBeadChoice.png","","","","","","","","","",""
"image-keyboard-response","163","313931","0.0-3.0-6.0-1.0-2.8","60e2600a329d5ebfcb54b413","6662009ae78f21dd82fcd179","6662079f855fbcd7995bd50c","null","","null","","","","","","","","./tasks/HMM-beads/Images/WhiteBeadChoiceCorrect.png","","","","","","","","","",""
"image-keyboard-response","164","314380","0.0-3.0-6.0-1.0-0.9","60e2600a329d5ebfcb54b413","6662009ae78f21dd82fcd179","6662079f855fbcd7995bd50c","448","","j","","","","","","","","./tasks/HMM-beads/Images/NewTrialWC.png","lowH","1","9","1","1","1","1","true","",""
"image-keyboard-response","165","314693","0.0-3.0-6.0-1.0-1.9","60e2600a329d5ebfcb54b413","6662009ae78f21dd82fcd179","6662079f855fbcd7995bd50c","null","","null","","","","","","","","./tasks/HMM-beads/Images/WhiteBeadChoice.png","","","","","","","","","",""
"image-keyboard-response","166","315205","0.0-3.0-6.0-1.0-2.9","60e2600a329d5ebfcb54b413","6662009ae78f21dd82fcd179","6662079f855fbcd7995bd50c","null","","null","","","","","","","","./tasks/HMM-beads/Images/WhiteBeadChoiceCorrect.png","","","","","","","","","",""
"image-keyboard-response","167","315739","0.0-3.0-6.0-1.0-0.10","60e2600a329d5ebfcb54b413","6662009ae78f21dd82fcd179","6662079f855fbcd7995bd50c","533","","j","","","","","","","","./tasks/HMM-beads/Images/NewTrialWC.png","lowH","1","10","1","1","1","1","true","",""
"image-keyboard-response","168","316050","0.0-3.0-6.0-1.0-1.10","60e2600a329d5ebfcb54b413","6662009ae78f21dd82fcd179","6662079f855fbcd7995bd50c","null","","null","","","","","","","","./tasks/HMM-beads/Images/WhiteBeadChoice.png","","","","","","","","","",""
"image-keyboard-response","169","316563","0.0-3.0-6.0-1.0-2.10","60e2600a329d5ebfcb54b413","6662009ae78f21dd82fcd179","6662079f855fbcd7995bd50c","null","","null","","","","","","","","./tasks/HMM-beads/Images/WhiteBeadChoiceCorrect.png","","","","","","","","","",""
"image-keyboard-response","170","316979","0.0-3.0-6.0-1.0-0.11","60e2600a329d5ebfcb54b413","6662009ae78f21dd82fcd179","6662079f855fbcd7995bd50c","415","","j","","","","","","","","./tasks/HMM-beads/Images/NewTrialWC.png","lowH","1","11","1","1","1","1","true","",""
"image-keyboard-response","171","317296","0.0-3.0-6.0-1.0-1.11","60e2600a329d5ebfcb54b413","6662009ae78f21dd82fcd179","6662079f855fbcd7995bd50c","null","","null","","","","","","","","./tasks/HMM-beads/Images/WhiteBeadChoice.png","","","","","","","","","",""
"image-keyboard-response","172","317806","0.0-3.0-6.0-1.0-2.11","60e2600a329d5ebfcb54b413","6662009ae78f21dd82fcd179","6662079f855fbcd7995bd50c","null","","null","","","","","","","","./tasks/HMM-beads/Images/WhiteBeadChoiceCorrect.png","","","","","","","","","",""
"image-keyboard-response","173","318252","0.0-3.0-6.0-1.0-0.12","60e2600a329d5ebfcb54b413","6662009ae78f21dd82fcd179","6662079f855fbcd7995bd50c","444","","j","","","","","","","","./tasks/HMM-beads/Images/NewTrialWC.png","lowH","1","12","1","1","1","1","true","",""
"image-keyboard-response","174","318554","0.0-3.0-6.0-1.0-1.12","60e2600a329d5ebfcb54b413","6662009ae78f21dd82fcd179","6662079f855fbcd7995bd50c","null","","null","","","","","","","","./tasks/HMM-beads/Images/WhiteBeadChoice.png","","","","","","","","","",""
"image-keyboard-response","175","319069","0.0-3.0-6.0-1.0-2.12","60e2600a329d5ebfcb54b413","6662009ae78f21dd82fcd179","6662079f855fbcd7995bd50c","null","","null","","","","","","","","./tasks/HMM-beads/Images/WhiteBeadChoiceCorrect.png","","","","","","","","","",""
"image-keyboard-response","176","319578","0.0-3.0-6.0-1.0-0.13","60e2600a329d5ebfcb54b413","6662009ae78f21dd82fcd179","6662079f855fbcd7995bd50c","509","","j","","","","","","","","./tasks/HMM-beads/Images/NewTrialWC.png","lowH","1","13","1","0","1","1","false","",""
"image-keyboard-response","177","319892","0.0-3.0-6.0-1.0-1.13","60e2600a329d5ebfcb54b413","6662009ae78f21dd82fcd179","6662079f855fbcd7995bd50c","null","","null","","","","","","","","./tasks/HMM-beads/Images/WhiteBeadChoice.png","","","","","","","","","",""
"image-keyboard-response","178","320403","0.0-3.0-6.0-1.0-2.13","60e2600a329d5ebfcb54b413","6662009ae78f21dd82fcd179","6662079f855fbcd7995bd50c","null","","null","","","","","","","","./tasks/HMM-beads/Images/WhiteBeadChoiceWrong.png","","","","","","","","","",""
"image-keyboard-response","179","320914","0.0-3.0-6.0-1.0-0.14","60e2600a329d5ebfcb54b413","6662009ae78f21dd82fcd179","6662079f855fbcd7995bd50c","511","","f","","","","","","","","./tasks/HMM-beads/Images/NewTrialBC.png","lowH","1","14","1","0","0","0","true","",""
"image-keyboard-response","180","321226","0.0-3.0-6.0-1.0-1.14","60e2600a329d5ebfcb54b413","6662009ae78f21dd82fcd179","6662079f855fbcd7995bd50c","null","","null","","","","","","","","./tasks/HMM-beads/Images/BlackBeadChoice.png","","","","","","","","","",""
"image-keyboard-response","181","321739","0.0-3.0-6.0-1.0-2.14","60e2600a329d5ebfcb54b413","6662009ae78f21dd82fcd179","6662079f855fbcd7995bd50c","null","","null","","","","","","","","./tasks/HMM-beads/Images/BlackBeadChoiceCorrect.png","","","","","","","","","",""
"image-keyboard-response","182","322211","0.0-3.0-6.0-1.0-0.15","60e2600a329d5ebfcb54b413","6662009ae78f21dd82fcd179","6662079f855fbcd7995bd50c","471","","f","","","","","","","","./tasks/HMM-beads/Images/NewTrialBC.png","lowH","1","15","1","1","0","0","false","",""
"image-keyboard-response","183","322518","0.0-3.0-6.0-1.0-1.15","60e2600a329d5ebfcb54b413","6662009ae78f21dd82fcd179","6662079f855fbcd7995bd50c","null","","null","","","","","","","","./tasks/HMM-beads/Images/BlackBeadChoice.png","","","","","","","","","",""
"image-keyboard-response","184","323031","0.0-3.0-6.0-1.0-2.15","60e2600a329d5ebfcb54b413","6662009ae78f21dd82fcd179","6662079f855fbcd7995bd50c","null","","null","","","","","","","","./tasks/HMM-beads/Images/BlackBeadChoiceWrong.png","","","","","","","","","",""
"image-keyboard-response","185","323508","0.0-3.0-6.0-1.0-0.16","60e2600a329d5ebfcb54b413","6662009ae78f21dd82fcd179","6662079f855fbcd7995bd50c","473","","j","","","","","","","","./tasks/HMM-beads/Images/NewTrialWC.png","lowH","1","16","1","1","1","1","true","",""
"image-keyboard-response","186","323811","0.0-3.0-6.0-1.0-1.16","60e2600a329d5ebfcb54b413","6662009ae78f21dd82fcd179","6662079f855fbcd7995bd50c","null","","null","","","","","","","","./tasks/HMM-beads/Images/WhiteBeadChoice.png","","","","","","","","","",""
"image-keyboard-response","187","324321","0.0-3.0-6.0-1.0-2.16","60e2600a329d5ebfcb54b413","6662009ae78f21dd82fcd179","6662079f855fbcd7995bd50c","null","","null","","","","","","","","./tasks/HMM-beads/Images/WhiteBeadChoiceCorrect.png","","","","","","","","","",""
"image-keyboard-response","188","324820","0.0-3.0-6.0-1.0-0.17","60e2600a329d5ebfcb54b413","6662009ae78f21dd82fcd179","6662079f855fbcd7995bd50c","498","","j","","","","","","","","./tasks/HMM-beads/Images/NewTrialWC.png","lowH","1","17","1","1","1","1","true","",""
"image-keyboard-response","189","325128","0.0-3.0-6.0-1.0-1.17","60e2600a329d5ebfcb54b413","6662009ae78f21dd82fcd179","6662079f855fbcd7995bd50c","null","","null","","","","","","","","./tasks/HMM-beads/Images/WhiteBeadChoice.png","","","","","","","","","",""
"image-keyboard-response","190","325642","0.0-3.0-6.0-1.0-2.17","60e2600a329d5ebfcb54b413","6662009ae78f21dd82fcd179","6662079f855fbcd7995bd50c","null","","null","","","","","","","","./tasks/HMM-beads/Images/WhiteBeadChoiceCorrect.png","","","","","","","","","",""
"image-keyboard-response","191","326049","0.0-3.0-6.0-1.0-0.18","60e2600a329d5ebfcb54b413","6662009ae78f21dd82fcd179","6662079f855fbcd7995bd50c","406","","j","","","","","","","","./tasks/HMM-beads/Images/NewTrialWC.png","lowH","1","18","1","1","1","1","true","",""
"image-keyboard-response","192","326357","0.0-3.0-6.0-1.0-1.18","60e2600a329d5ebfcb54b413","6662009ae78f21dd82fcd179","6662079f855fbcd7995bd50c","null","","null","","","","","","","","./tasks/HMM-beads/Images/WhiteBeadChoice.png","","","","","","","","","",""
"image-keyboard-response","193","326868","0.0-3.0-6.0-1.0-2.18","60e2600a329d5ebfcb54b413","6662009ae78f21dd82fcd179","6662079f855fbcd7995bd50c","null","","null","","","","","","","","./tasks/HMM-beads/Images/WhiteBeadChoiceCorrect.png","","","","","","","","","",""
"image-keyboard-response","194","327494","0.0-3.0-6.0-1.0-0.19","60e2600a329d5ebfcb54b413","6662009ae78f21dd82fcd179","6662079f855fbcd7995bd50c","624","","j","","","","","","","","./tasks/HMM-beads/Images/NewTrialWC.png","lowH","1","19","1","1","1","1","true","",""
"image-keyboard-response","195","327800","0.0-3.0-6.0-1.0-1.19","60e2600a329d5ebfcb54b413","6662009ae78f21dd82fcd179","6662079f855fbcd7995bd50c","null","","null","","","","","","","","./tasks/HMM-beads/Images/WhiteBeadChoice.png","","","","","","","","","",""
"image-keyboard-response","196","328306","0.0-3.0-6.0-1.0-2.19","60e2600a329d5ebfcb54b413","6662009ae78f21dd82fcd179","6662079f855fbcd7995bd50c","null","","null","","","","","","","","./tasks/HMM-beads/Images/WhiteBeadChoiceCorrect.png","","","","","","","","","",""
"image-keyboard-response","197","329007","0.0-3.0-6.0-1.0-0.20","60e2600a329d5ebfcb54b413","6662009ae78f21dd82fcd179","6662079f855fbcd7995bd50c","699","","j","","","","","","","","./tasks/HMM-beads/Images/NewTrialWC.png","lowH","1","20","1","1","1","1","true","",""
"image-keyboard-response","198","329316","0.0-3.0-6.0-1.0-1.20","60e2600a329d5ebfcb54b413","6662009ae78f21dd82fcd179","6662079f855fbcd7995bd50c","null","","null","","","","","","","","./tasks/HMM-beads/Images/WhiteBeadChoice.png","","","","","","","","","",""
"image-keyboard-response","199","329829","0.0-3.0-6.0-1.0-2.20","60e2600a329d5ebfcb54b413","6662009ae78f21dd82fcd179","6662079f855fbcd7995bd50c","null","","null","","","","","","","","./tasks/HMM-beads/Images/WhiteBeadChoiceCorrect.png","","","","","","","","","",""
"image-keyboard-response","200","330264","0.0-3.0-6.0-1.0-0.21","60e2600a329d5ebfcb54b413","6662009ae78f21dd82fcd179","6662079f855fbcd7995bd50c","434","","j","","","","","","","","./tasks/HMM-beads/Images/NewTrialWC.png","lowH","1","21","1","1","1","1","true","",""
"image-keyboard-response","201","330574","0.0-3.0-6.0-1.0-1.21","60e2600a329d5ebfcb54b413","6662009ae78f21dd82fcd179","6662079f855fbcd7995bd50c","null","","null","","","","","","","","./tasks/HMM-beads/Images/WhiteBeadChoice.png","","","","","","","","","",""
"image-keyboard-response","202","331088","0.0-3.0-6.0-1.0-2.21","60e2600a329d5ebfcb54b413","6662009ae78f21dd82fcd179","6662079f855fbcd7995bd50c","null","","null","","","","","","","","./tasks/HMM-beads/Images/WhiteBeadChoiceCorrect.png","","","","","","","","","",""
"image-keyboard-response","203","331469","0.0-3.0-6.0-1.0-0.22","60e2600a329d5ebfcb54b413","6662009ae78f21dd82fcd179","6662079f855fbcd7995bd50c","379","","j","","","","","","","","./tasks/HMM-beads/Images/NewTrialWC.png","lowH","1","22","1","1","1","1","true","",""
"image-keyboard-response","204","331772","0.0-3.0-6.0-1.0-1.22","60e2600a329d5ebfcb54b413","6662009ae78f21dd82fcd179","6662079f855fbcd7995bd50c","null","","null","","","","","","","","./tasks/HMM-beads/Images/WhiteBeadChoice.png","","","","","","","","","",""
"image-keyboard-response","205","332284","0.0-3.0-6.0-1.0-2.22","60e2600a329d5ebfcb54b413","6662009ae78f21dd82fcd179","6662079f855fbcd7995bd50c","null","","null","","","","","","","","./tasks/HMM-beads/Images/WhiteBeadChoiceCorrect.png","","","","","","","","","",""
"image-keyboard-response","206","332821","0.0-3.0-6.0-1.0-0.23","60e2600a329d5ebfcb54b413","6662009ae78f21dd82fcd179","6662079f855fbcd7995bd50c","536","","j","","","","","","","","./tasks/HMM-beads/Images/NewTrialWC.png","lowH","1","23","1","1","1","1","true","",""
"image-keyboard-response","207","333122","0.0-3.0-6.0-1.0-1.23","60e2600a329d5ebfcb54b413","6662009ae78f21dd82fcd179","6662079f855fbcd7995bd50c","null","","null","","","","","","","","./tasks/HMM-beads/Images/WhiteBeadChoice.png","","","","","","","","","",""
"image-keyboard-response","208","333636","0.0-3.0-6.0-1.0-2.23","60e2600a329d5ebfcb54b413","6662009ae78f21dd82fcd179","6662079f855fbcd7995bd50c","null","","null","","","","","","","","./tasks/HMM-beads/Images/WhiteBeadChoiceCorrect.png","","","","","","","","","",""
"image-keyboard-response","209","334225","0.0-3.0-6.0-1.0-0.24","60e2600a329d5ebfcb54b413","6662009ae78f21dd82fcd179","6662079f855fbcd7995bd50c","588","","j","","","","","","","","./tasks/HMM-beads/Images/NewTrialWC.png","lowH","1","24","1","0","1","1","false","",""
"image-keyboard-response","210","334535","0.0-3.0-6.0-1.0-1.24","60e2600a329d5ebfcb54b413","6662009ae78f21dd82fcd179","6662079f855fbcd7995bd50c","null","","null","","","","","","","","./tasks/HMM-beads/Images/WhiteBeadChoice.png","","","","","","","","","",""
"image-keyboard-response","211","335048","0.0-3.0-6.0-1.0-2.24","60e2600a329d5ebfcb54b413","6662009ae78f21dd82fcd179","6662079f855fbcd7995bd50c","null","","null","","","","","","","","./tasks/HMM-beads/Images/WhiteBeadChoiceWrong.png","","","","","","","","","",""
"image-keyboard-response","212","335514","0.0-3.0-6.0-1.0-0.25","60e2600a329d5ebfcb54b413","6662009ae78f21dd82fcd179","6662079f855fbcd7995bd50c","464","","f","","","","","","","","./tasks/HMM-beads/Images/NewTrialBC.png","lowH","1","25","1","1","0","0","false","",""
"image-keyboard-response","213","335822","0.0-3.0-6.0-1.0-1.25","60e2600a329d5ebfcb54b413","6662009ae78f21dd82fcd179","6662079f855fbcd7995bd50c","null","","null","","","","","","","","./tasks/HMM-beads/Images/BlackBeadChoice.png","","","","","","","","","",""
"image-keyboard-response","214","336335","0.0-3.0-6.0-1.0-2.25","60e2600a329d5ebfcb54b413","6662009ae78f21dd82fcd179","6662079f855fbcd7995bd50c","null","","null","","","","","","","","./tasks/HMM-beads/Images/BlackBeadChoiceWrong.png","","","","","","","","","",""
"image-keyboard-response","215","336746","0.0-3.0-6.0-1.0-0.26","60e2600a329d5ebfcb54b413","6662009ae78f21dd82fcd179","6662079f855fbcd7995bd50c","411","","j","","","","","","","","./tasks/HMM-beads/Images/NewTrialWC.png","lowH","1","26","1","0","1","1","false","",""
"image-keyboard-response","216","337048","0.0-3.0-6.0-1.0-1.26","60e2600a329d5ebfcb54b413","6662009ae78f21dd82fcd179","6662079f855fbcd7995bd50c","null","","null","","","","","","","","./tasks/HMM-beads/Images/WhiteBeadChoice.png","","","","","","","","","",""
"image-keyboard-response","217","337562","0.0-3.0-6.0-1.0-2.26","60e2600a329d5ebfcb54b413","6662009ae78f21dd82fcd179","6662079f855fbcd7995bd50c","null","","null","","","","","","","","./tasks/HMM-beads/Images/WhiteBeadChoiceWrong.png","","","","","","","","","",""
"image-keyboard-response","218","337976","0.0-3.0-6.0-1.0-0.27","60e2600a329d5ebfcb54b413","6662009ae78f21dd82fcd179","6662079f855fbcd7995bd50c","413","","f","","","","","","","","./tasks/HMM-beads/Images/NewTrialBC.png","lowH","1","27","1","1","0","0","false","",""
"image-keyboard-response","219","338286","0.0-3.0-6.0-1.0-1.27","60e2600a329d5ebfcb54b413","6662009ae78f21dd82fcd179","6662079f855fbcd7995bd50c","null","","null","","","","","","","","./tasks/HMM-beads/Images/BlackBeadChoice.png","","","","","","","","","",""
"image-keyboard-response","220","338800","0.0-3.0-6.0-1.0-2.27","60e2600a329d5ebfcb54b413","6662009ae78f21dd82fcd179","6662079f855fbcd7995bd50c","null","","null","","","","","","","","./tasks/HMM-beads/Images/BlackBeadChoiceWrong.png","","","","","","","","","",""
"image-keyboard-response","221","339317","0.0-3.0-6.0-1.0-0.28","60e2600a329d5ebfcb54b413","6662009ae78f21dd82fcd179","6662079f855fbcd7995bd50c","517","","j","","","","","","","","./tasks/HMM-beads/Images/NewTrialWC.png","lowH","1","28","1","1","1","1","true","",""
"image-keyboard-response","222","339623","0.0-3.0-6.0-1.0-1.28","60e2600a329d5ebfcb54b413","6662009ae78f21dd82fcd179","6662079f855fbcd7995bd50c","null","","null","","","","","","","","./tasks/HMM-beads/Images/WhiteBeadChoice.png","","","","","","","","","",""
"image-keyboard-response","223","340133","0.0-3.0-6.0-1.0-2.28","60e2600a329d5ebfcb54b413","6662009ae78f21dd82fcd179","6662079f855fbcd7995bd50c","null","","null","","","","","","","","./tasks/HMM-beads/Images/WhiteBeadChoiceCorrect.png","","","","","","","","","",""
"image-keyboard-response","224","340624","0.0-3.0-6.0-1.0-0.29","60e2600a329d5ebfcb54b413","6662009ae78f21dd82fcd179","6662079f855fbcd7995bd50c","487","","j","","","","","","","","./tasks/HMM-beads/Images/NewTrialWC.png","lowH","1","29","1","1","1","1","true","",""
"image-keyboard-response","225","340928","0.0-3.0-6.0-1.0-1.29","60e2600a329d5ebfcb54b413","6662009ae78f21dd82fcd179","6662079f855fbcd7995bd50c","null","","null","","","","","","","","./tasks/HMM-beads/Images/WhiteBeadChoice.png","","","","","","","","","",""
"image-keyboard-response","226","341438","0.0-3.0-6.0-1.0-2.29","60e2600a329d5ebfcb54b413","6662009ae78f21dd82fcd179","6662079f855fbcd7995bd50c","null","","null","","","","","","","","./tasks/HMM-beads/Images/WhiteBeadChoiceCorrect.png","","","","","","","","","",""
"image-keyboard-response","227","341965","0.0-3.0-6.0-1.0-0.30","60e2600a329d5ebfcb54b413","6662009ae78f21dd82fcd179","6662079f855fbcd7995bd50c","527","","j","","","","","","","","./tasks/HMM-beads/Images/NewTrialWC.png","lowH","1","30","1","1","1","1","true","",""
"image-keyboard-response","228","342273","0.0-3.0-6.0-1.0-1.30","60e2600a329d5ebfcb54b413","6662009ae78f21dd82fcd179","6662079f855fbcd7995bd50c","null","","null","","","","","","","","./tasks/HMM-beads/Images/WhiteBeadChoice.png","","","","","","","","","",""
"image-keyboard-response","229","342786","0.0-3.0-6.0-1.0-2.30","60e2600a329d5ebfcb54b413","6662009ae78f21dd82fcd179","6662079f855fbcd7995bd50c","null","","null","","","","","","","","./tasks/HMM-beads/Images/WhiteBeadChoiceCorrect.png","","","","","","","","","",""
"image-keyboard-response","230","343175","0.0-3.0-6.0-1.0-0.31","60e2600a329d5ebfcb54b413","6662009ae78f21dd82fcd179","6662079f855fbcd7995bd50c","389","","j","","","","","","","","./tasks/HMM-beads/Images/NewTrialWC.png","lowH","1","31","1","1","1","1","true","",""
"image-keyboard-response","231","343477","0.0-3.0-6.0-1.0-1.31","60e2600a329d5ebfcb54b413","6662009ae78f21dd82fcd179","6662079f855fbcd7995bd50c","null","","null","","","","","","","","./tasks/HMM-beads/Images/WhiteBeadChoice.png","","","","","","","","","",""
"image-keyboard-response","232","343979","0.0-3.0-6.0-1.0-2.31","60e2600a329d5ebfcb54b413","6662009ae78f21dd82fcd179","6662079f855fbcd7995bd50c","null","","null","","","","","","","","./tasks/HMM-beads/Images/WhiteBeadChoiceCorrect.png","","","","","","","","","",""
"image-keyboard-response","233","344341","0.0-3.0-6.0-1.0-0.32","60e2600a329d5ebfcb54b413","6662009ae78f21dd82fcd179","6662079f855fbcd7995bd50c","361","","j","","","","","","","","./tasks/HMM-beads/Images/NewTrialWC.png","lowH","1","32","1","1","1","1","true","",""
"image-keyboard-response","234","344649","0.0-3.0-6.0-1.0-1.32","60e2600a329d5ebfcb54b413","6662009ae78f21dd82fcd179","6662079f855fbcd7995bd50c","null","","null","","","","","","","","./tasks/HMM-beads/Images/WhiteBeadChoice.png","","","","","","","","","",""
"image-keyboard-response","235","345160","0.0-3.0-6.0-1.0-2.32","60e2600a329d5ebfcb54b413","6662009ae78f21dd82fcd179","6662079f855fbcd7995bd50c","null","","null","","","","","","","","./tasks/HMM-beads/Images/WhiteBeadChoiceCorrect.png","","","","","","","","","",""
"image-keyboard-response","236","345531","0.0-3.0-6.0-1.0-0.33","60e2600a329d5ebfcb54b413","6662009ae78f21dd82fcd179","6662079f855fbcd7995bd50c","371","","j","","","","","","","","./tasks/HMM-beads/Images/NewTrialWC.png","lowH","1","33","1","1","1","1","true","",""
"image-keyboard-response","237","345845","0.0-3.0-6.0-1.0-1.33","60e2600a329d5ebfcb54b413","6662009ae78f21dd82fcd179","6662079f855fbcd7995bd50c","null","","null","","","","","","","","./tasks/HMM-beads/Images/WhiteBeadChoice.png","","","","","","","","","",""
"image-keyboard-response","238","346360","0.0-3.0-6.0-1.0-2.33","60e2600a329d5ebfcb54b413","6662009ae78f21dd82fcd179","6662079f855fbcd7995bd50c","null","","null","","","","","","","","./tasks/HMM-beads/Images/WhiteBeadChoiceCorrect.png","","","","","","","","","",""
"image-keyboard-response","239","346686","0.0-3.0-6.0-1.0-0.34","60e2600a329d5ebfcb54b413","6662009ae78f21dd82fcd179","6662079f855fbcd7995bd50c","325","","j","","","","","","","","./tasks/HMM-beads/Images/NewTrialWC.png","lowH","1","34","1","1","1","1","true","",""
"image-keyboard-response","240","346999","0.0-3.0-6.0-1.0-1.34","60e2600a329d5ebfcb54b413","6662009ae78f21dd82fcd179","6662079f855fbcd7995bd50c","null","","null","","","","","","","","./tasks/HMM-beads/Images/WhiteBeadChoice.png","","","","","","","","","",""
"image-keyboard-response","241","347512","0.0-3.0-6.0-1.0-2.34","60e2600a329d5ebfcb54b413","6662009ae78f21dd82fcd179","6662079f855fbcd7995bd50c","null","","null","","","","","","","","./tasks/HMM-beads/Images/WhiteBeadChoiceCorrect.png","","","","","","","","","",""
"image-keyboard-response","242","347997","0.0-3.0-6.0-1.0-0.35","60e2600a329d5ebfcb54b413","6662009ae78f21dd82fcd179","6662079f855fbcd7995bd50c","485","","j","","","","","","","","./tasks/HMM-beads/Images/NewTrialWC.png","lowH","1","35","1","1","1","1","true","",""
"image-keyboard-response","243","348304","0.0-3.0-6.0-1.0-1.35","60e2600a329d5ebfcb54b413","6662009ae78f21dd82fcd179","6662079f855fbcd7995bd50c","null","","null","","","","","","","","./tasks/HMM-beads/Images/WhiteBeadChoice.png","","","","","","","","","",""
"image-keyboard-response","244","348815","0.0-3.0-6.0-1.0-2.35","60e2600a329d5ebfcb54b413","6662009ae78f21dd82fcd179","6662079f855fbcd7995bd50c","null","","null","","","","","","","","./tasks/HMM-beads/Images/WhiteBeadChoiceCorrect.png","","","","","","","","","",""
"image-keyboard-response","245","349208","0.0-3.0-6.0-1.0-0.36","60e2600a329d5ebfcb54b413","6662009ae78f21dd82fcd179","6662079f855fbcd7995bd50c","391","","j","","","","","","","","./tasks/HMM-beads/Images/NewTrialWC.png","lowH","1","36","1","1","1","1","true","",""
"image-keyboard-response","246","349515","0.0-3.0-6.0-1.0-1.36","60e2600a329d5ebfcb54b413","6662009ae78f21dd82fcd179","6662079f855fbcd7995bd50c","null","","null","","","","","","","","./tasks/HMM-beads/Images/WhiteBeadChoice.png","","","","","","","","","",""
"image-keyboard-response","247","350027","0.0-3.0-6.0-1.0-2.36","60e2600a329d5ebfcb54b413","6662009ae78f21dd82fcd179","6662079f855fbcd7995bd50c","null","","null","","","","","","","","./tasks/HMM-beads/Images/WhiteBeadChoiceCorrect.png","","","","","","","","","",""
"image-keyboard-response","248","350335","0.0-3.0-6.0-1.0-0.37","60e2600a329d5ebfcb54b413","6662009ae78f21dd82fcd179","6662079f855fbcd7995bd50c","306","","j","","","","","","","","./tasks/HMM-beads/Images/NewTrialWC.png","lowH","1","37","1","1","1","1","true","",""
"image-keyboard-response","249","350636","0.0-3.0-6.0-1.0-1.37","60e2600a329d5ebfcb54b413","6662009ae78f21dd82fcd179","6662079f855fbcd7995bd50c","null","","null","","","","","","","","./tasks/HMM-beads/Images/WhiteBeadChoice.png","","","","","","","","","",""
"image-keyboard-response","250","351147","0.0-3.0-6.0-1.0-2.37","60e2600a329d5ebfcb54b413","6662009ae78f21dd82fcd179","6662079f855fbcd7995bd50c","null","","null","","","","","","","","./tasks/HMM-beads/Images/WhiteBeadChoiceCorrect.png","","","","","","","","","",""
"image-keyboard-response","251","351517","0.0-3.0-6.0-1.0-0.38","60e2600a329d5ebfcb54b413","6662009ae78f21dd82fcd179","6662079f855fbcd7995bd50c","369","","j","","","","","","","","./tasks/HMM-beads/Images/NewTrialWC.png","lowH","1","38","1","1","1","1","true","",""
"image-keyboard-response","252","351831","0.0-3.0-6.0-1.0-1.38","60e2600a329d5ebfcb54b413","6662009ae78f21dd82fcd179","6662079f855fbcd7995bd50c","null","","null","","","","","","","","./tasks/HMM-beads/Images/WhiteBeadChoice.png","","","","","","","","","",""
"image-keyboard-response","253","352343","0.0-3.0-6.0-1.0-2.38","60e2600a329d5ebfcb54b413","6662009ae78f21dd82fcd179","6662079f855fbcd7995bd50c","null","","null","","","","","","","","./tasks/HMM-beads/Images/WhiteBeadChoiceCorrect.png","","","","","","","","","",""
"image-keyboard-response","254","352744","0.0-3.0-6.0-1.0-0.39","60e2600a329d5ebfcb54b413","6662009ae78f21dd82fcd179","6662079f855fbcd7995bd50c","400","","j","","","","","","","","./tasks/HMM-beads/Images/NewTrialWC.png","lowH","1","39","1","1","1","1","true","",""
"image-keyboard-response","255","353047","0.0-3.0-6.0-1.0-1.39","60e2600a329d5ebfcb54b413","6662009ae78f21dd82fcd179","6662079f855fbcd7995bd50c","null","","null","","","","","","","","./tasks/HMM-beads/Images/WhiteBeadChoice.png","","","","","","","","","",""
"image-keyboard-response","256","353562","0.0-3.0-6.0-1.0-2.39","60e2600a329d5ebfcb54b413","6662009ae78f21dd82fcd179","6662079f855fbcd7995bd50c","null","","null","","","","","","","","./tasks/HMM-beads/Images/WhiteBeadChoiceCorrect.png","","","","","","","","","",""
"image-keyboard-response","257","353816","0.0-3.0-6.0-1.0-0.40","60e2600a329d5ebfcb54b413","6662009ae78f21dd82fcd179","6662079f855fbcd7995bd50c","252","","j","","","","","","","","./tasks/HMM-beads/Images/NewTrialWC.png","lowH","1","40","1","1","1","1","true","",""
"image-keyboard-response","258","354123","0.0-3.0-6.0-1.0-1.40","60e2600a329d5ebfcb54b413","6662009ae78f21dd82fcd179","6662079f855fbcd7995bd50c","null","","null","","","","","","","","./tasks/HMM-beads/Images/WhiteBeadChoice.png","","","","","","","","","",""
"image-keyboard-response","259","354636","0.0-3.0-6.0-1.0-2.40","60e2600a329d5ebfcb54b413","6662009ae78f21dd82fcd179","6662079f855fbcd7995bd50c","null","","null","","","","","","","","./tasks/HMM-beads/Images/WhiteBeadChoiceCorrect.png","","","","","","","","","",""
"image-keyboard-response","260","354949","0.0-3.0-6.0-1.0-0.41","60e2600a329d5ebfcb54b413","6662009ae78f21dd82fcd179","6662079f855fbcd7995bd50c","311","","j","","","","","","","","./tasks/HMM-beads/Images/NewTrialWC.png","lowH","1","41","1","1","1","1","true","",""
"image-keyboard-response","261","355256","0.0-3.0-6.0-1.0-1.41","60e2600a329d5ebfcb54b413","6662009ae78f21dd82fcd179","6662079f855fbcd7995bd50c","null","","null","","","","","","","","./tasks/HMM-beads/Images/WhiteBeadChoice.png","","","","","","","","","",""
"image-keyboard-response","262","355768","0.0-3.0-6.0-1.0-2.41","60e2600a329d5ebfcb54b413","6662009ae78f21dd82fcd179","6662079f855fbcd7995bd50c","null","","null","","","","","","","","./tasks/HMM-beads/Images/WhiteBeadChoiceCorrect.png","","","","","","","","","",""
"image-keyboard-response","263","356174","0.0-3.0-6.0-1.0-0.42","60e2600a329d5ebfcb54b413","6662009ae78f21dd82fcd179","6662079f855fbcd7995bd50c","401","","j","","","","","","","","./tasks/HMM-beads/Images/NewTrialWC.png","lowH","1","42","1","1","1","1","true","",""
"image-keyboard-response","264","356490","0.0-3.0-6.0-1.0-1.42","60e2600a329d5ebfcb54b413","6662009ae78f21dd82fcd179","6662079f855fbcd7995bd50c","null","","null","","","","","","","","./tasks/HMM-beads/Images/WhiteBeadChoice.png","","","","","","","","","",""
"image-keyboard-response","265","357005","0.0-3.0-6.0-1.0-2.42","60e2600a329d5ebfcb54b413","6662009ae78f21dd82fcd179","6662079f855fbcd7995bd50c","null","","null","","","","","","","","./tasks/HMM-beads/Images/WhiteBeadChoiceCorrect.png","","","","","","","","","",""
"image-keyboard-response","266","357401","0.0-3.0-6.0-1.0-0.43","60e2600a329d5ebfcb54b413","6662009ae78f21dd82fcd179","6662079f855fbcd7995bd50c","396","","j","","","","","","","","./tasks/HMM-beads/Images/NewTrialWC.png","lowH","1","43","1","1","1","1","true","",""
"image-keyboard-response","267","357705","0.0-3.0-6.0-1.0-1.43","60e2600a329d5ebfcb54b413","6662009ae78f21dd82fcd179","6662079f855fbcd7995bd50c","null","","null","","","","","","","","./tasks/HMM-beads/Images/WhiteBeadChoice.png","","","","","","","","","",""
"image-keyboard-response","268","358214","0.0-3.0-6.0-1.0-2.43","60e2600a329d5ebfcb54b413","6662009ae78f21dd82fcd179","6662079f855fbcd7995bd50c","null","","null","","","","","","","","./tasks/HMM-beads/Images/WhiteBeadChoiceCorrect.png","","","","","","","","","",""
"image-keyboard-response","269","358618","0.0-3.0-6.0-1.0-0.44","60e2600a329d5ebfcb54b413","6662009ae78f21dd82fcd179","6662079f855fbcd7995bd50c","403","","j","","","","","","","","./tasks/HMM-beads/Images/NewTrialWC.png","lowH","1","44","1","1","1","1","true","",""
"image-keyboard-response","270","358926","0.0-3.0-6.0-1.0-1.44","60e2600a329d5ebfcb54b413","6662009ae78f21dd82fcd179","6662079f855fbcd7995bd50c","null","","null","","","","","","","","./tasks/HMM-beads/Images/WhiteBeadChoice.png","","","","","","","","","",""
"image-keyboard-response","271","359438","0.0-3.0-6.0-1.0-2.44","60e2600a329d5ebfcb54b413","6662009ae78f21dd82fcd179","6662079f855fbcd7995bd50c","null","","null","","","","","","","","./tasks/HMM-beads/Images/WhiteBeadChoiceCorrect.png","","","","","","","","","",""
"image-keyboard-response","272","359853","0.0-3.0-6.0-1.0-0.45","60e2600a329d5ebfcb54b413","6662009ae78f21dd82fcd179","6662079f855fbcd7995bd50c","414","","j","","","","","","","","./tasks/HMM-beads/Images/NewTrialWC.png","lowH","1","45","1","1","1","1","true","",""
"image-keyboard-response","273","360158","0.0-3.0-6.0-1.0-1.45","60e2600a329d5ebfcb54b413","6662009ae78f21dd82fcd179","6662079f855fbcd7995bd50c","null","","null","","","","","","","","./tasks/HMM-beads/Images/WhiteBeadChoice.png","","","","","","","","","",""
"image-keyboard-response","274","360671","0.0-3.0-6.0-1.0-2.45","60e2600a329d5ebfcb54b413","6662009ae78f21dd82fcd179","6662079f855fbcd7995bd50c","null","","null","","","","","","","","./tasks/HMM-beads/Images/WhiteBeadChoiceCorrect.png","","","","","","","","","",""
"image-keyboard-response","275","361070","0.0-3.0-6.0-1.0-0.46","60e2600a329d5ebfcb54b413","6662009ae78f21dd82fcd179","6662079f855fbcd7995bd50c","398","","j","","","","","","","","./tasks/HMM-beads/Images/NewTrialWC.png","lowH","1","46","1","1","1","1","true","",""
"image-keyboard-response","276","361384","0.0-3.0-6.0-1.0-1.46","60e2600a329d5ebfcb54b413","6662009ae78f21dd82fcd179","6662079f855fbcd7995bd50c","null","","null","","","","","","","","./tasks/HMM-beads/Images/WhiteBeadChoice.png","","","","","","","","","",""
"image-keyboard-response","277","361897","0.0-3.0-6.0-1.0-2.46","60e2600a329d5ebfcb54b413","6662009ae78f21dd82fcd179","6662079f855fbcd7995bd50c","null","","null","","","","","","","","./tasks/HMM-beads/Images/WhiteBeadChoiceCorrect.png","","","","","","","","","",""
"image-keyboard-response","278","362288","0.0-3.0-6.0-1.0-0.47","60e2600a329d5ebfcb54b413","6662009ae78f21dd82fcd179","6662079f855fbcd7995bd50c","390","","j","","","","","","","","./tasks/HMM-beads/Images/NewTrialWC.png","lowH","1","47","1","0","1","1","false","",""
"image-keyboard-response","279","362599","0.0-3.0-6.0-1.0-1.47","60e2600a329d5ebfcb54b413","6662009ae78f21dd82fcd179","6662079f855fbcd7995bd50c","null","","null","","","","","","","","./tasks/HMM-beads/Images/WhiteBeadChoice.png","","","","","","","","","",""
"image-keyboard-response","280","363116","0.0-3.0-6.0-1.0-2.47","60e2600a329d5ebfcb54b413","6662009ae78f21dd82fcd179","6662079f855fbcd7995bd50c","null","","null","","","","","","","","./tasks/HMM-beads/Images/WhiteBeadChoiceWrong.png","","","","","","","","","",""
"image-keyboard-response","281","363532","0.0-3.0-6.0-1.0-0.48","60e2600a329d5ebfcb54b413","6662009ae78f21dd82fcd179","6662079f855fbcd7995bd50c","415","","f","","","","","","","","./tasks/HMM-beads/Images/NewTrialBC.png","lowH","1","48","1","0","0","0","true","",""
"image-keyboard-response","282","363847","0.0-3.0-6.0-1.0-1.48","60e2600a329d5ebfcb54b413","6662009ae78f21dd82fcd179","6662079f855fbcd7995bd50c","null","","null","","","","","","","","./tasks/HMM-beads/Images/BlackBeadChoice.png","","","","","","","","","",""
"image-keyboard-response","283","364361","0.0-3.0-6.0-1.0-2.48","60e2600a329d5ebfcb54b413","6662009ae78f21dd82fcd179","6662079f855fbcd7995bd50c","null","","null","","","","","","","","./tasks/HMM-beads/Images/BlackBeadChoiceCorrect.png","","","","","","","","","",""
"image-keyboard-response","284","364722","0.0-3.0-6.0-1.0-0.49","60e2600a329d5ebfcb54b413","6662009ae78f21dd82fcd179","6662079f855fbcd7995bd50c","360","","f","","","","","","","","./tasks/HMM-beads/Images/NewTrialBC.png","lowH","1","49","1","0","0","0","true","",""
"image-keyboard-response","285","365027","0.0-3.0-6.0-1.0-1.49","60e2600a329d5ebfcb54b413","6662009ae78f21dd82fcd179","6662079f855fbcd7995bd50c","null","","null","","","","","","","","./tasks/HMM-beads/Images/BlackBeadChoice.png","","","","","","","","","",""
"image-keyboard-response","286","365539","0.0-3.0-6.0-1.0-2.49","60e2600a329d5ebfcb54b413","6662009ae78f21dd82fcd179","6662079f855fbcd7995bd50c","null","","null","","","","","","","","./tasks/HMM-beads/Images/BlackBeadChoiceCorrect.png","","","","","","","","","",""
"image-keyboard-response","287","365937","0.0-3.0-6.0-1.0-0.50","60e2600a329d5ebfcb54b413","6662009ae78f21dd82fcd179","6662079f855fbcd7995bd50c","397","","f","","","","","","","","./tasks/HMM-beads/Images/NewTrialBC.png","lowH","1","50","1","1","0","0","false","",""
"image-keyboard-response","288","366240","0.0-3.0-6.0-1.0-1.50","60e2600a329d5ebfcb54b413","6662009ae78f21dd82fcd179","6662079f855fbcd7995bd50c","null","","null","","","","","","","","./tasks/HMM-beads/Images/BlackBeadChoice.png","","","","","","","","","",""
"image-keyboard-response","289","366749","0.0-3.0-6.0-1.0-2.50","60e2600a329d5ebfcb54b413","6662009ae78f21dd82fcd179","6662079f855fbcd7995bd50c","null","","null","","","","","","","","./tasks/HMM-beads/Images/BlackBeadChoiceWrong.png","","","","","","","","","",""
"image-keyboard-response","290","367075","0.0-3.0-6.0-1.0-0.51","60e2600a329d5ebfcb54b413","6662009ae78f21dd82fcd179","6662079f855fbcd7995bd50c","325","","j","","","","","","","","./tasks/HMM-beads/Images/NewTrialWC.png","lowH","1","51","1","1","1","1","true","",""
"image-keyboard-response","291","367387","0.0-3.0-6.0-1.0-1.51","60e2600a329d5ebfcb54b413","6662009ae78f21dd82fcd179","6662079f855fbcd7995bd50c","null","","null","","","","","","","","./tasks/HMM-beads/Images/WhiteBeadChoice.png","","","","","","","","","",""
"image-keyboard-response","292","367895","0.0-3.0-6.0-1.0-2.51","60e2600a329d5ebfcb54b413","6662009ae78f21dd82fcd179","6662079f855fbcd7995bd50c","null","","null","","","","","","","","./tasks/HMM-beads/Images/WhiteBeadChoiceCorrect.png","","","","","","","","","",""
"image-keyboard-response","293","368282","0.0-3.0-6.0-1.0-0.52","60e2600a329d5ebfcb54b413","6662009ae78f21dd82fcd179","6662079f855fbcd7995bd50c","386","","j","","","","","","","","./tasks/HMM-beads/Images/NewTrialWC.png","lowH","1","52","1","1","1","1","true","",""
"image-keyboard-response","294","368583","0.0-3.0-6.0-1.0-1.52","60e2600a329d5ebfcb54b413","6662009ae78f21dd82fcd179","6662079f855fbcd7995bd50c","null","","null","","","","","","","","./tasks/HMM-beads/Images/WhiteBeadChoice.png","","","","","","","","","",""
"image-keyboard-response","295","369095","0.0-3.0-6.0-1.0-2.52","60e2600a329d5ebfcb54b413","6662009ae78f21dd82fcd179","6662079f855fbcd7995bd50c","null","","null","","","","","","","","./tasks/HMM-beads/Images/WhiteBeadChoiceCorrect.png","","","","","","","","","",""
"image-keyboard-response","296","369409","0.0-3.0-6.0-1.0-0.53","60e2600a329d5ebfcb54b413","6662009ae78f21dd82fcd179","6662079f855fbcd7995bd50c","313","","j","","","","","","","","./tasks/HMM-beads/Images/NewTrialWC.png","lowH","1","53","1","1","1","1","true","",""
"image-keyboard-response","297","369717","0.0-3.0-6.0-1.0-1.53","60e2600a329d5ebfcb54b413","6662009ae78f21dd82fcd179","6662079f855fbcd7995bd50c","null","","null","","","","","","","","./tasks/HMM-beads/Images/WhiteBeadChoice.png","","","","","","","","","",""
"image-keyboard-response","298","370222","0.0-3.0-6.0-1.0-2.53","60e2600a329d5ebfcb54b413","6662009ae78f21dd82fcd179","6662079f855fbcd7995bd50c","null","","null","","","","","","","","./tasks/HMM-beads/Images/WhiteBeadChoiceCorrect.png","","","","","","","","","",""
"image-keyboard-response","299","370621","0.0-3.0-6.0-1.0-0.54","60e2600a329d5ebfcb54b413","6662009ae78f21dd82fcd179","6662079f855fbcd7995bd50c","398","","j","","","","","","","","./tasks/HMM-beads/Images/NewTrialWC.png","lowH","1","54","1","1","1","1","true","",""
"image-keyboard-response","300","370931","0.0-3.0-6.0-1.0-1.54","60e2600a329d5ebfcb54b413","6662009ae78f21dd82fcd179","6662079f855fbcd7995bd50c","null","","null","","","","","","","","./tasks/HMM-beads/Images/WhiteBeadChoice.png","","","","","","","","","",""
"image-keyboard-response","301","371442","0.0-3.0-6.0-1.0-2.54","60e2600a329d5ebfcb54b413","6662009ae78f21dd82fcd179","6662079f855fbcd7995bd50c","null","","null","","","","","","","","./tasks/HMM-beads/Images/WhiteBeadChoiceCorrect.png","","","","","","","","","",""
"image-keyboard-response","302","371799","0.0-3.0-6.0-1.0-0.55","60e2600a329d5ebfcb54b413","6662009ae78f21dd82fcd179","6662079f855fbcd7995bd50c","354","","j","","","","","","","","./tasks/HMM-beads/Images/NewTrialWC.png","lowH","1","55","1","1","1","1","true","",""
"image-keyboard-response","303","372112","0.0-3.0-6.0-1.0-1.55","60e2600a329d5ebfcb54b413","6662009ae78f21dd82fcd179","6662079f855fbcd7995bd50c","null","","null","","","","","","","","./tasks/HMM-beads/Images/WhiteBeadChoice.png","","","","","","","","","",""
"image-keyboard-response","304","372624","0.0-3.0-6.0-1.0-2.55","60e2600a329d5ebfcb54b413","6662009ae78f21dd82fcd179","6662079f855fbcd7995bd50c","null","","null","","","","","","","","./tasks/HMM-beads/Images/WhiteBeadChoiceCorrect.png","","","","","","","","","",""
"image-keyboard-response","305","373032","0.0-3.0-6.0-1.0-0.56","60e2600a329d5ebfcb54b413","6662009ae78f21dd82fcd179","6662079f855fbcd7995bd50c","407","","j","","","","","","","","./tasks/HMM-beads/Images/NewTrialWC.png","lowH","1","56","1","1","1","1","true","",""
"image-keyboard-response","306","373342","0.0-3.0-6.0-1.0-1.56","60e2600a329d5ebfcb54b413","6662009ae78f21dd82fcd179","6662079f855fbcd7995bd50c","null","","null","","","","","","","","./tasks/HMM-beads/Images/WhiteBeadChoice.png","","","","","","","","","",""
"image-keyboard-response","307","373852","0.0-3.0-6.0-1.0-2.56","60e2600a329d5ebfcb54b413","6662009ae78f21dd82fcd179","6662079f855fbcd7995bd50c","null","","null","","","","","","","","./tasks/HMM-beads/Images/WhiteBeadChoiceCorrect.png","","","","","","","","","",""
"image-keyboard-response","308","374234","0.0-3.0-6.0-1.0-0.57","60e2600a329d5ebfcb54b413","6662009ae78f21dd82fcd179","6662079f855fbcd7995bd50c","381","","j","","","","","","","","./tasks/HMM-beads/Images/NewTrialWC.png","lowH","1","57","1","1","1","1","true","",""
"image-keyboard-response","309","374548","0.0-3.0-6.0-1.0-1.57","60e2600a329d5ebfcb54b413","6662009ae78f21dd82fcd179","6662079f855fbcd7995bd50c","null","","null","","","","","","","","./tasks/HMM-beads/Images/WhiteBeadChoice.png","","","","","","","","","",""
"image-keyboard-response","310","375061","0.0-3.0-6.0-1.0-2.57","60e2600a329d5ebfcb54b413","6662009ae78f21dd82fcd179","6662079f855fbcd7995bd50c","null","","null","","","","","","","","./tasks/HMM-beads/Images/WhiteBeadChoiceCorrect.png","","","","","","","","","",""
"image-keyboard-response","311","375452","0.0-3.0-6.0-1.0-0.58","60e2600a329d5ebfcb54b413","6662009ae78f21dd82fcd179","6662079f855fbcd7995bd50c","390","","j","","","","","","","","./tasks/HMM-beads/Images/NewTrialWC.png","lowH","1","58","1","1","1","1","true","",""
"image-keyboard-response","312","375758","0.0-3.0-6.0-1.0-1.58","60e2600a329d5ebfcb54b413","6662009ae78f21dd82fcd179","6662079f855fbcd7995bd50c","null","","null","","","","","","","","./tasks/HMM-beads/Images/WhiteBeadChoice.png","","","","","","","","","",""
"image-keyboard-response","313","376270","0.0-3.0-6.0-1.0-2.58","60e2600a329d5ebfcb54b413","6662009ae78f21dd82fcd179","6662079f855fbcd7995bd50c","null","","null","","","","","","","","./tasks/HMM-beads/Images/WhiteBeadChoiceCorrect.png","","","","","","","","","",""
"image-keyboard-response","314","376716","0.0-3.0-6.0-1.0-0.59","60e2600a329d5ebfcb54b413","6662009ae78f21dd82fcd179","6662079f855fbcd7995bd50c","445","","j","","","","","","","","./tasks/HMM-beads/Images/NewTrialWC.png","lowH","1","59","1","0","1","1","false","",""
"image-keyboard-response","315","377018","0.0-3.0-6.0-1.0-1.59","60e2600a329d5ebfcb54b413","6662009ae78f21dd82fcd179","6662079f855fbcd7995bd50c","null","","null","","","","","","","","./tasks/HMM-beads/Images/WhiteBeadChoice.png","","","","","","","","","",""
"image-keyboard-response","316","377527","0.0-3.0-6.0-1.0-2.59","60e2600a329d5ebfcb54b413","6662009ae78f21dd82fcd179","6662079f855fbcd7995bd50c","null","","null","","","","","","","","./tasks/HMM-beads/Images/WhiteBeadChoiceWrong.png","","","","","","","","","",""
"image-keyboard-response","317","377900","0.0-3.0-6.0-1.0-0.60","60e2600a329d5ebfcb54b413","6662009ae78f21dd82fcd179","6662079f855fbcd7995bd50c","372","","f","","","","","","","","./tasks/HMM-beads/Images/NewTrialBC.png","lowH","1","60","1","1","0","0","false","",""
"image-keyboard-response","318","378212","0.0-3.0-6.0-1.0-1.60","60e2600a329d5ebfcb54b413","6662009ae78f21dd82fcd179","6662079f855fbcd7995bd50c","null","","null","","","","","","","","./tasks/HMM-beads/Images/BlackBeadChoice.png","","","","","","","","","",""
"image-keyboard-response","319","378727","0.0-3.0-6.0-1.0-2.60","60e2600a329d5ebfcb54b413","6662009ae78f21dd82fcd179","6662079f855fbcd7995bd50c","null","","null","","","","","","","","./tasks/HMM-beads/Images/BlackBeadChoiceWrong.png","","","","","","","","","",""
"image-keyboard-response","320","379114","0.0-3.0-6.0-1.0-0.61","60e2600a329d5ebfcb54b413","6662009ae78f21dd82fcd179","6662079f855fbcd7995bd50c","386","","j","","","","","","","","./tasks/HMM-beads/Images/NewTrialWC.png","lowH","1","61","1","1","1","1","true","",""
"image-keyboard-response","321","379426","0.0-3.0-6.0-1.0-1.61","60e2600a329d5ebfcb54b413","6662009ae78f21dd82fcd179","6662079f855fbcd7995bd50c","null","","null","","","","","","","","./tasks/HMM-beads/Images/WhiteBeadChoice.png","","","","","","","","","",""
"image-keyboard-response","322","379941","0.0-3.0-6.0-1.0-2.61","60e2600a329d5ebfcb54b413","6662009ae78f21dd82fcd179","6662079f855fbcd7995bd50c","null","","null","","","","","","","","./tasks/HMM-beads/Images/WhiteBeadChoiceCorrect.png","","","","","","","","","",""
"image-keyboard-response","323","380241","0.0-3.0-6.0-1.0-0.62","60e2600a329d5ebfcb54b413","6662009ae78f21dd82fcd179","6662079f855fbcd7995bd50c","299","","j","","","","","","","","./tasks/HMM-beads/Images/NewTrialWC.png","lowH","1","62","1","0","1","1","false","",""
"image-keyboard-response","324","380549","0.0-3.0-6.0-1.0-1.62","60e2600a329d5ebfcb54b413","6662009ae78f21dd82fcd179","6662079f855fbcd7995bd50c","null","","null","","","","","","","","./tasks/HMM-beads/Images/WhiteBeadChoice.png","","","","","","","","","",""
"image-keyboard-response","325","381061","0.0-3.0-6.0-1.0-2.62","60e2600a329d5ebfcb54b413","6662009ae78f21dd82fcd179","6662079f855fbcd7995bd50c","null","","null","","","","","","","","./tasks/HMM-beads/Images/WhiteBeadChoiceWrong.png","","","","","","","","","",""
"image-keyboard-response","326","381490","0.0-3.0-6.0-1.0-0.63","60e2600a329d5ebfcb54b413","6662009ae78f21dd82fcd179","6662079f855fbcd7995bd50c","428","","f","","","","","","","","./tasks/HMM-beads/Images/NewTrialBC.png","lowH","1","63","1","1","0","0","false","",""
"image-keyboard-response","327","381807","0.0-3.0-6.0-1.0-1.63","60e2600a329d5ebfcb54b413","6662009ae78f21dd82fcd179","6662079f855fbcd7995bd50c","null","","null","","","","","","","","./tasks/HMM-beads/Images/BlackBeadChoice.png","","","","","","","","","",""
"image-keyboard-response","328","382324","0.0-3.0-6.0-1.0-2.63","60e2600a329d5ebfcb54b413","6662009ae78f21dd82fcd179","6662079f855fbcd7995bd50c","null","","null","","","","","","","","./tasks/HMM-beads/Images/BlackBeadChoiceWrong.png","","","","","","","","","",""
"image-keyboard-response","329","382787","0.0-3.0-6.0-1.0-0.64","60e2600a329d5ebfcb54b413","6662009ae78f21dd82fcd179","6662079f855fbcd7995bd50c","462","","j","","","","","","","","./tasks/HMM-beads/Images/NewTrialWC.png","lowH","1","64","1","1","1","1","true","",""
"image-keyboard-response","330","383100","0.0-3.0-6.0-1.0-1.64","60e2600a329d5ebfcb54b413","6662009ae78f21dd82fcd179","6662079f855fbcd7995bd50c","null","","null","","","","","","","","./tasks/HMM-beads/Images/WhiteBeadChoice.png","","","","","","","","","",""
"image-keyboard-response","331","383612","0.0-3.0-6.0-1.0-2.64","60e2600a329d5ebfcb54b413","6662009ae78f21dd82fcd179","6662079f855fbcd7995bd50c","null","","null","","","","","","","","./tasks/HMM-beads/Images/WhiteBeadChoiceCorrect.png","","","","","","","","","",""
"image-keyboard-response","332","384110","0.0-3.0-6.0-1.0-0.65","60e2600a329d5ebfcb54b413","6662009ae78f21dd82fcd179","6662079f855fbcd7995bd50c","498","","j","","","","","","","","./tasks/HMM-beads/Images/NewTrialWC.png","lowH","1","65","1","1","1","1","true","",""
"image-keyboard-response","333","384416","0.0-3.0-6.0-1.0-1.65","60e2600a329d5ebfcb54b413","6662009ae78f21dd82fcd179","6662079f855fbcd7995bd50c","null","","null","","","","","","","","./tasks/HMM-beads/Images/WhiteBeadChoice.png","","","","","","","","","",""
"image-keyboard-response","334","384926","0.0-3.0-6.0-1.0-2.65","60e2600a329d5ebfcb54b413","6662009ae78f21dd82fcd179","6662079f855fbcd7995bd50c","null","","null","","","","","","","","./tasks/HMM-beads/Images/WhiteBeadChoiceCorrect.png","","","","","","","","","",""
"image-keyboard-response","335","385234","0.0-3.0-6.0-1.0-0.66","60e2600a329d5ebfcb54b413","6662009ae78f21dd82fcd179","6662079f855fbcd7995bd50c","307","","j","","","","","","","","./tasks/HMM-beads/Images/NewTrialWC.png","lowH","1","66","1","1","1","1","true","",""
"image-keyboard-response","336","385546","0.0-3.0-6.0-1.0-1.66","60e2600a329d5ebfcb54b413","6662009ae78f21dd82fcd179","6662079f855fbcd7995bd50c","null","","null","","","","","","","","./tasks/HMM-beads/Images/WhiteBeadChoice.png","","","","","","","","","",""
"image-keyboard-response","337","386062","0.0-3.0-6.0-1.0-2.66","60e2600a329d5ebfcb54b413","6662009ae78f21dd82fcd179","6662079f855fbcd7995bd50c","null","","null","","","","","","","","./tasks/HMM-beads/Images/WhiteBeadChoiceCorrect.png","","","","","","","","","",""
"image-keyboard-response","338","386348","0.0-3.0-6.0-1.0-0.67","60e2600a329d5ebfcb54b413","6662009ae78f21dd82fcd179","6662079f855fbcd7995bd50c","285","","j","","","","","","","","./tasks/HMM-beads/Images/NewTrialWC.png","lowH","1","67","1","0","1","1","false","",""
"image-keyboard-response","339","386651","0.0-3.0-6.0-1.0-1.67","60e2600a329d5ebfcb54b413","6662009ae78f21dd82fcd179","6662079f855fbcd7995bd50c","null","","null","","","","","","","","./tasks/HMM-beads/Images/WhiteBeadChoice.png","","","","","","","","","",""
"image-keyboard-response","340","387164","0.0-3.0-6.0-1.0-2.67","60e2600a329d5ebfcb54b413","6662009ae78f21dd82fcd179","6662079f855fbcd7995bd50c","null","","null","","","","","","","","./tasks/HMM-beads/Images/WhiteBeadChoiceWrong.png","","","","","","","","","",""
"image-keyboard-response","341","387668","0.0-3.0-6.0-1.0-0.68","60e2600a329d5ebfcb54b413","6662009ae78f21dd82fcd179","6662079f855fbcd7995bd50c","502","","f","","","","","","","","./tasks/HMM-beads/Images/NewTrialBC.png","lowH","1","68","1","1","0","0","false","",""
"image-keyboard-response","342","387983","0.0-3.0-6.0-1.0-1.68","60e2600a329d5ebfcb54b413","6662009ae78f21dd82fcd179","6662079f855fbcd7995bd50c","null","","null","","","","","","","","./tasks/HMM-beads/Images/BlackBeadChoice.png","","","","","","","","","",""
"image-keyboard-response","343","388496","0.0-3.0-6.0-1.0-2.68","60e2600a329d5ebfcb54b413","6662009ae78f21dd82fcd179","6662079f855fbcd7995bd50c","null","","null","","","","","","","","./tasks/HMM-beads/Images/BlackBeadChoiceWrong.png","","","","","","","","","",""
"image-keyboard-response","344","388916","0.0-3.0-6.0-1.0-0.69","60e2600a329d5ebfcb54b413","6662009ae78f21dd82fcd179","6662079f855fbcd7995bd50c","419","","j","","","","","","","","./tasks/HMM-beads/Images/NewTrialWC.png","lowH","1","69","0","1","1","1","true","",""
"image-keyboard-response","345","389227","0.0-3.0-6.0-1.0-1.69","60e2600a329d5ebfcb54b413","6662009ae78f21dd82fcd179","6662079f855fbcd7995bd50c","null","","null","","","","","","","","./tasks/HMM-beads/Images/WhiteBeadChoice.png","","","","","","","","","",""
"image-keyboard-response","346","389731","0.0-3.0-6.0-1.0-2.69","60e2600a329d5ebfcb54b413","6662009ae78f21dd82fcd179","6662079f855fbcd7995bd50c","null","","null","","","","","","","","./tasks/HMM-beads/Images/WhiteBeadChoiceCorrect.png","","","","","","","","","",""
"image-keyboard-response","347","390170","0.0-3.0-6.0-1.0-0.70","60e2600a329d5ebfcb54b413","6662009ae78f21dd82fcd179","6662079f855fbcd7995bd50c","437","","j","","","","","","","","./tasks/HMM-beads/Images/NewTrialWC.png","lowH","1","70","0","1","1","1","true","",""
"image-keyboard-response","348","390479","0.0-3.0-6.0-1.0-1.70","60e2600a329d5ebfcb54b413","6662009ae78f21dd82fcd179","6662079f855fbcd7995bd50c","null","","null","","","","","","","","./tasks/HMM-beads/Images/WhiteBeadChoice.png","","","","","","","","","",""
"image-keyboard-response","349","390988","0.0-3.0-6.0-1.0-2.70","60e2600a329d5ebfcb54b413","6662009ae78f21dd82fcd179","6662079f855fbcd7995bd50c","null","","null","","","","","","","","./tasks/HMM-beads/Images/WhiteBeadChoiceCorrect.png","","","","","","","","","",""
"image-keyboard-response","350","391338","0.0-3.0-6.0-1.0-0.71","60e2600a329d5ebfcb54b413","6662009ae78f21dd82fcd179","6662079f855fbcd7995bd50c","348","","j","","","","","","","","./tasks/HMM-beads/Images/NewTrialWC.png","lowH","1","71","0","0","1","1","false","",""
"image-keyboard-response","351","391648","0.0-3.0-6.0-1.0-1.71","60e2600a329d5ebfcb54b413","6662009ae78f21dd82fcd179","6662079f855fbcd7995bd50c","null","","null","","","","","","","","./tasks/HMM-beads/Images/WhiteBeadChoice.png","","","","","","","","","",""
"image-keyboard-response","352","392162","0.0-3.0-6.0-1.0-2.71","60e2600a329d5ebfcb54b413","6662009ae78f21dd82fcd179","6662079f855fbcd7995bd50c","null","","null","","","","","","","","./tasks/HMM-beads/Images/WhiteBeadChoiceWrong.png","","","","","","","","","",""
"image-keyboard-response","353","392559","0.0-3.0-6.0-1.0-0.72","60e2600a329d5ebfcb54b413","6662009ae78f21dd82fcd179","6662079f855fbcd7995bd50c","396","","f","","","","","","","","./tasks/HMM-beads/Images/NewTrialBC.png","lowH","1","72","0","0","0","0","true","",""
"image-keyboard-response","354","392874","0.0-3.0-6.0-1.0-1.72","60e2600a329d5ebfcb54b413","6662009ae78f21dd82fcd179","6662079f855fbcd7995bd50c","null","","null","","","","","","","","./tasks/HMM-beads/Images/BlackBeadChoice.png","","","","","","","","","",""
"image-keyboard-response","355","393387","0.0-3.0-6.0-1.0-2.72","60e2600a329d5ebfcb54b413","6662009ae78f21dd82fcd179","6662079f855fbcd7995bd50c","null","","null","","","","","","","","./tasks/HMM-beads/Images/BlackBeadChoiceCorrect.png","","","","","","","","","",""
"image-keyboard-response","356","393916","0.0-3.0-6.0-1.0-0.73","60e2600a329d5ebfcb54b413","6662009ae78f21dd82fcd179","6662079f855fbcd7995bd50c","528","","f","","","","","","","","./tasks/HMM-beads/Images/NewTrialBC.png","lowH","1","73","0","1","0","0","false","",""
"image-keyboard-response","357","394226","0.0-3.0-6.0-1.0-1.73","60e2600a329d5ebfcb54b413","6662009ae78f21dd82fcd179","6662079f855fbcd7995bd50c","null","","null","","","","","","","","./tasks/HMM-beads/Images/BlackBeadChoice.png","","","","","","","","","",""
"image-keyboard-response","358","394736","0.0-3.0-6.0-1.0-2.73","60e2600a329d5ebfcb54b413","6662009ae78f21dd82fcd179","6662079f855fbcd7995bd50c","null","","null","","","","","","","","./tasks/HMM-beads/Images/BlackBeadChoiceWrong.png","","","","","","","","","",""
"image-keyboard-response","359","395070","0.0-3.0-6.0-1.0-0.74","60e2600a329d5ebfcb54b413","6662009ae78f21dd82fcd179","6662079f855fbcd7995bd50c","333","","j","","","","","","","","./tasks/HMM-beads/Images/NewTrialWC.png","lowH","1","74","0","0","1","1","false","",""
"image-keyboard-response","360","395373","0.0-3.0-6.0-1.0-1.74","60e2600a329d5ebfcb54b413","6662009ae78f21dd82fcd179","6662079f855fbcd7995bd50c","null","","null","","","","","","","","./tasks/HMM-beads/Images/WhiteBeadChoice.png","","","","","","","","","",""
"image-keyboard-response","361","395876","0.0-3.0-6.0-1.0-2.74","60e2600a329d5ebfcb54b413","6662009ae78f21dd82fcd179","6662079f855fbcd7995bd50c","null","","null","","","","","","","","./tasks/HMM-beads/Images/WhiteBeadChoiceWrong.png","","","","","","","","","",""
"image-keyboard-response","362","396191","0.0-3.0-6.0-1.0-0.75","60e2600a329d5ebfcb54b413","6662009ae78f21dd82fcd179","6662079f855fbcd7995bd50c","314","","f","","","","","","","","./tasks/HMM-beads/Images/NewTrialBC.png","lowH","1","75","0","1","0","0","false","",""
"image-keyboard-response","363","396498","0.0-3.0-6.0-1.0-1.75","60e2600a329d5ebfcb54b413","6662009ae78f21dd82fcd179","6662079f855fbcd7995bd50c","null","","null","","","","","","","","./tasks/HMM-beads/Images/BlackBeadChoice.png","","","","","","","","","",""
"image-keyboard-response","364","397010","0.0-3.0-6.0-1.0-2.75","60e2600a329d5ebfcb54b413","6662009ae78f21dd82fcd179","6662079f855fbcd7995bd50c","null","","null","","","","","","","","./tasks/HMM-beads/Images/BlackBeadChoiceWrong.png","","","","","","","","","",""
"image-keyboard-response","365","397418","0.0-3.0-6.0-1.0-0.76","60e2600a329d5ebfcb54b413","6662009ae78f21dd82fcd179","6662079f855fbcd7995bd50c","407","","j","","","","","","","","./tasks/HMM-beads/Images/NewTrialWC.png","lowH","1","76","0","1","1","1","true","",""
"image-keyboard-response","366","397723","0.0-3.0-6.0-1.0-1.76","60e2600a329d5ebfcb54b413","6662009ae78f21dd82fcd179","6662079f855fbcd7995bd50c","null","","null","","","","","","","","./tasks/HMM-beads/Images/WhiteBeadChoice.png","","","","","","","","","",""
"image-keyboard-response","367","398237","0.0-3.0-6.0-1.0-2.76","60e2600a329d5ebfcb54b413","6662009ae78f21dd82fcd179","6662079f855fbcd7995bd50c","null","","null","","","","","","","","./tasks/HMM-beads/Images/WhiteBeadChoiceCorrect.png","","","","","","","","","",""
"image-keyboard-response","368","398491","0.0-3.0-6.0-1.0-0.77","60e2600a329d5ebfcb54b413","6662009ae78f21dd82fcd179","6662079f855fbcd7995bd50c","252","","j","","","","","","","","./tasks/HMM-beads/Images/NewTrialWC.png","lowH","1","77","0","0","1","1","false","",""
"image-keyboard-response","369","398796","0.0-3.0-6.0-1.0-1.77","60e2600a329d5ebfcb54b413","6662009ae78f21dd82fcd179","6662079f855fbcd7995bd50c","null","","null","","","","","","","","./tasks/HMM-beads/Images/WhiteBeadChoice.png","","","","","","","","","",""
"image-keyboard-response","370","399311","0.0-3.0-6.0-1.0-2.77","60e2600a329d5ebfcb54b413","6662009ae78f21dd82fcd179","6662079f855fbcd7995bd50c","null","","null","","","","","","","","./tasks/HMM-beads/Images/WhiteBeadChoiceWrong.png","","","","","","","","","",""
"image-keyboard-response","371","399657","0.0-3.0-6.0-1.0-0.78","60e2600a329d5ebfcb54b413","6662009ae78f21dd82fcd179","6662079f855fbcd7995bd50c","345","","f","","","","","","","","./tasks/HMM-beads/Images/NewTrialBC.png","lowH","1","78","0","0","0","0","true","",""
"image-keyboard-response","372","399962","0.0-3.0-6.0-1.0-1.78","60e2600a329d5ebfcb54b413","6662009ae78f21dd82fcd179","6662079f855fbcd7995bd50c","null","","null","","","","","","","","./tasks/HMM-beads/Images/BlackBeadChoice.png","","","","","","","","","",""
"image-keyboard-response","373","400473","0.0-3.0-6.0-1.0-2.78","60e2600a329d5ebfcb54b413","6662009ae78f21dd82fcd179","6662079f855fbcd7995bd50c","null","","null","","","","","","","","./tasks/HMM-beads/Images/BlackBeadChoiceCorrect.png","","","","","","","","","",""
"image-keyboard-response","374","400807","0.0-3.0-6.0-1.0-0.79","60e2600a329d5ebfcb54b413","6662009ae78f21dd82fcd179","6662079f855fbcd7995bd50c","332","","f","","","","","","","","./tasks/HMM-beads/Images/NewTrialBC.png","lowH","1","79","0","0","0","0","true","",""
