"trial_type","trial_index","time_elapsed","internal_node_id","subject_id","study_id","session_id","rt","url","response","question_order","view_history","success","timeout","failed_images","failed_audio","failed_video","stimulus","block","block_rep","trial_number","jar","bead","previous_bead","choice","correct","lowH_score","total_bonus"
"pavlovia","0","1390","0.0-0.0","5e35de293e64955878774717","6662009ae78f21dd82fcd179","6662024d4cbacf8a8f9eae70","","","","","","","","","","","","","","","","","","","","",""
"external-html","1","160551","0.0-1.0-0.0","5e35de293e64955878774717","6662009ae78f21dd82fcd179","6662024d4cbacf8a8f9eae70","158976","new_consent.html","","","","","","","","","","","","","","","","","","",""
"survey-multi-choice","2","169836","0.0-1.0-1.0","5e35de293e64955878774717","6662009ae78f21dd82fcd179","6662024d4cbacf8a8f9eae70","9279","","{""Q0"":""Female"",""Q1"":""White""}","[0,1]","","","","","","","","","","","","","","","","",""
"survey-text","3","174281","0.0-1.0-2.0","5e35de293e64955878774717","6662009ae78f21dd82fcd179","6662024d4cbacf8a8f9eae70","4436","","{""Q0"":""54""}","","","","","","","","","","","","","","","","","",""
"instructions","4","176997","0.0-2.0","5e35de293e64955878774717","6662009ae78f21dd82fcd179","6662024d4cbacf8a8f9eae70","2613","","","","[{""page_index"":0,""viewing_time"":2611}]","","","","","","","","","","","","","","","",""
"preload","5","179079","0.0-3.0-0.0","5e35de293e64955878774717","6662009ae78f21dd82fcd179","6662024d4cbacf8a8f9eae70","","","","","","true","false","[]","[]","[]","","","","","","","","","","",""
"instructions","6","407979","0.0-3.0-1.0","5e35de293e64955878774717","6662009ae78f21dd82fcd179","6662024d4cbacf8a8f9eae70","228901","","","","[{""page_index"":0,""viewing_time"":31175},{""page_index"":1,""viewing_time"":10981},{""page_index"":2,""viewing_time"":5005},{""page_index"":3,""viewing_time"":2973},{""page_index"":4,""viewing_time"":12233},{""page_index"":3,""viewing_time"":4970},{""page_index"":4,""viewing_time"":7339},{""page_index"":5,""viewing_time"":3454},{""page_index"":4,""viewing_time"":16205},{""page_index"":5,""viewing_time"":53199},{""page_index"":6,""viewing_time"":7518},{""page_index"":7,""viewing_time"":26079},{""page_index"":8,""viewing_time"":11440},{""page_index"":9,""viewing_time"":10072},{""page_index"":10,""viewing_time"":22414},{""page_index"":11,""viewing_time"":3847}]","","","","","","","","","","","","","","","",""
"html-button-response","7","413320","0.0-3.0-2.0-0.0-0.0","5e35de293e64955878774717","6662009ae78f21dd82fcd179","6662024d4cbacf8a8f9eae70","5338","","1","","","","","","","","<div align=center>Your goal is to predict…?<br><br></div>","","","","","","","","","",""
"html-button-response","8","423665","0.0-3.0-2.0-1.0-0.0","5e35de293e64955878774717","6662009ae78f21dd82fcd179","6662024d4cbacf8a8f9eae70","7445","","2","","","","","","","","<div align=center>In the jar with mostly white beads, there are ___% white beads and ___% black beads?<br><br></div>","","","","","","","","","",""
"html-button-response","9","435594","0.0-3.0-2.0-2.0-0.0","5e35de293e64955878774717","6662009ae78f21dd82fcd179","6662024d4cbacf8a8f9eae70","10160","","0","","","","","","","","<div align=center>When there is a 1% probability that the jars will switch, the next bead will most likely be drawn from the…<br><br></div>","","","","","","","","","",""
"html-button-response","10","441727","0.0-3.0-2.0-3.0-0.0","5e35de293e64955878774717","6662009ae78f21dd82fcd179","6662024d4cbacf8a8f9eae70","4442","","1","","","","","","","","<div align=center>When there is a 99% probability that the jars will switch, the next bead will most likely be drawn from the…<br><br></div>","","","","","","","","","",""
"instructions","11","474714","0.0-3.0-3.0","5e35de293e64955878774717","6662009ae78f21dd82fcd179","6662024d4cbacf8a8f9eae70","31281","","","","[{""page_index"":0,""viewing_time"":31279}]","","","","","","","","","","","","","","","",""
"html-keyboard-response","12","490073","0.0-3.0-4.0-0.0","5e35de293e64955878774717","6662009ae78f21dd82fcd179","6662024d4cbacf8a8f9eae70","15356",""," ","","","","","","","","<div align=center>In this practice block, there will be a <b>1% chance</b> that the jar on the next trial will be different from the jar on the current trial.<br><br></div>","","","","","","","","","",""
"image-keyboard-response","13","494954","0.0-3.0-4.0-1.0-0.0","5e35de293e64955878774717","6662009ae78f21dd82fcd179","6662024d4cbacf8a8f9eae70","4876","","f","","","","","","","","./tasks/HMM-beads/Images/NoChoice.png","practice","0","0","0","0","9","0","true","",""
"image-keyboard-response","14","495263","0.0-3.0-4.0-1.0-1.0","5e35de293e64955878774717","6662009ae78f21dd82fcd179","6662024d4cbacf8a8f9eae70","null","","null","","","","","","","","./tasks/HMM-beads/Images/BlackBeadChoice.png","","","","","","","","","",""
"image-keyboard-response","15","495769","0.0-3.0-4.0-1.0-2.0","5e35de293e64955878774717","6662009ae78f21dd82fcd179","6662024d4cbacf8a8f9eae70","null","","null","","","","","","","","./tasks/HMM-beads/Images/BlackBeadChoiceCorrect.png","","","","","","","","","",""
"image-keyboard-response","16","496859","0.0-3.0-4.0-1.0-0.1","5e35de293e64955878774717","6662009ae78f21dd82fcd179","6662024d4cbacf8a8f9eae70","1088","","f","","","","","","","","./tasks/HMM-beads/Images/NewTrialBC.png","practice","0","1","0","0","0","0","true","",""
"image-keyboard-response","17","497171","0.0-3.0-4.0-1.0-1.1","5e35de293e64955878774717","6662009ae78f21dd82fcd179","6662024d4cbacf8a8f9eae70","null","","null","","","","","","","","./tasks/HMM-beads/Images/BlackBeadChoice.png","","","","","","","","","",""
"image-keyboard-response","18","497682","0.0-3.0-4.0-1.0-2.1","5e35de293e64955878774717","6662009ae78f21dd82fcd179","6662024d4cbacf8a8f9eae70","null","","null","","","","","","","","./tasks/HMM-beads/Images/BlackBeadChoiceCorrect.png","","","","","","","","","",""
"image-keyboard-response","19","498231","0.0-3.0-4.0-1.0-0.2","5e35de293e64955878774717","6662009ae78f21dd82fcd179","6662024d4cbacf8a8f9eae70","548","","f","","","","","","","","./tasks/HMM-beads/Images/NewTrialBC.png","practice","0","2","0","1","0","0","false","",""
"image-keyboard-response","20","498535","0.0-3.0-4.0-1.0-1.2","5e35de293e64955878774717","6662009ae78f21dd82fcd179","6662024d4cbacf8a8f9eae70","null","","null","","","","","","","","./tasks/HMM-beads/Images/BlackBeadChoice.png","","","","","","","","","",""
"image-keyboard-response","21","499039","0.0-3.0-4.0-1.0-2.2","5e35de293e64955878774717","6662009ae78f21dd82fcd179","6662024d4cbacf8a8f9eae70","null","","null","","","","","","","","./tasks/HMM-beads/Images/BlackBeadChoiceWrong.png","","","","","","","","","",""
"image-keyboard-response","22","502328","0.0-3.0-4.0-1.0-0.3","5e35de293e64955878774717","6662009ae78f21dd82fcd179","6662024d4cbacf8a8f9eae70","3287","","f","","","","","","","","./tasks/HMM-beads/Images/NewTrialWC.png","practice","0","3","0","0","1","0","true","",""
"image-keyboard-response","23","502633","0.0-3.0-4.0-1.0-1.3","5e35de293e64955878774717","6662009ae78f21dd82fcd179","6662024d4cbacf8a8f9eae70","null","","null","","","","","","","","./tasks/HMM-beads/Images/BlackBeadChoice.png","","","","","","","","","",""
"image-keyboard-response","24","503137","0.0-3.0-4.0-1.0-2.3","5e35de293e64955878774717","6662009ae78f21dd82fcd179","6662024d4cbacf8a8f9eae70","null","","null","","","","","","","","./tasks/HMM-beads/Images/BlackBeadChoiceCorrect.png","","","","","","","","","",""
"image-keyboard-response","25","504242","0.0-3.0-4.0-1.0-0.4","5e35de293e64955878774717","6662009ae78f21dd82fcd179","6662024d4cbacf8a8f9eae70","1097","","f","","","","","","","","./tasks/HMM-beads/Images/NewTrialBC.png","practice","0","4","0","0","0","0","true","",""
"image-keyboard-response","26","504548","0.0-3.0-4.0-1.0-1.4","5e35de293e64955878774717","6662009ae78f21dd82fcd179","6662024d4cbacf8a8f9eae70","null","","null","","","","","","","","./tasks/HMM-beads/Images/BlackBeadChoice.png","","","","","","","","","",""
"image-keyboard-response","27","505055","0.0-3.0-4.0-1.0-2.4","5e35de293e64955878774717","6662009ae78f21dd82fcd179","6662024d4cbacf8a8f9eae70","null","","null","","","","","","","","./tasks/HMM-beads/Images/BlackBeadChoiceCorrect.png","","","","","","","","","",""
"image-keyboard-response","28","506764","0.0-3.0-4.0-1.0-0.5","5e35de293e64955878774717","6662009ae78f21dd82fcd179","6662024d4cbacf8a8f9eae70","1708","","f","","","","","","","","./tasks/HMM-beads/Images/NewTrialBC.png","practice","0","5","0","1","0","0","false","",""
"image-keyboard-response","29","507077","0.0-3.0-4.0-1.0-1.5","5e35de293e64955878774717","6662009ae78f21dd82fcd179","6662024d4cbacf8a8f9eae70","null","","null","","","","","","","","./tasks/HMM-beads/Images/BlackBeadChoice.png","","","","","","","","","",""
"image-keyboard-response","30","507590","0.0-3.0-4.0-1.0-2.5","5e35de293e64955878774717","6662009ae78f21dd82fcd179","6662024d4cbacf8a8f9eae70","null","","null","","","","","","","","./tasks/HMM-beads/Images/BlackBeadChoiceWrong.png","","","","","","","","","",""
"image-keyboard-response","31","510228","0.0-3.0-4.0-1.0-0.6","5e35de293e64955878774717","6662009ae78f21dd82fcd179","6662024d4cbacf8a8f9eae70","2636","","f","","","","","","","","./tasks/HMM-beads/Images/NewTrialWC.png","practice","0","6","0","0","1","0","true","",""
"image-keyboard-response","32","510535","0.0-3.0-4.0-1.0-1.6","5e35de293e64955878774717","6662009ae78f21dd82fcd179","6662024d4cbacf8a8f9eae70","null","","null","","","","","","","","./tasks/HMM-beads/Images/BlackBeadChoice.png","","","","","","","","","",""
"image-keyboard-response","33","511038","0.0-3.0-4.0-1.0-2.6","5e35de293e64955878774717","6662009ae78f21dd82fcd179","6662024d4cbacf8a8f9eae70","null","","null","","","","","","","","./tasks/HMM-beads/Images/BlackBeadChoiceCorrect.png","","","","","","","","","",""
"image-keyboard-response","34","511956","0.0-3.0-4.0-1.0-0.7","5e35de293e64955878774717","6662009ae78f21dd82fcd179","6662024d4cbacf8a8f9eae70","917","","f","","","","","","","","./tasks/HMM-beads/Images/NewTrialBC.png","practice","0","7","0","0","0","0","true","",""
"image-keyboard-response","35","512265","0.0-3.0-4.0-1.0-1.7","5e35de293e64955878774717","6662009ae78f21dd82fcd179","6662024d4cbacf8a8f9eae70","null","","null","","","","","","","","./tasks/HMM-beads/Images/BlackBeadChoice.png","","","","","","","","","",""
"image-keyboard-response","36","512769","0.0-3.0-4.0-1.0-2.7","5e35de293e64955878774717","6662009ae78f21dd82fcd179","6662024d4cbacf8a8f9eae70","null","","null","","","","","","","","./tasks/HMM-beads/Images/BlackBeadChoiceCorrect.png","","","","","","","","","",""
"image-keyboard-response","37","513225","0.0-3.0-4.0-1.0-0.8","5e35de293e64955878774717","6662009ae78f21dd82fcd179","6662024d4cbacf8a8f9eae70","454","","j","","","","","","","","./tasks/HMM-beads/Images/NewTrialBC.png","practice","0","8","0","0","0","1","false","",""
"image-keyboard-response","38","513541","0.0-3.0-4.0-1.0-1.8","5e35de293e64955878774717","6662009ae78f21dd82fcd179","6662024d4cbacf8a8f9eae70","null","","null","","","","","","","","./tasks/HMM-beads/Images/WhiteBeadChoice.png","","","","","","","","","",""
"image-keyboard-response","39","514044","0.0-3.0-4.0-1.0-2.8","5e35de293e64955878774717","6662009ae78f21dd82fcd179","6662024d4cbacf8a8f9eae70","null","","null","","","","","","","","./tasks/HMM-beads/Images/WhiteBeadChoiceWrong.png","","","","","","","","","",""
"image-keyboard-response","40","516050","0.0-3.0-4.0-1.0-0.9","5e35de293e64955878774717","6662009ae78f21dd82fcd179","6662024d4cbacf8a8f9eae70","2004","","f","","","","","","","","./tasks/HMM-beads/Images/NewTrialBC.png","practice","0","9","0","1","0","0","false","",""
"image-keyboard-response","41","516354","0.0-3.0-4.0-1.0-1.9","5e35de293e64955878774717","6662009ae78f21dd82fcd179","6662024d4cbacf8a8f9eae70","null","","null","","","","","","","","./tasks/HMM-beads/Images/BlackBeadChoice.png","","","","","","","","","",""
"image-keyboard-response","42","516858","0.0-3.0-4.0-1.0-2.9","5e35de293e64955878774717","6662009ae78f21dd82fcd179","6662024d4cbacf8a8f9eae70","null","","null","","","","","","","","./tasks/HMM-beads/Images/BlackBeadChoiceWrong.png","","","","","","","","","",""
"image-keyboard-response","43","517554","0.0-3.0-4.0-1.0-0.10","5e35de293e64955878774717","6662009ae78f21dd82fcd179","6662024d4cbacf8a8f9eae70","694","","f","","","","","","","","./tasks/HMM-beads/Images/NewTrialWC.png","practice","0","10","0","0","1","0","true","",""
"image-keyboard-response","44","517870","0.0-3.0-4.0-1.0-1.10","5e35de293e64955878774717","6662009ae78f21dd82fcd179","6662024d4cbacf8a8f9eae70","null","","null","","","","","","","","./tasks/HMM-beads/Images/BlackBeadChoice.png","","","","","","","","","",""
"image-keyboard-response","45","518378","0.0-3.0-4.0-1.0-2.10","5e35de293e64955878774717","6662009ae78f21dd82fcd179","6662024d4cbacf8a8f9eae70","null","","null","","","","","","","","./tasks/HMM-beads/Images/BlackBeadChoiceCorrect.png","","","","","","","","","",""
"image-keyboard-response","46","519205","0.0-3.0-4.0-1.0-0.11","5e35de293e64955878774717","6662009ae78f21dd82fcd179","6662024d4cbacf8a8f9eae70","826","","f","","","","","","","","./tasks/HMM-beads/Images/NewTrialBC.png","practice","0","11","0","1","0","0","false","",""
"image-keyboard-response","47","519518","0.0-3.0-4.0-1.0-1.11","5e35de293e64955878774717","6662009ae78f21dd82fcd179","6662024d4cbacf8a8f9eae70","null","","null","","","","","","","","./tasks/HMM-beads/Images/BlackBeadChoice.png","","","","","","","","","",""
"image-keyboard-response","48","520031","0.0-3.0-4.0-1.0-2.11","5e35de293e64955878774717","6662009ae78f21dd82fcd179","6662024d4cbacf8a8f9eae70","null","","null","","","","","","","","./tasks/HMM-beads/Images/BlackBeadChoiceWrong.png","","","","","","","","","",""
"image-keyboard-response","49","523284","0.0-3.0-4.0-1.0-0.12","5e35de293e64955878774717","6662009ae78f21dd82fcd179","6662024d4cbacf8a8f9eae70","3251","","f","","","","","","","","./tasks/HMM-beads/Images/NewTrialWC.png","practice","0","12","0","0","1","0","true","",""
"image-keyboard-response","50","523590","0.0-3.0-4.0-1.0-1.12","5e35de293e64955878774717","6662009ae78f21dd82fcd179","6662024d4cbacf8a8f9eae70","null","","null","","","","","","","","./tasks/HMM-beads/Images/BlackBeadChoice.png","","","","","","","","","",""
"image-keyboard-response","51","524119","0.0-3.0-4.0-1.0-2.12","5e35de293e64955878774717","6662009ae78f21dd82fcd179","6662024d4cbacf8a8f9eae70","null","","null","","","","","","","","./tasks/HMM-beads/Images/BlackBeadChoiceCorrect.png","","","","","","","","","",""
"image-keyboard-response","52","525145","0.0-3.0-4.0-1.0-0.13","5e35de293e64955878774717","6662009ae78f21dd82fcd179","6662024d4cbacf8a8f9eae70","1025","","j","","","","","","","","./tasks/HMM-beads/Images/NewTrialBC.png","practice","0","13","0","0","0","1","false","",""
"image-keyboard-response","53","525455","0.0-3.0-4.0-1.0-1.13","5e35de293e64955878774717","6662009ae78f21dd82fcd179","6662024d4cbacf8a8f9eae70","null","","null","","","","","","","","./tasks/HMM-beads/Images/WhiteBeadChoice.png","","","","","","","","","",""
"image-keyboard-response","54","525960","0.0-3.0-4.0-1.0-2.13","5e35de293e64955878774717","6662009ae78f21dd82fcd179","6662024d4cbacf8a8f9eae70","null","","null","","","","","","","","./tasks/HMM-beads/Images/WhiteBeadChoiceWrong.png","","","","","","","","","",""
"image-keyboard-response","55","526554","0.0-3.0-4.0-1.0-0.14","5e35de293e64955878774717","6662009ae78f21dd82fcd179","6662024d4cbacf8a8f9eae70","593","","f","","","","","","","","./tasks/HMM-beads/Images/NewTrialBC.png","practice","0","14","0","0","0","0","true","",""
"image-keyboard-response","56","526862","0.0-3.0-4.0-1.0-1.14","5e35de293e64955878774717","6662009ae78f21dd82fcd179","6662024d4cbacf8a8f9eae70","null","","null","","","","","","","","./tasks/HMM-beads/Images/BlackBeadChoice.png","","","","","","","","","",""
"image-keyboard-response","57","527373","0.0-3.0-4.0-1.0-2.14","5e35de293e64955878774717","6662009ae78f21dd82fcd179","6662024d4cbacf8a8f9eae70","null","","null","","","","","","","","./tasks/HMM-beads/Images/BlackBeadChoiceCorrect.png","","","","","","","","","",""
"image-keyboard-response","58","528261","0.0-3.0-4.0-1.0-0.15","5e35de293e64955878774717","6662009ae78f21dd82fcd179","6662024d4cbacf8a8f9eae70","887","","f","","","","","","","","./tasks/HMM-beads/Images/NewTrialBC.png","practice","0","15","0","0","0","0","true","",""
"image-keyboard-response","59","528568","0.0-3.0-4.0-1.0-1.15","5e35de293e64955878774717","6662009ae78f21dd82fcd179","6662024d4cbacf8a8f9eae70","null","","null","","","","","","","","./tasks/HMM-beads/Images/BlackBeadChoice.png","","","","","","","","","",""
"image-keyboard-response","60","529080","0.0-3.0-4.0-1.0-2.15","5e35de293e64955878774717","6662009ae78f21dd82fcd179","6662024d4cbacf8a8f9eae70","null","","null","","","","","","","","./tasks/HMM-beads/Images/BlackBeadChoiceCorrect.png","","","","","","","","","",""
"image-keyboard-response","61","529701","0.0-3.0-4.0-1.0-0.16","5e35de293e64955878774717","6662009ae78f21dd82fcd179","6662024d4cbacf8a8f9eae70","620","","j","","","","","","","","./tasks/HMM-beads/Images/NewTrialBC.png","practice","0","16","0","0","0","1","false","",""
"image-keyboard-response","62","530017","0.0-3.0-4.0-1.0-1.16","5e35de293e64955878774717","6662009ae78f21dd82fcd179","6662024d4cbacf8a8f9eae70","null","","null","","","","","","","","./tasks/HMM-beads/Images/WhiteBeadChoice.png","","","","","","","","","",""
"image-keyboard-response","63","530531","0.0-3.0-4.0-1.0-2.16","5e35de293e64955878774717","6662009ae78f21dd82fcd179","6662024d4cbacf8a8f9eae70","null","","null","","","","","","","","./tasks/HMM-beads/Images/WhiteBeadChoiceWrong.png","","","","","","","","","",""
"image-keyboard-response","64","531033","0.0-3.0-4.0-1.0-0.17","5e35de293e64955878774717","6662009ae78f21dd82fcd179","6662024d4cbacf8a8f9eae70","493","","f","","","","","","","","./tasks/HMM-beads/Images/NewTrialBC.png","practice","0","17","0","0","0","0","true","",""
"image-keyboard-response","65","531349","0.0-3.0-4.0-1.0-1.17","5e35de293e64955878774717","6662009ae78f21dd82fcd179","6662024d4cbacf8a8f9eae70","null","","null","","","","","","","","./tasks/HMM-beads/Images/BlackBeadChoice.png","","","","","","","","","",""
"image-keyboard-response","66","531862","0.0-3.0-4.0-1.0-2.17","5e35de293e64955878774717","6662009ae78f21dd82fcd179","6662024d4cbacf8a8f9eae70","null","","null","","","","","","","","./tasks/HMM-beads/Images/BlackBeadChoiceCorrect.png","","","","","","","","","",""
"image-keyboard-response","67","532652","0.0-3.0-4.0-1.0-0.18","5e35de293e64955878774717","6662009ae78f21dd82fcd179","6662024d4cbacf8a8f9eae70","788","","f","","","","","","","","./tasks/HMM-beads/Images/NewTrialBC.png","practice","0","18","0","1","0","0","false","",""
"image-keyboard-response","68","532956","0.0-3.0-4.0-1.0-1.18","5e35de293e64955878774717","6662009ae78f21dd82fcd179","6662024d4cbacf8a8f9eae70","null","","null","","","","","","","","./tasks/HMM-beads/Images/BlackBeadChoice.png","","","","","","","","","",""
"image-keyboard-response","69","533460","0.0-3.0-4.0-1.0-2.18","5e35de293e64955878774717","6662009ae78f21dd82fcd179","6662024d4cbacf8a8f9eae70","null","","null","","","","","","","","./tasks/HMM-beads/Images/BlackBeadChoiceWrong.png","","","","","","","","","",""
"image-keyboard-response","70","534033","0.0-3.0-4.0-1.0-0.19","5e35de293e64955878774717","6662009ae78f21dd82fcd179","6662024d4cbacf8a8f9eae70","571","","f","","","","","","","","./tasks/HMM-beads/Images/NewTrialWC.png","practice","0","19","0","0","1","0","true","",""
"image-keyboard-response","71","534336","0.0-3.0-4.0-1.0-1.19","5e35de293e64955878774717","6662009ae78f21dd82fcd179","6662024d4cbacf8a8f9eae70","null","","null","","","","","","","","./tasks/HMM-beads/Images/BlackBeadChoice.png","","","","","","","","","",""
"image-keyboard-response","72","534850","0.0-3.0-4.0-1.0-2.19","5e35de293e64955878774717","6662009ae78f21dd82fcd179","6662024d4cbacf8a8f9eae70","null","","null","","","","","","","","./tasks/HMM-beads/Images/BlackBeadChoiceCorrect.png","","","","","","","","","",""
"image-keyboard-response","73","535596","0.0-3.0-4.0-1.0-0.20","5e35de293e64955878774717","6662009ae78f21dd82fcd179","6662024d4cbacf8a8f9eae70","744","","f","","","","","","","","./tasks/HMM-beads/Images/NewTrialBC.png","practice","0","20","0","0","0","0","true","",""
"image-keyboard-response","74","535903","0.0-3.0-4.0-1.0-1.20","5e35de293e64955878774717","6662009ae78f21dd82fcd179","6662024d4cbacf8a8f9eae70","null","","null","","","","","","","","./tasks/HMM-beads/Images/BlackBeadChoice.png","","","","","","","","","",""
"image-keyboard-response","75","536408","0.0-3.0-4.0-1.0-2.20","5e35de293e64955878774717","6662009ae78f21dd82fcd179","6662024d4cbacf8a8f9eae70","null","","null","","","","","","","","./tasks/HMM-beads/Images/BlackBeadChoiceCorrect.png","","","","","","","","","",""
"image-keyboard-response","76","537635","0.0-3.0-4.0-1.0-0.21","5e35de293e64955878774717","6662009ae78f21dd82fcd179","6662024d4cbacf8a8f9eae70","1226","","f","","","","","","","","./tasks/HMM-beads/Images/NewTrialBC.png","practice","0","21","0","1","0","0","false","",""
"image-keyboard-response","77","537961","0.0-3.0-4.0-1.0-1.21","5e35de293e64955878774717","6662009ae78f21dd82fcd179","6662024d4cbacf8a8f9eae70","null","","null","","","","","","","","./tasks/HMM-beads/Images/BlackBeadChoice.png","","","","","","","","","",""
"image-keyboard-response","78","538466","0.0-3.0-4.0-1.0-2.21","5e35de293e64955878774717","6662009ae78f21dd82fcd179","6662024d4cbacf8a8f9eae70","null","","null","","","","","","","","./tasks/HMM-beads/Images/BlackBeadChoiceWrong.png","","","","","","","","","",""
"image-keyboard-response","79","538939","0.0-3.0-4.0-1.0-0.22","5e35de293e64955878774717","6662009ae78f21dd82fcd179","6662024d4cbacf8a8f9eae70","472","","f","","","","","","","","./tasks/HMM-beads/Images/NewTrialWC.png","practice","0","22","1","1","1","0","false","",""
"image-keyboard-response","80","539252","0.0-3.0-4.0-1.0-1.22","5e35de293e64955878774717","6662009ae78f21dd82fcd179","6662024d4cbacf8a8f9eae70","null","","null","","","","","","","","./tasks/HMM-beads/Images/BlackBeadChoice.png","","","","","","","","","",""
"image-keyboard-response","81","539755","0.0-3.0-4.0-1.0-2.22","5e35de293e64955878774717","6662009ae78f21dd82fcd179","6662024d4cbacf8a8f9eae70","null","","null","","","","","","","","./tasks/HMM-beads/Images/BlackBeadChoiceWrong.png","","","","","","","","","",""
"image-keyboard-response","82","541415","0.0-3.0-4.0-1.0-0.23","5e35de293e64955878774717","6662009ae78f21dd82fcd179","6662024d4cbacf8a8f9eae70","1659","","f","","","","","","","","./tasks/HMM-beads/Images/NewTrialWC.png","practice","0","23","1","0","1","0","true","",""
"image-keyboard-response","83","541732","0.0-3.0-4.0-1.0-1.23","5e35de293e64955878774717","6662009ae78f21dd82fcd179","6662024d4cbacf8a8f9eae70","null","","null","","","","","","","","./tasks/HMM-beads/Images/BlackBeadChoice.png","","","","","","","","","",""
"image-keyboard-response","84","542248","0.0-3.0-4.0-1.0-2.23","5e35de293e64955878774717","6662009ae78f21dd82fcd179","6662024d4cbacf8a8f9eae70","null","","null","","","","","","","","./tasks/HMM-beads/Images/BlackBeadChoiceCorrect.png","","","","","","","","","",""
"image-keyboard-response","85","543403","0.0-3.0-4.0-1.0-0.24","5e35de293e64955878774717","6662009ae78f21dd82fcd179","6662024d4cbacf8a8f9eae70","1154","","f","","","","","","","","./tasks/HMM-beads/Images/NewTrialBC.png","practice","0","24","1","1","0","0","false","",""
"image-keyboard-response","86","543708","0.0-3.0-4.0-1.0-1.24","5e35de293e64955878774717","6662009ae78f21dd82fcd179","6662024d4cbacf8a8f9eae70","null","","null","","","","","","","","./tasks/HMM-beads/Images/BlackBeadChoice.png","","","","","","","","","",""
"image-keyboard-response","87","544212","0.0-3.0-4.0-1.0-2.24","5e35de293e64955878774717","6662009ae78f21dd82fcd179","6662024d4cbacf8a8f9eae70","null","","null","","","","","","","","./tasks/HMM-beads/Images/BlackBeadChoiceWrong.png","","","","","","","","","",""
"image-keyboard-response","88","544700","0.0-3.0-4.0-1.0-0.25","5e35de293e64955878774717","6662009ae78f21dd82fcd179","6662024d4cbacf8a8f9eae70","487","","f","","","","","","","","./tasks/HMM-beads/Images/NewTrialWC.png","practice","0","25","1","1","1","0","false","",""
"image-keyboard-response","89","545013","0.0-3.0-4.0-1.0-1.25","5e35de293e64955878774717","6662009ae78f21dd82fcd179","6662024d4cbacf8a8f9eae70","null","","null","","","","","","","","./tasks/HMM-beads/Images/BlackBeadChoice.png","","","","","","","","","",""
"image-keyboard-response","90","545534","0.0-3.0-4.0-1.0-2.25","5e35de293e64955878774717","6662009ae78f21dd82fcd179","6662024d4cbacf8a8f9eae70","null","","null","","","","","","","","./tasks/HMM-beads/Images/BlackBeadChoiceWrong.png","","","","","","","","","",""
"image-keyboard-response","91","547192","0.0-3.0-4.0-1.0-0.26","5e35de293e64955878774717","6662009ae78f21dd82fcd179","6662024d4cbacf8a8f9eae70","1656","","f","","","","","","","","./tasks/HMM-beads/Images/NewTrialWC.png","practice","0","26","1","1","1","0","false","",""
"image-keyboard-response","92","547497","0.0-3.0-4.0-1.0-1.26","5e35de293e64955878774717","6662009ae78f21dd82fcd179","6662024d4cbacf8a8f9eae70","null","","null","","","","","","","","./tasks/HMM-beads/Images/BlackBeadChoice.png","","","","","","","","","",""
"image-keyboard-response","93","548014","0.0-3.0-4.0-1.0-2.26","5e35de293e64955878774717","6662009ae78f21dd82fcd179","6662024d4cbacf8a8f9eae70","null","","null","","","","","","","","./tasks/HMM-beads/Images/BlackBeadChoiceWrong.png","","","","","","","","","",""
"image-keyboard-response","94","549451","0.0-3.0-4.0-1.0-0.27","5e35de293e64955878774717","6662009ae78f21dd82fcd179","6662024d4cbacf8a8f9eae70","1437","","f","","","","","","","","./tasks/HMM-beads/Images/NewTrialWC.png","practice","0","27","1","1","1","0","false","",""
"image-keyboard-response","95","549760","0.0-3.0-4.0-1.0-1.27","5e35de293e64955878774717","6662009ae78f21dd82fcd179","6662024d4cbacf8a8f9eae70","null","","null","","","","","","","","./tasks/HMM-beads/Images/BlackBeadChoice.png","","","","","","","","","",""
"image-keyboard-response","96","550273","0.0-3.0-4.0-1.0-2.27","5e35de293e64955878774717","6662009ae78f21dd82fcd179","6662024d4cbacf8a8f9eae70","null","","null","","","","","","","","./tasks/HMM-beads/Images/BlackBeadChoiceWrong.png","","","","","","","","","",""
"image-keyboard-response","97","551970","0.0-3.0-4.0-1.0-0.28","5e35de293e64955878774717","6662009ae78f21dd82fcd179","6662024d4cbacf8a8f9eae70","1695","","f","","","","","","","","./tasks/HMM-beads/Images/NewTrialWC.png","practice","0","28","1","0","1","0","true","",""
"image-keyboard-response","98","552274","0.0-3.0-4.0-1.0-1.28","5e35de293e64955878774717","6662009ae78f21dd82fcd179","6662024d4cbacf8a8f9eae70","null","","null","","","","","","","","./tasks/HMM-beads/Images/BlackBeadChoice.png","","","","","","","","","",""
"image-keyboard-response","99","552784","0.0-3.0-4.0-1.0-2.28","5e35de293e64955878774717","6662009ae78f21dd82fcd179","6662024d4cbacf8a8f9eae70","null","","null","","","","","","","","./tasks/HMM-beads/Images/BlackBeadChoiceCorrect.png","","","","","","","","","",""
"image-keyboard-response","100","554309","0.0-3.0-4.0-1.0-0.29","5e35de293e64955878774717","6662009ae78f21dd82fcd179","6662024d4cbacf8a8f9eae70","1523","","f","","","","","","","","./tasks/HMM-beads/Images/NewTrialBC.png","practice","0","29","1","1","0","0","false","",""
"image-keyboard-response","101","554622","0.0-3.0-4.0-1.0-1.29","5e35de293e64955878774717","6662009ae78f21dd82fcd179","6662024d4cbacf8a8f9eae70","null","","null","","","","","","","","./tasks/HMM-beads/Images/BlackBeadChoice.png","","","","","","","","","",""
"image-keyboard-response","102","555132","0.0-3.0-4.0-1.0-2.29","5e35de293e64955878774717","6662009ae78f21dd82fcd179","6662024d4cbacf8a8f9eae70","null","","null","","","","","","","","./tasks/HMM-beads/Images/BlackBeadChoiceWrong.png","","","","","","","","","",""
"image-keyboard-response","103","555976","0.0-3.0-4.0-1.0-0.30","5e35de293e64955878774717","6662009ae78f21dd82fcd179","6662024d4cbacf8a8f9eae70","837","","f","","","","","","","","./tasks/HMM-beads/Images/NewTrialWC.png","practice","0","30","1","0","1","0","true","",""
"image-keyboard-response","104","556285","0.0-3.0-4.0-1.0-1.30","5e35de293e64955878774717","6662009ae78f21dd82fcd179","6662024d4cbacf8a8f9eae70","null","","null","","","","","","","","./tasks/HMM-beads/Images/BlackBeadChoice.png","","","","","","","","","",""
"image-keyboard-response","105","556802","0.0-3.0-4.0-1.0-2.30","5e35de293e64955878774717","6662009ae78f21dd82fcd179","6662024d4cbacf8a8f9eae70","null","","null","","","","","","","","./tasks/HMM-beads/Images/BlackBeadChoiceCorrect.png","","","","","","","","","",""
"image-keyboard-response","106","558128","0.0-3.0-4.0-1.0-0.31","5e35de293e64955878774717","6662009ae78f21dd82fcd179","6662024d4cbacf8a8f9eae70","1325","","f","","","","","","","","./tasks/HMM-beads/Images/NewTrialBC.png","practice","0","31","1","1","0","0","false","",""
"image-keyboard-response","107","558436","0.0-3.0-4.0-1.0-1.31","5e35de293e64955878774717","6662009ae78f21dd82fcd179","6662024d4cbacf8a8f9eae70","null","","null","","","","","","","","./tasks/HMM-beads/Images/BlackBeadChoice.png","","","","","","","","","",""
"image-keyboard-response","108","558941","0.0-3.0-4.0-1.0-2.31","5e35de293e64955878774717","6662009ae78f21dd82fcd179","6662024d4cbacf8a8f9eae70","null","","null","","","","","","","","./tasks/HMM-beads/Images/BlackBeadChoiceWrong.png","","","","","","","","","",""
"image-keyboard-response","109","560041","0.0-3.0-4.0-1.0-0.32","5e35de293e64955878774717","6662009ae78f21dd82fcd179","6662024d4cbacf8a8f9eae70","1099","","f","","","","","","","","./tasks/HMM-beads/Images/NewTrialWC.png","practice","0","32","1","1","1","0","false","",""
"image-keyboard-response","110","560358","0.0-3.0-4.0-1.0-1.32","5e35de293e64955878774717","6662009ae78f21dd82fcd179","6662024d4cbacf8a8f9eae70","null","","null","","","","","","","","./tasks/HMM-beads/Images/BlackBeadChoice.png","","","","","","","","","",""
"image-keyboard-response","111","560872","0.0-3.0-4.0-1.0-2.32","5e35de293e64955878774717","6662009ae78f21dd82fcd179","6662024d4cbacf8a8f9eae70","null","","null","","","","","","","","./tasks/HMM-beads/Images/BlackBeadChoiceWrong.png","","","","","","","","","",""
"image-keyboard-response","112","564087","0.0-3.0-4.0-1.0-0.33","5e35de293e64955878774717","6662009ae78f21dd82fcd179","6662024d4cbacf8a8f9eae70","3213","","f","","","","","","","","./tasks/HMM-beads/Images/NewTrialWC.png","practice","0","33","1","1","1","0","false","",""
"image-keyboard-response","113","564399","0.0-3.0-4.0-1.0-1.33","5e35de293e64955878774717","6662009ae78f21dd82fcd179","6662024d4cbacf8a8f9eae70","null","","null","","","","","","","","./tasks/HMM-beads/Images/BlackBeadChoice.png","","","","","","","","","",""
"image-keyboard-response","114","564903","0.0-3.0-4.0-1.0-2.33","5e35de293e64955878774717","6662009ae78f21dd82fcd179","6662024d4cbacf8a8f9eae70","null","","null","","","","","","","","./tasks/HMM-beads/Images/BlackBeadChoiceWrong.png","","","","","","","","","",""
"image-keyboard-response","115","565933","0.0-3.0-4.0-1.0-0.34","5e35de293e64955878774717","6662009ae78f21dd82fcd179","6662024d4cbacf8a8f9eae70","1028","","f","","","","","","","","./tasks/HMM-beads/Images/NewTrialWC.png","practice","0","34","1","1","1","0","false","",""
"image-keyboard-response","116","566248","0.0-3.0-4.0-1.0-1.34","5e35de293e64955878774717","6662009ae78f21dd82fcd179","6662024d4cbacf8a8f9eae70","null","","null","","","","","","","","./tasks/HMM-beads/Images/BlackBeadChoice.png","","","","","","","","","",""
"image-keyboard-response","117","566760","0.0-3.0-4.0-1.0-2.34","5e35de293e64955878774717","6662009ae78f21dd82fcd179","6662024d4cbacf8a8f9eae70","null","","null","","","","","","","","./tasks/HMM-beads/Images/BlackBeadChoiceWrong.png","","","","","","","","","",""
"image-keyboard-response","118","567450","0.0-3.0-4.0-1.0-0.35","5e35de293e64955878774717","6662009ae78f21dd82fcd179","6662024d4cbacf8a8f9eae70","688","","f","","","","","","","","./tasks/HMM-beads/Images/NewTrialWC.png","practice","0","35","1","1","1","0","false","",""
"image-keyboard-response","119","567761","0.0-3.0-4.0-1.0-1.35","5e35de293e64955878774717","6662009ae78f21dd82fcd179","6662024d4cbacf8a8f9eae70","null","","null","","","","","","","","./tasks/HMM-beads/Images/BlackBeadChoice.png","","","","","","","","","",""
"image-keyboard-response","120","568266","0.0-3.0-4.0-1.0-2.35","5e35de293e64955878774717","6662009ae78f21dd82fcd179","6662024d4cbacf8a8f9eae70","null","","null","","","","","","","","./tasks/HMM-beads/Images/BlackBeadChoiceWrong.png","","","","","","","","","",""
"image-keyboard-response","121","570422","0.0-3.0-4.0-1.0-0.36","5e35de293e64955878774717","6662009ae78f21dd82fcd179","6662024d4cbacf8a8f9eae70","2154","","f","","","","","","","","./tasks/HMM-beads/Images/NewTrialWC.png","practice","0","36","1","0","1","0","true","",""
"image-keyboard-response","122","570738","0.0-3.0-4.0-1.0-1.36","5e35de293e64955878774717","6662009ae78f21dd82fcd179","6662024d4cbacf8a8f9eae70","null","","null","","","","","","","","./tasks/HMM-beads/Images/BlackBeadChoice.png","","","","","","","","","",""
"image-keyboard-response","123","571254","0.0-3.0-4.0-1.0-2.36","5e35de293e64955878774717","6662009ae78f21dd82fcd179","6662024d4cbacf8a8f9eae70","null","","null","","","","","","","","./tasks/HMM-beads/Images/BlackBeadChoiceCorrect.png","","","","","","","","","",""
"image-keyboard-response","124","572412","0.0-3.0-4.0-1.0-0.37","5e35de293e64955878774717","6662009ae78f21dd82fcd179","6662024d4cbacf8a8f9eae70","1157","","j","","","","","","","","./tasks/HMM-beads/Images/NewTrialBC.png","practice","0","37","1","1","0","1","true","",""
"image-keyboard-response","125","572718","0.0-3.0-4.0-1.0-1.37","5e35de293e64955878774717","6662009ae78f21dd82fcd179","6662024d4cbacf8a8f9eae70","null","","null","","","","","","","","./tasks/HMM-beads/Images/WhiteBeadChoice.png","","","","","","","","","",""
"image-keyboard-response","126","573235","0.0-3.0-4.0-1.0-2.37","5e35de293e64955878774717","6662009ae78f21dd82fcd179","6662024d4cbacf8a8f9eae70","null","","null","","","","","","","","./tasks/HMM-beads/Images/WhiteBeadChoiceCorrect.png","","","","","","","","","",""
"image-keyboard-response","127","575118","0.0-3.0-4.0-1.0-0.38","5e35de293e64955878774717","6662009ae78f21dd82fcd179","6662024d4cbacf8a8f9eae70","1882","","j","","","","","","","","./tasks/HMM-beads/Images/NewTrialWC.png","practice","0","38","1","1","1","1","true","",""
"image-keyboard-response","128","575429","0.0-3.0-4.0-1.0-1.38","5e35de293e64955878774717","6662009ae78f21dd82fcd179","6662024d4cbacf8a8f9eae70","null","","null","","","","","","","","./tasks/HMM-beads/Images/WhiteBeadChoice.png","","","","","","","","","",""
"image-keyboard-response","129","575944","0.0-3.0-4.0-1.0-2.38","5e35de293e64955878774717","6662009ae78f21dd82fcd179","6662024d4cbacf8a8f9eae70","null","","null","","","","","","","","./tasks/HMM-beads/Images/WhiteBeadChoiceCorrect.png","","","","","","","","","",""
"image-keyboard-response","130","578069","0.0-3.0-4.0-1.0-0.39","5e35de293e64955878774717","6662009ae78f21dd82fcd179","6662024d4cbacf8a8f9eae70","2123","","j","","","","","","","","./tasks/HMM-beads/Images/NewTrialWC.png","practice","0","39","1","1","1","1","true","",""
"image-keyboard-response","131","578379","0.0-3.0-4.0-1.0-1.39","5e35de293e64955878774717","6662009ae78f21dd82fcd179","6662024d4cbacf8a8f9eae70","null","","null","","","","","","","","./tasks/HMM-beads/Images/WhiteBeadChoice.png","","","","","","","","","",""
"image-keyboard-response","132","578883","0.0-3.0-4.0-1.0-2.39","5e35de293e64955878774717","6662009ae78f21dd82fcd179","6662024d4cbacf8a8f9eae70","null","","null","","","","","","","","./tasks/HMM-beads/Images/WhiteBeadChoiceCorrect.png","","","","","","","","","",""
"html-keyboard-response","133","581513","0.0-3.0-4.0-2.0","5e35de293e64955878774717","6662009ae78f21dd82fcd179","6662024d4cbacf8a8f9eae70","2628",""," ","","","","","","","","","","","","","","","","","",""
"instructions","134","597345","0.0-3.0-5.0","5e35de293e64955878774717","6662009ae78f21dd82fcd179","6662024d4cbacf8a8f9eae70","15831","","","","[{""page_index"":0,""viewing_time"":10499},{""page_index"":1,""viewing_time"":5331}]","","","","","","","","","","","","","","","",""
"html-keyboard-response","135","601785","0.0-3.0-6.0-0.0","5e35de293e64955878774717","6662009ae78f21dd82fcd179","6662024d4cbacf8a8f9eae70","4438",""," ","","","","","","","","<div align=center>In this block, there will be a <b>1% chance</b> that the jar on the next trial will be different from the jar on the current trial.<br><br></div>","","","","","","","","","",""
"image-keyboard-response","136","604331","0.0-3.0-6.0-1.0-0.0","5e35de293e64955878774717","6662009ae78f21dd82fcd179","6662024d4cbacf8a8f9eae70","2544","","f","","","","","","","","./tasks/HMM-beads/Images/NoChoice.png","lowH","1","0","1","0","9","0","true","",""
"image-keyboard-response","137","604638","0.0-3.0-6.0-1.0-1.0","5e35de293e64955878774717","6662009ae78f21dd82fcd179","6662024d4cbacf8a8f9eae70","null","","null","","","","","","","","./tasks/HMM-beads/Images/BlackBeadChoice.png","","","","","","","","","",""
"image-keyboard-response","138","605145","0.0-3.0-6.0-1.0-2.0","5e35de293e64955878774717","6662009ae78f21dd82fcd179","6662024d4cbacf8a8f9eae70","null","","null","","","","","","","","./tasks/HMM-beads/Images/BlackBeadChoiceCorrect.png","","","","","","","","","",""
"image-keyboard-response","139","607392","0.0-3.0-6.0-1.0-0.1","5e35de293e64955878774717","6662009ae78f21dd82fcd179","6662024d4cbacf8a8f9eae70","2245","","f","","","","","","","","./tasks/HMM-beads/Images/NewTrialBC.png","lowH","1","1","1","1","0","0","false","",""
"image-keyboard-response","140","607702","0.0-3.0-6.0-1.0-1.1","5e35de293e64955878774717","6662009ae78f21dd82fcd179","6662024d4cbacf8a8f9eae70","null","","null","","","","","","","","./tasks/HMM-beads/Images/BlackBeadChoice.png","","","","","","","","","",""
"image-keyboard-response","141","608215","0.0-3.0-6.0-1.0-2.1","5e35de293e64955878774717","6662009ae78f21dd82fcd179","6662024d4cbacf8a8f9eae70","null","","null","","","","","","","","./tasks/HMM-beads/Images/BlackBeadChoiceWrong.png","","","","","","","","","",""
"image-keyboard-response","142","609849","0.0-3.0-6.0-1.0-0.2","5e35de293e64955878774717","6662009ae78f21dd82fcd179","6662024d4cbacf8a8f9eae70","1633","","j","","","","","","","","./tasks/HMM-beads/Images/NewTrialWC.png","lowH","1","2","1","1","1","1","true","",""
"image-keyboard-response","143","610152","0.0-3.0-6.0-1.0-1.2","5e35de293e64955878774717","6662009ae78f21dd82fcd179","6662024d4cbacf8a8f9eae70","null","","null","","","","","","","","./tasks/HMM-beads/Images/WhiteBeadChoice.png","","","","","","","","","",""
"image-keyboard-response","144","610660","0.0-3.0-6.0-1.0-2.2","5e35de293e64955878774717","6662009ae78f21dd82fcd179","6662024d4cbacf8a8f9eae70","null","","null","","","","","","","","./tasks/HMM-beads/Images/WhiteBeadChoiceCorrect.png","","","","","","","","","",""
"image-keyboard-response","145","612927","0.0-3.0-6.0-1.0-0.3","5e35de293e64955878774717","6662009ae78f21dd82fcd179","6662024d4cbacf8a8f9eae70","2265","","j","","","","","","","","./tasks/HMM-beads/Images/NewTrialWC.png","lowH","1","3","1","1","1","1","true","",""
"image-keyboard-response","146","613246","0.0-3.0-6.0-1.0-1.3","5e35de293e64955878774717","6662009ae78f21dd82fcd179","6662024d4cbacf8a8f9eae70","null","","null","","","","","","","","./tasks/HMM-beads/Images/WhiteBeadChoice.png","","","","","","","","","",""
"image-keyboard-response","147","613755","0.0-3.0-6.0-1.0-2.3","5e35de293e64955878774717","6662009ae78f21dd82fcd179","6662024d4cbacf8a8f9eae70","null","","null","","","","","","","","./tasks/HMM-beads/Images/WhiteBeadChoiceCorrect.png","","","","","","","","","",""
"image-keyboard-response","148","614305","0.0-3.0-6.0-1.0-0.4","5e35de293e64955878774717","6662009ae78f21dd82fcd179","6662024d4cbacf8a8f9eae70","548","","f","","","","","","","","./tasks/HMM-beads/Images/NewTrialWC.png","lowH","1","4","1","1","1","0","false","",""
"image-keyboard-response","149","614622","0.0-3.0-6.0-1.0-1.4","5e35de293e64955878774717","6662009ae78f21dd82fcd179","6662024d4cbacf8a8f9eae70","null","","null","","","","","","","","./tasks/HMM-beads/Images/BlackBeadChoice.png","","","","","","","","","",""
"image-keyboard-response","150","615126","0.0-3.0-6.0-1.0-2.4","5e35de293e64955878774717","6662009ae78f21dd82fcd179","6662024d4cbacf8a8f9eae70","null","","null","","","","","","","","./tasks/HMM-beads/Images/BlackBeadChoiceWrong.png","","","","","","","","","",""
"image-keyboard-response","151","615970","0.0-3.0-6.0-1.0-0.5","5e35de293e64955878774717","6662009ae78f21dd82fcd179","6662024d4cbacf8a8f9eae70","842","","j","","","","","","","","./tasks/HMM-beads/Images/NewTrialWC.png","lowH","1","5","1","1","1","1","true","",""
"image-keyboard-response","152","616283","0.0-3.0-6.0-1.0-1.5","5e35de293e64955878774717","6662009ae78f21dd82fcd179","6662024d4cbacf8a8f9eae70","null","","null","","","","","","","","./tasks/HMM-beads/Images/WhiteBeadChoice.png","","","","","","","","","",""
"image-keyboard-response","153","616792","0.0-3.0-6.0-1.0-2.5","5e35de293e64955878774717","6662009ae78f21dd82fcd179","6662024d4cbacf8a8f9eae70","null","","null","","","","","","","","./tasks/HMM-beads/Images/WhiteBeadChoiceCorrect.png","","","","","","","","","",""
"image-keyboard-response","154","618978","0.0-3.0-6.0-1.0-0.6","5e35de293e64955878774717","6662009ae78f21dd82fcd179","6662024d4cbacf8a8f9eae70","2185","","f","","","","","","","","./tasks/HMM-beads/Images/NewTrialWC.png","lowH","1","6","1","0","1","0","true","",""
"image-keyboard-response","155","619286","0.0-3.0-6.0-1.0-1.6","5e35de293e64955878774717","6662009ae78f21dd82fcd179","6662024d4cbacf8a8f9eae70","null","","null","","","","","","","","./tasks/HMM-beads/Images/BlackBeadChoice.png","","","","","","","","","",""
"image-keyboard-response","156","619798","0.0-3.0-6.0-1.0-2.6","5e35de293e64955878774717","6662009ae78f21dd82fcd179","6662024d4cbacf8a8f9eae70","null","","null","","","","","","","","./tasks/HMM-beads/Images/BlackBeadChoiceCorrect.png","","","","","","","","","",""
"image-keyboard-response","157","620917","0.0-3.0-6.0-1.0-0.7","5e35de293e64955878774717","6662009ae78f21dd82fcd179","6662024d4cbacf8a8f9eae70","1118","","f","","","","","","","","./tasks/HMM-beads/Images/NewTrialBC.png","lowH","1","7","1","1","0","0","false","",""
"image-keyboard-response","158","621235","0.0-3.0-6.0-1.0-1.7","5e35de293e64955878774717","6662009ae78f21dd82fcd179","6662024d4cbacf8a8f9eae70","null","","null","","","","","","","","./tasks/HMM-beads/Images/BlackBeadChoice.png","","","","","","","","","",""
"image-keyboard-response","159","621748","0.0-3.0-6.0-1.0-2.7","5e35de293e64955878774717","6662009ae78f21dd82fcd179","6662024d4cbacf8a8f9eae70","null","","null","","","","","","","","./tasks/HMM-beads/Images/BlackBeadChoiceWrong.png","","","","","","","","","",""
"image-keyboard-response","160","622296","0.0-3.0-6.0-1.0-0.8","5e35de293e64955878774717","6662009ae78f21dd82fcd179","6662024d4cbacf8a8f9eae70","546","","j","","","","","","","","./tasks/HMM-beads/Images/NewTrialWC.png","lowH","1","8","1","1","1","1","true","",""
"image-keyboard-response","161","622598","0.0-3.0-6.0-1.0-1.8","5e35de293e64955878774717","6662009ae78f21dd82fcd179","6662024d4cbacf8a8f9eae70","null","","null","","","","","","","","./tasks/HMM-beads/Images/WhiteBeadChoice.png","","","","","","","","","",""
"image-keyboard-response","162","623111","0.0-3.0-6.0-1.0-2.8","5e35de293e64955878774717","6662009ae78f21dd82fcd179","6662024d4cbacf8a8f9eae70","null","","null","","","","","","","","./tasks/HMM-beads/Images/WhiteBeadChoiceCorrect.png","","","","","","","","","",""
"image-keyboard-response","163","624047","0.0-3.0-6.0-1.0-0.9","5e35de293e64955878774717","6662009ae78f21dd82fcd179","6662024d4cbacf8a8f9eae70","934","","f","","","","","","","","./tasks/HMM-beads/Images/NewTrialWC.png","lowH","1","9","1","1","1","0","false","",""
"image-keyboard-response","164","624357","0.0-3.0-6.0-1.0-1.9","5e35de293e64955878774717","6662009ae78f21dd82fcd179","6662024d4cbacf8a8f9eae70","null","","null","","","","","","","","./tasks/HMM-beads/Images/BlackBeadChoice.png","","","","","","","","","",""
"image-keyboard-response","165","624868","0.0-3.0-6.0-1.0-2.9","5e35de293e64955878774717","6662009ae78f21dd82fcd179","6662024d4cbacf8a8f9eae70","null","","null","","","","","","","","./tasks/HMM-beads/Images/BlackBeadChoiceWrong.png","","","","","","","","","",""
"image-keyboard-response","166","626924","0.0-3.0-6.0-1.0-0.10","5e35de293e64955878774717","6662009ae78f21dd82fcd179","6662024d4cbacf8a8f9eae70","2054","","f","","","","","","","","./tasks/HMM-beads/Images/NewTrialWC.png","lowH","1","10","1","1","1","0","false","",""
"image-keyboard-response","167","627236","0.0-3.0-6.0-1.0-1.10","5e35de293e64955878774717","6662009ae78f21dd82fcd179","6662024d4cbacf8a8f9eae70","null","","null","","","","","","","","./tasks/HMM-beads/Images/BlackBeadChoice.png","","","","","","","","","",""
"image-keyboard-response","168","627741","0.0-3.0-6.0-1.0-2.10","5e35de293e64955878774717","6662009ae78f21dd82fcd179","6662024d4cbacf8a8f9eae70","null","","null","","","","","","","","./tasks/HMM-beads/Images/BlackBeadChoiceWrong.png","","","","","","","","","",""
"image-keyboard-response","169","628998","0.0-3.0-6.0-1.0-0.11","5e35de293e64955878774717","6662009ae78f21dd82fcd179","6662024d4cbacf8a8f9eae70","1255","","f","","","","","","","","./tasks/HMM-beads/Images/NewTrialWC.png","lowH","1","11","1","1","1","0","false","",""
"image-keyboard-response","170","629306","0.0-3.0-6.0-1.0-1.11","5e35de293e64955878774717","6662009ae78f21dd82fcd179","6662024d4cbacf8a8f9eae70","null","","null","","","","","","","","./tasks/HMM-beads/Images/BlackBeadChoice.png","","","","","","","","","",""
"image-keyboard-response","171","629825","0.0-3.0-6.0-1.0-2.11","5e35de293e64955878774717","6662009ae78f21dd82fcd179","6662024d4cbacf8a8f9eae70","null","","null","","","","","","","","./tasks/HMM-beads/Images/BlackBeadChoiceWrong.png","","","","","","","","","",""
"image-keyboard-response","172","630749","0.0-3.0-6.0-1.0-0.12","5e35de293e64955878774717","6662009ae78f21dd82fcd179","6662024d4cbacf8a8f9eae70","923","","j","","","","","","","","./tasks/HMM-beads/Images/NewTrialWC.png","lowH","1","12","1","1","1","1","true","",""
"image-keyboard-response","173","631058","0.0-3.0-6.0-1.0-1.12","5e35de293e64955878774717","6662009ae78f21dd82fcd179","6662024d4cbacf8a8f9eae70","null","","null","","","","","","","","./tasks/HMM-beads/Images/WhiteBeadChoice.png","","","","","","","","","",""
"image-keyboard-response","174","631571","0.0-3.0-6.0-1.0-2.12","5e35de293e64955878774717","6662009ae78f21dd82fcd179","6662024d4cbacf8a8f9eae70","null","","null","","","","","","","","./tasks/HMM-beads/Images/WhiteBeadChoiceCorrect.png","","","","","","","","","",""
"image-keyboard-response","175","633280","0.0-3.0-6.0-1.0-0.13","5e35de293e64955878774717","6662009ae78f21dd82fcd179","6662024d4cbacf8a8f9eae70","1708","","f","","","","","","","","./tasks/HMM-beads/Images/NewTrialWC.png","lowH","1","13","1","0","1","0","true","",""
"image-keyboard-response","176","633588","0.0-3.0-6.0-1.0-1.13","5e35de293e64955878774717","6662009ae78f21dd82fcd179","6662024d4cbacf8a8f9eae70","null","","null","","","","","","","","./tasks/HMM-beads/Images/BlackBeadChoice.png","","","","","","","","","",""
"image-keyboard-response","177","634093","0.0-3.0-6.0-1.0-2.13","5e35de293e64955878774717","6662009ae78f21dd82fcd179","6662024d4cbacf8a8f9eae70","null","","null","","","","","","","","./tasks/HMM-beads/Images/BlackBeadChoiceCorrect.png","","","","","","","","","",""
"image-keyboard-response","178","635584","0.0-3.0-6.0-1.0-0.14","5e35de293e64955878774717","6662009ae78f21dd82fcd179","6662024d4cbacf8a8f9eae70","1490","","f","","","","","","","","./tasks/HMM-beads/Images/NewTrialBC.png","lowH","1","14","1","0","0","0","true","",""
"image-keyboard-response","179","635887","0.0-3.0-6.0-1.0-1.14","5e35de293e64955878774717","6662009ae78f21dd82fcd179","6662024d4cbacf8a8f9eae70","null","","null","","","","","","","","./tasks/HMM-beads/Images/BlackBeadChoice.png","","","","","","","","","",""
"image-keyboard-response","180","636393","0.0-3.0-6.0-1.0-2.14","5e35de293e64955878774717","6662009ae78f21dd82fcd179","6662024d4cbacf8a8f9eae70","null","","null","","","","","","","","./tasks/HMM-beads/Images/BlackBeadChoiceCorrect.png","","","","","","","","","",""
"image-keyboard-response","181","637068","0.0-3.0-6.0-1.0-0.15","5e35de293e64955878774717","6662009ae78f21dd82fcd179","6662024d4cbacf8a8f9eae70","674","","j","","","","","","","","./tasks/HMM-beads/Images/NewTrialBC.png","lowH","1","15","1","1","0","1","true","",""
"image-keyboard-response","182","637384","0.0-3.0-6.0-1.0-1.15","5e35de293e64955878774717","6662009ae78f21dd82fcd179","6662024d4cbacf8a8f9eae70","null","","null","","","","","","","","./tasks/HMM-beads/Images/WhiteBeadChoice.png","","","","","","","","","",""
"image-keyboard-response","183","637900","0.0-3.0-6.0-1.0-2.15","5e35de293e64955878774717","6662009ae78f21dd82fcd179","6662024d4cbacf8a8f9eae70","null","","null","","","","","","","","./tasks/HMM-beads/Images/WhiteBeadChoiceCorrect.png","","","","","","","","","",""
"image-keyboard-response","184","639127","0.0-3.0-6.0-1.0-0.16","5e35de293e64955878774717","6662009ae78f21dd82fcd179","6662024d4cbacf8a8f9eae70","1225","","j","","","","","","","","./tasks/HMM-beads/Images/NewTrialWC.png","lowH","1","16","1","1","1","1","true","",""
"image-keyboard-response","185","639442","0.0-3.0-6.0-1.0-1.16","5e35de293e64955878774717","6662009ae78f21dd82fcd179","6662024d4cbacf8a8f9eae70","null","","null","","","","","","","","./tasks/HMM-beads/Images/WhiteBeadChoice.png","","","","","","","","","",""
"image-keyboard-response","186","639955","0.0-3.0-6.0-1.0-2.16","5e35de293e64955878774717","6662009ae78f21dd82fcd179","6662024d4cbacf8a8f9eae70","null","","null","","","","","","","","./tasks/HMM-beads/Images/WhiteBeadChoiceCorrect.png","","","","","","","","","",""
"image-keyboard-response","187","640709","0.0-3.0-6.0-1.0-0.17","5e35de293e64955878774717","6662009ae78f21dd82fcd179","6662024d4cbacf8a8f9eae70","752","","f","","","","","","","","./tasks/HMM-beads/Images/NewTrialWC.png","lowH","1","17","1","1","1","0","false","",""
"image-keyboard-response","188","641013","0.0-3.0-6.0-1.0-1.17","5e35de293e64955878774717","6662009ae78f21dd82fcd179","6662024d4cbacf8a8f9eae70","null","","null","","","","","","","","./tasks/HMM-beads/Images/BlackBeadChoice.png","","","","","","","","","",""
"image-keyboard-response","189","641520","0.0-3.0-6.0-1.0-2.17","5e35de293e64955878774717","6662009ae78f21dd82fcd179","6662024d4cbacf8a8f9eae70","null","","null","","","","","","","","./tasks/HMM-beads/Images/BlackBeadChoiceWrong.png","","","","","","","","","",""
"image-keyboard-response","190","642153","0.0-3.0-6.0-1.0-0.18","5e35de293e64955878774717","6662009ae78f21dd82fcd179","6662024d4cbacf8a8f9eae70","633","","j","","","","","","","","./tasks/HMM-beads/Images/NewTrialWC.png","lowH","1","18","1","1","1","1","true","",""
"image-keyboard-response","191","642458","0.0-3.0-6.0-1.0-1.18","5e35de293e64955878774717","6662009ae78f21dd82fcd179","6662024d4cbacf8a8f9eae70","null","","null","","","","","","","","./tasks/HMM-beads/Images/WhiteBeadChoice.png","","","","","","","","","",""
"image-keyboard-response","192","642969","0.0-3.0-6.0-1.0-2.18","5e35de293e64955878774717","6662009ae78f21dd82fcd179","6662024d4cbacf8a8f9eae70","null","","null","","","","","","","","./tasks/HMM-beads/Images/WhiteBeadChoiceCorrect.png","","","","","","","","","",""
"image-keyboard-response","193","647466","0.0-3.0-6.0-1.0-0.19","5e35de293e64955878774717","6662009ae78f21dd82fcd179","6662024d4cbacf8a8f9eae70","4495","","f","","","","","","","","./tasks/HMM-beads/Images/NewTrialWC.png","lowH","1","19","1","1","1","0","false","",""
"image-keyboard-response","194","647770","0.0-3.0-6.0-1.0-1.19","5e35de293e64955878774717","6662009ae78f21dd82fcd179","6662024d4cbacf8a8f9eae70","null","","null","","","","","","","","./tasks/HMM-beads/Images/BlackBeadChoice.png","","","","","","","","","",""
"image-keyboard-response","195","648274","0.0-3.0-6.0-1.0-2.19","5e35de293e64955878774717","6662009ae78f21dd82fcd179","6662024d4cbacf8a8f9eae70","null","","null","","","","","","","","./tasks/HMM-beads/Images/BlackBeadChoiceWrong.png","","","","","","","","","",""
"image-keyboard-response","196","648684","0.0-3.0-6.0-1.0-0.20","5e35de293e64955878774717","6662009ae78f21dd82fcd179","6662024d4cbacf8a8f9eae70","408","","j","","","","","","","","./tasks/HMM-beads/Images/NewTrialWC.png","lowH","1","20","1","1","1","1","true","",""
"image-keyboard-response","197","648993","0.0-3.0-6.0-1.0-1.20","5e35de293e64955878774717","6662009ae78f21dd82fcd179","6662024d4cbacf8a8f9eae70","null","","null","","","","","","","","./tasks/HMM-beads/Images/WhiteBeadChoice.png","","","","","","","","","",""
"image-keyboard-response","198","649507","0.0-3.0-6.0-1.0-2.20","5e35de293e64955878774717","6662009ae78f21dd82fcd179","6662024d4cbacf8a8f9eae70","null","","null","","","","","","","","./tasks/HMM-beads/Images/WhiteBeadChoiceCorrect.png","","","","","","","","","",""
"image-keyboard-response","199","650729","0.0-3.0-6.0-1.0-0.21","5e35de293e64955878774717","6662009ae78f21dd82fcd179","6662024d4cbacf8a8f9eae70","1220","","j","","","","","","","","./tasks/HMM-beads/Images/NewTrialWC.png","lowH","1","21","1","1","1","1","true","",""
"image-keyboard-response","200","651041","0.0-3.0-6.0-1.0-1.21","5e35de293e64955878774717","6662009ae78f21dd82fcd179","6662024d4cbacf8a8f9eae70","null","","null","","","","","","","","./tasks/HMM-beads/Images/WhiteBeadChoice.png","","","","","","","","","",""
"image-keyboard-response","201","651546","0.0-3.0-6.0-1.0-2.21","5e35de293e64955878774717","6662009ae78f21dd82fcd179","6662024d4cbacf8a8f9eae70","null","","null","","","","","","","","./tasks/HMM-beads/Images/WhiteBeadChoiceCorrect.png","","","","","","","","","",""
"image-keyboard-response","202","653010","0.0-3.0-6.0-1.0-0.22","5e35de293e64955878774717","6662009ae78f21dd82fcd179","6662024d4cbacf8a8f9eae70","1462","","j","","","","","","","","./tasks/HMM-beads/Images/NewTrialWC.png","lowH","1","22","1","1","1","1","true","",""
"image-keyboard-response","203","653314","0.0-3.0-6.0-1.0-1.22","5e35de293e64955878774717","6662009ae78f21dd82fcd179","6662024d4cbacf8a8f9eae70","null","","null","","","","","","","","./tasks/HMM-beads/Images/WhiteBeadChoice.png","","","","","","","","","",""
"image-keyboard-response","204","653828","0.0-3.0-6.0-1.0-2.22","5e35de293e64955878774717","6662009ae78f21dd82fcd179","6662024d4cbacf8a8f9eae70","null","","null","","","","","","","","./tasks/HMM-beads/Images/WhiteBeadChoiceCorrect.png","","","","","","","","","",""
"image-keyboard-response","205","655288","0.0-3.0-6.0-1.0-0.23","5e35de293e64955878774717","6662009ae78f21dd82fcd179","6662024d4cbacf8a8f9eae70","1459","","j","","","","","","","","./tasks/HMM-beads/Images/NewTrialWC.png","lowH","1","23","1","1","1","1","true","",""
"image-keyboard-response","206","655597","0.0-3.0-6.0-1.0-1.23","5e35de293e64955878774717","6662009ae78f21dd82fcd179","6662024d4cbacf8a8f9eae70","null","","null","","","","","","","","./tasks/HMM-beads/Images/WhiteBeadChoice.png","","","","","","","","","",""
"image-keyboard-response","207","656111","0.0-3.0-6.0-1.0-2.23","5e35de293e64955878774717","6662009ae78f21dd82fcd179","6662024d4cbacf8a8f9eae70","null","","null","","","","","","","","./tasks/HMM-beads/Images/WhiteBeadChoiceCorrect.png","","","","","","","","","",""
"image-keyboard-response","208","657173","0.0-3.0-6.0-1.0-0.24","5e35de293e64955878774717","6662009ae78f21dd82fcd179","6662024d4cbacf8a8f9eae70","1061","","j","","","","","","","","./tasks/HMM-beads/Images/NewTrialWC.png","lowH","1","24","1","0","1","1","false","",""
"image-keyboard-response","209","657479","0.0-3.0-6.0-1.0-1.24","5e35de293e64955878774717","6662009ae78f21dd82fcd179","6662024d4cbacf8a8f9eae70","null","","null","","","","","","","","./tasks/HMM-beads/Images/WhiteBeadChoice.png","","","","","","","","","",""
"image-keyboard-response","210","658008","0.0-3.0-6.0-1.0-2.24","5e35de293e64955878774717","6662009ae78f21dd82fcd179","6662024d4cbacf8a8f9eae70","null","","null","","","","","","","","./tasks/HMM-beads/Images/WhiteBeadChoiceWrong.png","","","","","","","","","",""
"image-keyboard-response","211","660037","0.0-3.0-6.0-1.0-0.25","5e35de293e64955878774717","6662009ae78f21dd82fcd179","6662024d4cbacf8a8f9eae70","2027","","j","","","","","","","","./tasks/HMM-beads/Images/NewTrialBC.png","lowH","1","25","1","1","0","1","true","",""
"image-keyboard-response","212","660350","0.0-3.0-6.0-1.0-1.25","5e35de293e64955878774717","6662009ae78f21dd82fcd179","6662024d4cbacf8a8f9eae70","null","","null","","","","","","","","./tasks/HMM-beads/Images/WhiteBeadChoice.png","","","","","","","","","",""
"image-keyboard-response","213","660862","0.0-3.0-6.0-1.0-2.25","5e35de293e64955878774717","6662009ae78f21dd82fcd179","6662024d4cbacf8a8f9eae70","null","","null","","","","","","","","./tasks/HMM-beads/Images/WhiteBeadChoiceCorrect.png","","","","","","","","","",""
"image-keyboard-response","214","661621","0.0-3.0-6.0-1.0-0.26","5e35de293e64955878774717","6662009ae78f21dd82fcd179","6662024d4cbacf8a8f9eae70","757","","j","","","","","","","","./tasks/HMM-beads/Images/NewTrialWC.png","lowH","1","26","1","0","1","1","false","",""
"image-keyboard-response","215","661926","0.0-3.0-6.0-1.0-1.26","5e35de293e64955878774717","6662009ae78f21dd82fcd179","6662024d4cbacf8a8f9eae70","null","","null","","","","","","","","./tasks/HMM-beads/Images/WhiteBeadChoice.png","","","","","","","","","",""
"image-keyboard-response","216","662431","0.0-3.0-6.0-1.0-2.26","5e35de293e64955878774717","6662009ae78f21dd82fcd179","6662024d4cbacf8a8f9eae70","null","","null","","","","","","","","./tasks/HMM-beads/Images/WhiteBeadChoiceWrong.png","","","","","","","","","",""
"image-keyboard-response","217","664993","0.0-3.0-6.0-1.0-0.27","5e35de293e64955878774717","6662009ae78f21dd82fcd179","6662024d4cbacf8a8f9eae70","2561","","j","","","","","","","","./tasks/HMM-beads/Images/NewTrialBC.png","lowH","1","27","1","1","0","1","true","",""
"image-keyboard-response","218","665298","0.0-3.0-6.0-1.0-1.27","5e35de293e64955878774717","6662009ae78f21dd82fcd179","6662024d4cbacf8a8f9eae70","null","","null","","","","","","","","./tasks/HMM-beads/Images/WhiteBeadChoice.png","","","","","","","","","",""
"image-keyboard-response","219","665811","0.0-3.0-6.0-1.0-2.27","5e35de293e64955878774717","6662009ae78f21dd82fcd179","6662024d4cbacf8a8f9eae70","null","","null","","","","","","","","./tasks/HMM-beads/Images/WhiteBeadChoiceCorrect.png","","","","","","","","","",""
"image-keyboard-response","220","666344","0.0-3.0-6.0-1.0-0.28","5e35de293e64955878774717","6662009ae78f21dd82fcd179","6662024d4cbacf8a8f9eae70","532","","j","","","","","","","","./tasks/HMM-beads/Images/NewTrialWC.png","lowH","1","28","1","1","1","1","true","",""
"image-keyboard-response","221","666654","0.0-3.0-6.0-1.0-1.28","5e35de293e64955878774717","6662009ae78f21dd82fcd179","6662024d4cbacf8a8f9eae70","null","","null","","","","","","","","./tasks/HMM-beads/Images/WhiteBeadChoice.png","","","","","","","","","",""
"image-keyboard-response","222","667160","0.0-3.0-6.0-1.0-2.28","5e35de293e64955878774717","6662009ae78f21dd82fcd179","6662024d4cbacf8a8f9eae70","null","","null","","","","","","","","./tasks/HMM-beads/Images/WhiteBeadChoiceCorrect.png","","","","","","","","","",""
"image-keyboard-response","223","669967","0.0-3.0-6.0-1.0-0.29","5e35de293e64955878774717","6662009ae78f21dd82fcd179","6662024d4cbacf8a8f9eae70","2800","","j","","","","","","","","./tasks/HMM-beads/Images/NewTrialWC.png","lowH","1","29","1","1","1","1","true","",""
"image-keyboard-response","224","670276","0.0-3.0-6.0-1.0-1.29","5e35de293e64955878774717","6662009ae78f21dd82fcd179","6662024d4cbacf8a8f9eae70","null","","null","","","","","","","","./tasks/HMM-beads/Images/WhiteBeadChoice.png","","","","","","","","","",""
"image-keyboard-response","225","670787","0.0-3.0-6.0-1.0-2.29","5e35de293e64955878774717","6662009ae78f21dd82fcd179","6662024d4cbacf8a8f9eae70","null","","null","","","","","","","","./tasks/HMM-beads/Images/WhiteBeadChoiceCorrect.png","","","","","","","","","",""
"image-keyboard-response","226","672976","0.0-3.0-6.0-1.0-0.30","5e35de293e64955878774717","6662009ae78f21dd82fcd179","6662024d4cbacf8a8f9eae70","2187","","j","","","","","","","","./tasks/HMM-beads/Images/NewTrialWC.png","lowH","1","30","1","1","1","1","true","",""
"image-keyboard-response","227","673282","0.0-3.0-6.0-1.0-1.30","5e35de293e64955878774717","6662009ae78f21dd82fcd179","6662024d4cbacf8a8f9eae70","null","","null","","","","","","","","./tasks/HMM-beads/Images/WhiteBeadChoice.png","","","","","","","","","",""
"image-keyboard-response","228","673794","0.0-3.0-6.0-1.0-2.30","5e35de293e64955878774717","6662009ae78f21dd82fcd179","6662024d4cbacf8a8f9eae70","null","","null","","","","","","","","./tasks/HMM-beads/Images/WhiteBeadChoiceCorrect.png","","","","","","","","","",""
"image-keyboard-response","229","676321","0.0-3.0-6.0-1.0-0.31","5e35de293e64955878774717","6662009ae78f21dd82fcd179","6662024d4cbacf8a8f9eae70","2525","","j","","","","","","","","./tasks/HMM-beads/Images/NewTrialWC.png","lowH","1","31","1","1","1","1","true","",""
"image-keyboard-response","230","676631","0.0-3.0-6.0-1.0-1.31","5e35de293e64955878774717","6662009ae78f21dd82fcd179","6662024d4cbacf8a8f9eae70","null","","null","","","","","","","","./tasks/HMM-beads/Images/WhiteBeadChoice.png","","","","","","","","","",""
"image-keyboard-response","231","677135","0.0-3.0-6.0-1.0-2.31","5e35de293e64955878774717","6662009ae78f21dd82fcd179","6662024d4cbacf8a8f9eae70","null","","null","","","","","","","","./tasks/HMM-beads/Images/WhiteBeadChoiceCorrect.png","","","","","","","","","",""
"image-keyboard-response","232","678628","0.0-3.0-6.0-1.0-0.32","5e35de293e64955878774717","6662009ae78f21dd82fcd179","6662024d4cbacf8a8f9eae70","1492","","j","","","","","","","","./tasks/HMM-beads/Images/NewTrialWC.png","lowH","1","32","1","1","1","1","true","",""
"image-keyboard-response","233","678944","0.0-3.0-6.0-1.0-1.32","5e35de293e64955878774717","6662009ae78f21dd82fcd179","6662024d4cbacf8a8f9eae70","null","","null","","","","","","","","./tasks/HMM-beads/Images/WhiteBeadChoice.png","","","","","","","","","",""
"image-keyboard-response","234","679447","0.0-3.0-6.0-1.0-2.32","5e35de293e64955878774717","6662009ae78f21dd82fcd179","6662024d4cbacf8a8f9eae70","null","","null","","","","","","","","./tasks/HMM-beads/Images/WhiteBeadChoiceCorrect.png","","","","","","","","","",""
"image-keyboard-response","235","679948","0.0-3.0-6.0-1.0-0.33","5e35de293e64955878774717","6662009ae78f21dd82fcd179","6662024d4cbacf8a8f9eae70","499","","j","","","","","","","","./tasks/HMM-beads/Images/NewTrialWC.png","lowH","1","33","1","1","1","1","true","",""
"image-keyboard-response","236","680267","0.0-3.0-6.0-1.0-1.33","5e35de293e64955878774717","6662009ae78f21dd82fcd179","6662024d4cbacf8a8f9eae70","null","","null","","","","","","","","./tasks/HMM-beads/Images/WhiteBeadChoice.png","","","","","","","","","",""
"image-keyboard-response","237","680773","0.0-3.0-6.0-1.0-2.33","5e35de293e64955878774717","6662009ae78f21dd82fcd179","6662024d4cbacf8a8f9eae70","null","","null","","","","","","","","./tasks/HMM-beads/Images/WhiteBeadChoiceCorrect.png","","","","","","","","","",""
"image-keyboard-response","238","681667","0.0-3.0-6.0-1.0-0.34","5e35de293e64955878774717","6662009ae78f21dd82fcd179","6662024d4cbacf8a8f9eae70","893","","j","","","","","","","","./tasks/HMM-beads/Images/NewTrialWC.png","lowH","1","34","1","1","1","1","true","",""
"image-keyboard-response","239","681974","0.0-3.0-6.0-1.0-1.34","5e35de293e64955878774717","6662009ae78f21dd82fcd179","6662024d4cbacf8a8f9eae70","null","","null","","","","","","","","./tasks/HMM-beads/Images/WhiteBeadChoice.png","","","","","","","","","",""
"image-keyboard-response","240","682487","0.0-3.0-6.0-1.0-2.34","5e35de293e64955878774717","6662009ae78f21dd82fcd179","6662024d4cbacf8a8f9eae70","null","","null","","","","","","","","./tasks/HMM-beads/Images/WhiteBeadChoiceCorrect.png","","","","","","","","","",""
"image-keyboard-response","241","683793","0.0-3.0-6.0-1.0-0.35","5e35de293e64955878774717","6662009ae78f21dd82fcd179","6662024d4cbacf8a8f9eae70","1304","","j","","","","","","","","./tasks/HMM-beads/Images/NewTrialWC.png","lowH","1","35","1","1","1","1","true","",""
"image-keyboard-response","242","684098","0.0-3.0-6.0-1.0-1.35","5e35de293e64955878774717","6662009ae78f21dd82fcd179","6662024d4cbacf8a8f9eae70","null","","null","","","","","","","","./tasks/HMM-beads/Images/WhiteBeadChoice.png","","","","","","","","","",""
"image-keyboard-response","243","684609","0.0-3.0-6.0-1.0-2.35","5e35de293e64955878774717","6662009ae78f21dd82fcd179","6662024d4cbacf8a8f9eae70","null","","null","","","","","","","","./tasks/HMM-beads/Images/WhiteBeadChoiceCorrect.png","","","","","","","","","",""
"image-keyboard-response","244","685304","0.0-3.0-6.0-1.0-0.36","5e35de293e64955878774717","6662009ae78f21dd82fcd179","6662024d4cbacf8a8f9eae70","694","","j","","","","","","","","./tasks/HMM-beads/Images/NewTrialWC.png","lowH","1","36","1","1","1","1","true","",""
"image-keyboard-response","245","685620","0.0-3.0-6.0-1.0-1.36","5e35de293e64955878774717","6662009ae78f21dd82fcd179","6662024d4cbacf8a8f9eae70","null","","null","","","","","","","","./tasks/HMM-beads/Images/WhiteBeadChoice.png","","","","","","","","","",""
"image-keyboard-response","246","686128","0.0-3.0-6.0-1.0-2.36","5e35de293e64955878774717","6662009ae78f21dd82fcd179","6662024d4cbacf8a8f9eae70","null","","null","","","","","","","","./tasks/HMM-beads/Images/WhiteBeadChoiceCorrect.png","","","","","","","","","",""
"image-keyboard-response","247","687415","0.0-3.0-6.0-1.0-0.37","5e35de293e64955878774717","6662009ae78f21dd82fcd179","6662024d4cbacf8a8f9eae70","1286","","j","","","","","","","","./tasks/HMM-beads/Images/NewTrialWC.png","lowH","1","37","1","1","1","1","true","",""
"image-keyboard-response","248","687720","0.0-3.0-6.0-1.0-1.37","5e35de293e64955878774717","6662009ae78f21dd82fcd179","6662024d4cbacf8a8f9eae70","null","","null","","","","","","","","./tasks/HMM-beads/Images/WhiteBeadChoice.png","","","","","","","","","",""
"image-keyboard-response","249","688235","0.0-3.0-6.0-1.0-2.37","5e35de293e64955878774717","6662009ae78f21dd82fcd179","6662024d4cbacf8a8f9eae70","null","","null","","","","","","","","./tasks/HMM-beads/Images/WhiteBeadChoiceCorrect.png","","","","","","","","","",""
"image-keyboard-response","250","689579","0.0-3.0-6.0-1.0-0.38","5e35de293e64955878774717","6662009ae78f21dd82fcd179","6662024d4cbacf8a8f9eae70","1343","","j","","","","","","","","./tasks/HMM-beads/Images/NewTrialWC.png","lowH","1","38","1","1","1","1","true","",""
"image-keyboard-response","251","689893","0.0-3.0-6.0-1.0-1.38","5e35de293e64955878774717","6662009ae78f21dd82fcd179","6662024d4cbacf8a8f9eae70","null","","null","","","","","","","","./tasks/HMM-beads/Images/WhiteBeadChoice.png","","","","","","","","","",""
"image-keyboard-response","252","690407","0.0-3.0-6.0-1.0-2.38","5e35de293e64955878774717","6662009ae78f21dd82fcd179","6662024d4cbacf8a8f9eae70","null","","null","","","","","","","","./tasks/HMM-beads/Images/WhiteBeadChoiceCorrect.png","","","","","","","","","",""
"image-keyboard-response","253","691804","0.0-3.0-6.0-1.0-0.39","5e35de293e64955878774717","6662009ae78f21dd82fcd179","6662024d4cbacf8a8f9eae70","1404","","j","","","","","","","","./tasks/HMM-beads/Images/NewTrialWC.png","lowH","1","39","1","1","1","1","true","",""
"image-keyboard-response","254","692110","0.0-3.0-6.0-1.0-1.39","5e35de293e64955878774717","6662009ae78f21dd82fcd179","6662024d4cbacf8a8f9eae70","null","","null","","","","","","","","./tasks/HMM-beads/Images/WhiteBeadChoice.png","","","","","","","","","",""
"image-keyboard-response","255","692619","0.0-3.0-6.0-1.0-2.39","5e35de293e64955878774717","6662009ae78f21dd82fcd179","6662024d4cbacf8a8f9eae70","null","","null","","","","","","","","./tasks/HMM-beads/Images/WhiteBeadChoiceCorrect.png","","","","","","","","","",""
"image-keyboard-response","256","693450","0.0-3.0-6.0-1.0-0.40","5e35de293e64955878774717","6662009ae78f21dd82fcd179","6662024d4cbacf8a8f9eae70","829","","j","","","","","","","","./tasks/HMM-beads/Images/NewTrialWC.png","lowH","1","40","1","1","1","1","true","",""
"image-keyboard-response","257","693767","0.0-3.0-6.0-1.0-1.40","5e35de293e64955878774717","6662009ae78f21dd82fcd179","6662024d4cbacf8a8f9eae70","null","","null","","","","","","","","./tasks/HMM-beads/Images/WhiteBeadChoice.png","","","","","","","","","",""
"image-keyboard-response","258","694271","0.0-3.0-6.0-1.0-2.40","5e35de293e64955878774717","6662009ae78f21dd82fcd179","6662024d4cbacf8a8f9eae70","null","","null","","","","","","","","./tasks/HMM-beads/Images/WhiteBeadChoiceCorrect.png","","","","","","","","","",""
"image-keyboard-response","259","695428","0.0-3.0-6.0-1.0-0.41","5e35de293e64955878774717","6662009ae78f21dd82fcd179","6662024d4cbacf8a8f9eae70","1155","","j","","","","","","","","./tasks/HMM-beads/Images/NewTrialWC.png","lowH","1","41","1","1","1","1","true","",""
"image-keyboard-response","260","695739","0.0-3.0-6.0-1.0-1.41","5e35de293e64955878774717","6662009ae78f21dd82fcd179","6662024d4cbacf8a8f9eae70","null","","null","","","","","","","","./tasks/HMM-beads/Images/WhiteBeadChoice.png","","","","","","","","","",""
"image-keyboard-response","261","696253","0.0-3.0-6.0-1.0-2.41","5e35de293e64955878774717","6662009ae78f21dd82fcd179","6662024d4cbacf8a8f9eae70","null","","null","","","","","","","","./tasks/HMM-beads/Images/WhiteBeadChoiceCorrect.png","","","","","","","","","",""
"image-keyboard-response","262","698618","0.0-3.0-6.0-1.0-0.42","5e35de293e64955878774717","6662009ae78f21dd82fcd179","6662024d4cbacf8a8f9eae70","2363","","j","","","","","","","","./tasks/HMM-beads/Images/NewTrialWC.png","lowH","1","42","1","1","1","1","true","",""
"image-keyboard-response","263","698928","0.0-3.0-6.0-1.0-1.42","5e35de293e64955878774717","6662009ae78f21dd82fcd179","6662024d4cbacf8a8f9eae70","null","","null","","","","","","","","./tasks/HMM-beads/Images/WhiteBeadChoice.png","","","","","","","","","",""
"image-keyboard-response","264","699441","0.0-3.0-6.0-1.0-2.42","5e35de293e64955878774717","6662009ae78f21dd82fcd179","6662024d4cbacf8a8f9eae70","null","","null","","","","","","","","./tasks/HMM-beads/Images/WhiteBeadChoiceCorrect.png","","","","","","","","","",""
"image-keyboard-response","265","701094","0.0-3.0-6.0-1.0-0.43","5e35de293e64955878774717","6662009ae78f21dd82fcd179","6662024d4cbacf8a8f9eae70","1652","","j","","","","","","","","./tasks/HMM-beads/Images/NewTrialWC.png","lowH","1","43","1","1","1","1","true","",""
"image-keyboard-response","266","701409","0.0-3.0-6.0-1.0-1.43","5e35de293e64955878774717","6662009ae78f21dd82fcd179","6662024d4cbacf8a8f9eae70","null","","null","","","","","","","","./tasks/HMM-beads/Images/WhiteBeadChoice.png","","","","","","","","","",""
"image-keyboard-response","267","701922","0.0-3.0-6.0-1.0-2.43","5e35de293e64955878774717","6662009ae78f21dd82fcd179","6662024d4cbacf8a8f9eae70","null","","null","","","","","","","","./tasks/HMM-beads/Images/WhiteBeadChoiceCorrect.png","","","","","","","","","",""
"image-keyboard-response","268","703429","0.0-3.0-6.0-1.0-0.44","5e35de293e64955878774717","6662009ae78f21dd82fcd179","6662024d4cbacf8a8f9eae70","1505","","j","","","","","","","","./tasks/HMM-beads/Images/NewTrialWC.png","lowH","1","44","1","1","1","1","true","",""
"image-keyboard-response","269","703742","0.0-3.0-6.0-1.0-1.44","5e35de293e64955878774717","6662009ae78f21dd82fcd179","6662024d4cbacf8a8f9eae70","null","","null","","","","","","","","./tasks/HMM-beads/Images/WhiteBeadChoice.png","","","","","","","","","",""
"image-keyboard-response","270","704246","0.0-3.0-6.0-1.0-2.44","5e35de293e64955878774717","6662009ae78f21dd82fcd179","6662024d4cbacf8a8f9eae70","null","","null","","","","","","","","./tasks/HMM-beads/Images/WhiteBeadChoiceCorrect.png","","","","","","","","","",""
"image-keyboard-response","271","704993","0.0-3.0-6.0-1.0-0.45","5e35de293e64955878774717","6662009ae78f21dd82fcd179","6662024d4cbacf8a8f9eae70","746","","j","","","","","","","","./tasks/HMM-beads/Images/NewTrialWC.png","lowH","1","45","1","1","1","1","true","",""
"image-keyboard-response","272","705299","0.0-3.0-6.0-1.0-1.45","5e35de293e64955878774717","6662009ae78f21dd82fcd179","6662024d4cbacf8a8f9eae70","null","","null","","","","","","","","./tasks/HMM-beads/Images/WhiteBeadChoice.png","","","","","","","","","",""
"image-keyboard-response","273","705803","0.0-3.0-6.0-1.0-2.45","5e35de293e64955878774717","6662009ae78f21dd82fcd179","6662024d4cbacf8a8f9eae70","null","","null","","","","","","","","./tasks/HMM-beads/Images/WhiteBeadChoiceCorrect.png","","","","","","","","","",""
"image-keyboard-response","274","706698","0.0-3.0-6.0-1.0-0.46","5e35de293e64955878774717","6662009ae78f21dd82fcd179","6662024d4cbacf8a8f9eae70","893","","j","","","","","","","","./tasks/HMM-beads/Images/NewTrialWC.png","lowH","1","46","1","1","1","1","true","",""
"image-keyboard-response","275","707005","0.0-3.0-6.0-1.0-1.46","5e35de293e64955878774717","6662009ae78f21dd82fcd179","6662024d4cbacf8a8f9eae70","null","","null","","","","","","","","./tasks/HMM-beads/Images/WhiteBeadChoice.png","","","","","","","","","",""
"image-keyboard-response","276","707519","0.0-3.0-6.0-1.0-2.46","5e35de293e64955878774717","6662009ae78f21dd82fcd179","6662024d4cbacf8a8f9eae70","null","","null","","","","","","","","./tasks/HMM-beads/Images/WhiteBeadChoiceCorrect.png","","","","","","","","","",""
"image-keyboard-response","277","708048","0.0-3.0-6.0-1.0-0.47","5e35de293e64955878774717","6662009ae78f21dd82fcd179","6662024d4cbacf8a8f9eae70","528","","j","","","","","","","","./tasks/HMM-beads/Images/NewTrialWC.png","lowH","1","47","1","0","1","1","false","",""
"image-keyboard-response","278","708354","0.0-3.0-6.0-1.0-1.47","5e35de293e64955878774717","6662009ae78f21dd82fcd179","6662024d4cbacf8a8f9eae70","null","","null","","","","","","","","./tasks/HMM-beads/Images/WhiteBeadChoice.png","","","","","","","","","",""
"image-keyboard-response","279","708859","0.0-3.0-6.0-1.0-2.47","5e35de293e64955878774717","6662009ae78f21dd82fcd179","6662024d4cbacf8a8f9eae70","null","","null","","","","","","","","./tasks/HMM-beads/Images/WhiteBeadChoiceWrong.png","","","","","","","","","",""
"image-keyboard-response","280","710256","0.0-3.0-6.0-1.0-0.48","5e35de293e64955878774717","6662009ae78f21dd82fcd179","6662024d4cbacf8a8f9eae70","1395","","j","","","","","","","","./tasks/HMM-beads/Images/NewTrialBC.png","lowH","1","48","1","0","0","1","false","",""
"image-keyboard-response","281","710562","0.0-3.0-6.0-1.0-1.48","5e35de293e64955878774717","6662009ae78f21dd82fcd179","6662024d4cbacf8a8f9eae70","null","","null","","","","","","","","./tasks/HMM-beads/Images/WhiteBeadChoice.png","","","","","","","","","",""
"image-keyboard-response","282","711066","0.0-3.0-6.0-1.0-2.48","5e35de293e64955878774717","6662009ae78f21dd82fcd179","6662024d4cbacf8a8f9eae70","null","","null","","","","","","","","./tasks/HMM-beads/Images/WhiteBeadChoiceWrong.png","","","","","","","","","",""
"image-keyboard-response","283","713684","0.0-3.0-6.0-1.0-0.49","5e35de293e64955878774717","6662009ae78f21dd82fcd179","6662024d4cbacf8a8f9eae70","2617","","j","","","","","","","","./tasks/HMM-beads/Images/NewTrialBC.png","lowH","1","49","1","0","0","1","false","",""
"image-keyboard-response","284","713992","0.0-3.0-6.0-1.0-1.49","5e35de293e64955878774717","6662009ae78f21dd82fcd179","6662024d4cbacf8a8f9eae70","null","","null","","","","","","","","./tasks/HMM-beads/Images/WhiteBeadChoice.png","","","","","","","","","",""
"image-keyboard-response","285","714505","0.0-3.0-6.0-1.0-2.49","5e35de293e64955878774717","6662009ae78f21dd82fcd179","6662024d4cbacf8a8f9eae70","null","","null","","","","","","","","./tasks/HMM-beads/Images/WhiteBeadChoiceWrong.png","","","","","","","","","",""
"image-keyboard-response","286","715673","0.0-3.0-6.0-1.0-0.50","5e35de293e64955878774717","6662009ae78f21dd82fcd179","6662024d4cbacf8a8f9eae70","1166","","f","","","","","","","","./tasks/HMM-beads/Images/NewTrialBC.png","lowH","1","50","1","1","0","0","false","",""
"image-keyboard-response","287","715975","0.0-3.0-6.0-1.0-1.50","5e35de293e64955878774717","6662009ae78f21dd82fcd179","6662024d4cbacf8a8f9eae70","null","","null","","","","","","","","./tasks/HMM-beads/Images/BlackBeadChoice.png","","","","","","","","","",""
"image-keyboard-response","288","716503","0.0-3.0-6.0-1.0-2.50","5e35de293e64955878774717","6662009ae78f21dd82fcd179","6662024d4cbacf8a8f9eae70","null","","null","","","","","","","","./tasks/HMM-beads/Images/BlackBeadChoiceWrong.png","","","","","","","","","",""
"image-keyboard-response","289","717800","0.0-3.0-6.0-1.0-0.51","5e35de293e64955878774717","6662009ae78f21dd82fcd179","6662024d4cbacf8a8f9eae70","1295","","j","","","","","","","","./tasks/HMM-beads/Images/NewTrialWC.png","lowH","1","51","1","1","1","1","true","",""
"image-keyboard-response","290","718109","0.0-3.0-6.0-1.0-1.51","5e35de293e64955878774717","6662009ae78f21dd82fcd179","6662024d4cbacf8a8f9eae70","null","","null","","","","","","","","./tasks/HMM-beads/Images/WhiteBeadChoice.png","","","","","","","","","",""
"image-keyboard-response","291","718625","0.0-3.0-6.0-1.0-2.51","5e35de293e64955878774717","6662009ae78f21dd82fcd179","6662024d4cbacf8a8f9eae70","null","","null","","","","","","","","./tasks/HMM-beads/Images/WhiteBeadChoiceCorrect.png","","","","","","","","","",""
"image-keyboard-response","292","719029","0.0-3.0-6.0-1.0-0.52","5e35de293e64955878774717","6662009ae78f21dd82fcd179","6662024d4cbacf8a8f9eae70","402","","j","","","","","","","","./tasks/HMM-beads/Images/NewTrialWC.png","lowH","1","52","1","1","1","1","true","",""
"image-keyboard-response","293","719337","0.0-3.0-6.0-1.0-1.52","5e35de293e64955878774717","6662009ae78f21dd82fcd179","6662024d4cbacf8a8f9eae70","null","","null","","","","","","","","./tasks/HMM-beads/Images/WhiteBeadChoice.png","","","","","","","","","",""
"image-keyboard-response","294","719848","0.0-3.0-6.0-1.0-2.52","5e35de293e64955878774717","6662009ae78f21dd82fcd179","6662024d4cbacf8a8f9eae70","null","","null","","","","","","","","./tasks/HMM-beads/Images/WhiteBeadChoiceCorrect.png","","","","","","","","","",""
"image-keyboard-response","295","720655","0.0-3.0-6.0-1.0-0.53","5e35de293e64955878774717","6662009ae78f21dd82fcd179","6662024d4cbacf8a8f9eae70","806","","f","","","","","","","","./tasks/HMM-beads/Images/NewTrialWC.png","lowH","1","53","1","1","1","0","false","",""
"image-keyboard-response","296","720960","0.0-3.0-6.0-1.0-1.53","5e35de293e64955878774717","6662009ae78f21dd82fcd179","6662024d4cbacf8a8f9eae70","null","","null","","","","","","","","./tasks/HMM-beads/Images/BlackBeadChoice.png","","","","","","","","","",""
"image-keyboard-response","297","721467","0.0-3.0-6.0-1.0-2.53","5e35de293e64955878774717","6662009ae78f21dd82fcd179","6662024d4cbacf8a8f9eae70","null","","null","","","","","","","","./tasks/HMM-beads/Images/BlackBeadChoiceWrong.png","","","","","","","","","",""
"image-keyboard-response","298","722030","0.0-3.0-6.0-1.0-0.54","5e35de293e64955878774717","6662009ae78f21dd82fcd179","6662024d4cbacf8a8f9eae70","561","","j","","","","","","","","./tasks/HMM-beads/Images/NewTrialWC.png","lowH","1","54","1","1","1","1","true","",""
"image-keyboard-response","299","722342","0.0-3.0-6.0-1.0-1.54","5e35de293e64955878774717","6662009ae78f21dd82fcd179","6662024d4cbacf8a8f9eae70","null","","null","","","","","","","","./tasks/HMM-beads/Images/WhiteBeadChoice.png","","","","","","","","","",""
"image-keyboard-response","300","722854","0.0-3.0-6.0-1.0-2.54","5e35de293e64955878774717","6662009ae78f21dd82fcd179","6662024d4cbacf8a8f9eae70","null","","null","","","","","","","","./tasks/HMM-beads/Images/WhiteBeadChoiceCorrect.png","","","","","","","","","",""
"image-keyboard-response","301","724871","0.0-3.0-6.0-1.0-0.55","5e35de293e64955878774717","6662009ae78f21dd82fcd179","6662024d4cbacf8a8f9eae70","2010","","j","","","","","","","","./tasks/HMM-beads/Images/NewTrialWC.png","lowH","1","55","1","1","1","1","true","",""
"image-keyboard-response","302","725186","0.0-3.0-6.0-1.0-1.55","5e35de293e64955878774717","6662009ae78f21dd82fcd179","6662024d4cbacf8a8f9eae70","null","","null","","","","","","","","./tasks/HMM-beads/Images/WhiteBeadChoice.png","","","","","","","","","",""
"image-keyboard-response","303","725696","0.0-3.0-6.0-1.0-2.55","5e35de293e64955878774717","6662009ae78f21dd82fcd179","6662024d4cbacf8a8f9eae70","null","","null","","","","","","","","./tasks/HMM-beads/Images/WhiteBeadChoiceCorrect.png","","","","","","","","","",""
"image-keyboard-response","304","726224","0.0-3.0-6.0-1.0-0.56","5e35de293e64955878774717","6662009ae78f21dd82fcd179","6662024d4cbacf8a8f9eae70","527","","j","","","","","","","","./tasks/HMM-beads/Images/NewTrialWC.png","lowH","1","56","1","1","1","1","true","",""
"image-keyboard-response","305","726532","0.0-3.0-6.0-1.0-1.56","5e35de293e64955878774717","6662009ae78f21dd82fcd179","6662024d4cbacf8a8f9eae70","null","","null","","","","","","","","./tasks/HMM-beads/Images/WhiteBeadChoice.png","","","","","","","","","",""
"image-keyboard-response","306","727043","0.0-3.0-6.0-1.0-2.56","5e35de293e64955878774717","6662009ae78f21dd82fcd179","6662024d4cbacf8a8f9eae70","null","","null","","","","","","","","./tasks/HMM-beads/Images/WhiteBeadChoiceCorrect.png","","","","","","","","","",""
"image-keyboard-response","307","727621","0.0-3.0-6.0-1.0-0.57","5e35de293e64955878774717","6662009ae78f21dd82fcd179","6662024d4cbacf8a8f9eae70","576","","j","","","","","","","","./tasks/HMM-beads/Images/NewTrialWC.png","lowH","1","57","1","1","1","1","true","",""
"image-keyboard-response","308","727928","0.0-3.0-6.0-1.0-1.57","5e35de293e64955878774717","6662009ae78f21dd82fcd179","6662024d4cbacf8a8f9eae70","null","","null","","","","","","","","./tasks/HMM-beads/Images/WhiteBeadChoice.png","","","","","","","","","",""
"image-keyboard-response","309","728442","0.0-3.0-6.0-1.0-2.57","5e35de293e64955878774717","6662009ae78f21dd82fcd179","6662024d4cbacf8a8f9eae70","null","","null","","","","","","","","./tasks/HMM-beads/Images/WhiteBeadChoiceCorrect.png","","","","","","","","","",""
"image-keyboard-response","310","729200","0.0-3.0-6.0-1.0-0.58","5e35de293e64955878774717","6662009ae78f21dd82fcd179","6662024d4cbacf8a8f9eae70","756","","j","","","","","","","","./tasks/HMM-beads/Images/NewTrialWC.png","lowH","1","58","1","1","1","1","true","",""
"image-keyboard-response","311","729511","0.0-3.0-6.0-1.0-1.58","5e35de293e64955878774717","6662009ae78f21dd82fcd179","6662024d4cbacf8a8f9eae70","null","","null","","","","","","","","./tasks/HMM-beads/Images/WhiteBeadChoice.png","","","","","","","","","",""
"image-keyboard-response","312","730017","0.0-3.0-6.0-1.0-2.58","5e35de293e64955878774717","6662009ae78f21dd82fcd179","6662024d4cbacf8a8f9eae70","null","","null","","","","","","","","./tasks/HMM-beads/Images/WhiteBeadChoiceCorrect.png","","","","","","","","","",""
"image-keyboard-response","313","731430","0.0-3.0-6.0-1.0-0.59","5e35de293e64955878774717","6662009ae78f21dd82fcd179","6662024d4cbacf8a8f9eae70","1412","","j","","","","","","","","./tasks/HMM-beads/Images/NewTrialWC.png","lowH","1","59","1","0","1","1","false","",""
"image-keyboard-response","314","731759","0.0-3.0-6.0-1.0-1.59","5e35de293e64955878774717","6662009ae78f21dd82fcd179","6662024d4cbacf8a8f9eae70","null","","null","","","","","","","","./tasks/HMM-beads/Images/WhiteBeadChoice.png","","","","","","","","","",""
"image-keyboard-response","315","732273","0.0-3.0-6.0-1.0-2.59","5e35de293e64955878774717","6662009ae78f21dd82fcd179","6662024d4cbacf8a8f9eae70","null","","null","","","","","","","","./tasks/HMM-beads/Images/WhiteBeadChoiceWrong.png","","","","","","","","","",""
"image-keyboard-response","316","733068","0.0-3.0-6.0-1.0-0.60","5e35de293e64955878774717","6662009ae78f21dd82fcd179","6662024d4cbacf8a8f9eae70","793","","j","","","","","","","","./tasks/HMM-beads/Images/NewTrialBC.png","lowH","1","60","1","1","0","1","true","",""
"image-keyboard-response","317","733375","0.0-3.0-6.0-1.0-1.60","5e35de293e64955878774717","6662009ae78f21dd82fcd179","6662024d4cbacf8a8f9eae70","null","","null","","","","","","","","./tasks/HMM-beads/Images/WhiteBeadChoice.png","","","","","","","","","",""
"image-keyboard-response","318","733888","0.0-3.0-6.0-1.0-2.60","5e35de293e64955878774717","6662009ae78f21dd82fcd179","6662024d4cbacf8a8f9eae70","null","","null","","","","","","","","./tasks/HMM-beads/Images/WhiteBeadChoiceCorrect.png","","","","","","","","","",""
"image-keyboard-response","319","734710","0.0-3.0-6.0-1.0-0.61","5e35de293e64955878774717","6662009ae78f21dd82fcd179","6662024d4cbacf8a8f9eae70","820","","j","","","","","","","","./tasks/HMM-beads/Images/NewTrialWC.png","lowH","1","61","1","1","1","1","true","",""
"image-keyboard-response","320","735016","0.0-3.0-6.0-1.0-1.61","5e35de293e64955878774717","6662009ae78f21dd82fcd179","6662024d4cbacf8a8f9eae70","null","","null","","","","","","","","./tasks/HMM-beads/Images/WhiteBeadChoice.png","","","","","","","","","",""
"image-keyboard-response","321","735527","0.0-3.0-6.0-1.0-2.61","5e35de293e64955878774717","6662009ae78f21dd82fcd179","6662024d4cbacf8a8f9eae70","null","","null","","","","","","","","./tasks/HMM-beads/Images/WhiteBeadChoiceCorrect.png","","","","","","","","","",""
"image-keyboard-response","322","736769","0.0-3.0-6.0-1.0-0.62","5e35de293e64955878774717","6662009ae78f21dd82fcd179","6662024d4cbacf8a8f9eae70","1240","","f","","","","","","","","./tasks/HMM-beads/Images/NewTrialWC.png","lowH","1","62","1","0","1","0","true","",""
"image-keyboard-response","323","737074","0.0-3.0-6.0-1.0-1.62","5e35de293e64955878774717","6662009ae78f21dd82fcd179","6662024d4cbacf8a8f9eae70","null","","null","","","","","","","","./tasks/HMM-beads/Images/BlackBeadChoice.png","","","","","","","","","",""
"image-keyboard-response","324","737583","0.0-3.0-6.0-1.0-2.62","5e35de293e64955878774717","6662009ae78f21dd82fcd179","6662024d4cbacf8a8f9eae70","null","","null","","","","","","","","./tasks/HMM-beads/Images/BlackBeadChoiceCorrect.png","","","","","","","","","",""
"image-keyboard-response","325","738582","0.0-3.0-6.0-1.0-0.63","5e35de293e64955878774717","6662009ae78f21dd82fcd179","6662024d4cbacf8a8f9eae70","998","","j","","","","","","","","./tasks/HMM-beads/Images/NewTrialBC.png","lowH","1","63","1","1","0","1","true","",""
"image-keyboard-response","326","738891","0.0-3.0-6.0-1.0-1.63","5e35de293e64955878774717","6662009ae78f21dd82fcd179","6662024d4cbacf8a8f9eae70","null","","null","","","","","","","","./tasks/HMM-beads/Images/WhiteBeadChoice.png","","","","","","","","","",""
"image-keyboard-response","327","739407","0.0-3.0-6.0-1.0-2.63","5e35de293e64955878774717","6662009ae78f21dd82fcd179","6662024d4cbacf8a8f9eae70","null","","null","","","","","","","","./tasks/HMM-beads/Images/WhiteBeadChoiceCorrect.png","","","","","","","","","",""
"image-keyboard-response","328","740073","0.0-3.0-6.0-1.0-0.64","5e35de293e64955878774717","6662009ae78f21dd82fcd179","6662024d4cbacf8a8f9eae70","665","","j","","","","","","","","./tasks/HMM-beads/Images/NewTrialWC.png","lowH","1","64","1","1","1","1","true","",""
"image-keyboard-response","329","740377","0.0-3.0-6.0-1.0-1.64","5e35de293e64955878774717","6662009ae78f21dd82fcd179","6662024d4cbacf8a8f9eae70","null","","null","","","","","","","","./tasks/HMM-beads/Images/WhiteBeadChoice.png","","","","","","","","","",""
"image-keyboard-response","330","740893","0.0-3.0-6.0-1.0-2.64","5e35de293e64955878774717","6662009ae78f21dd82fcd179","6662024d4cbacf8a8f9eae70","null","","null","","","","","","","","./tasks/HMM-beads/Images/WhiteBeadChoiceCorrect.png","","","","","","","","","",""
"image-keyboard-response","331","742598","0.0-3.0-6.0-1.0-0.65","5e35de293e64955878774717","6662009ae78f21dd82fcd179","6662024d4cbacf8a8f9eae70","1704","","j","","","","","","","","./tasks/HMM-beads/Images/NewTrialWC.png","lowH","1","65","1","1","1","1","true","",""
"image-keyboard-response","332","742900","0.0-3.0-6.0-1.0-1.65","5e35de293e64955878774717","6662009ae78f21dd82fcd179","6662024d4cbacf8a8f9eae70","null","","null","","","","","","","","./tasks/HMM-beads/Images/WhiteBeadChoice.png","","","","","","","","","",""
"image-keyboard-response","333","743412","0.0-3.0-6.0-1.0-2.65","5e35de293e64955878774717","6662009ae78f21dd82fcd179","6662024d4cbacf8a8f9eae70","null","","null","","","","","","","","./tasks/HMM-beads/Images/WhiteBeadChoiceCorrect.png","","","","","","","","","",""
"image-keyboard-response","334","743820","0.0-3.0-6.0-1.0-0.66","5e35de293e64955878774717","6662009ae78f21dd82fcd179","6662024d4cbacf8a8f9eae70","406","","f","","","","","","","","./tasks/HMM-beads/Images/NewTrialWC.png","lowH","1","66","1","1","1","0","false","",""
"image-keyboard-response","335","744136","0.0-3.0-6.0-1.0-1.66","5e35de293e64955878774717","6662009ae78f21dd82fcd179","6662024d4cbacf8a8f9eae70","null","","null","","","","","","","","./tasks/HMM-beads/Images/BlackBeadChoice.png","","","","","","","","","",""
"image-keyboard-response","336","744646","0.0-3.0-6.0-1.0-2.66","5e35de293e64955878774717","6662009ae78f21dd82fcd179","6662024d4cbacf8a8f9eae70","null","","null","","","","","","","","./tasks/HMM-beads/Images/BlackBeadChoiceWrong.png","","","","","","","","","",""
"image-keyboard-response","337","745073","0.0-3.0-6.0-1.0-0.67","5e35de293e64955878774717","6662009ae78f21dd82fcd179","6662024d4cbacf8a8f9eae70","425","","j","","","","","","","","./tasks/HMM-beads/Images/NewTrialWC.png","lowH","1","67","1","0","1","1","false","",""
"image-keyboard-response","338","745382","0.0-3.0-6.0-1.0-1.67","5e35de293e64955878774717","6662009ae78f21dd82fcd179","6662024d4cbacf8a8f9eae70","null","","null","","","","","","","","./tasks/HMM-beads/Images/WhiteBeadChoice.png","","","","","","","","","",""
"image-keyboard-response","339","745894","0.0-3.0-6.0-1.0-2.67","5e35de293e64955878774717","6662009ae78f21dd82fcd179","6662024d4cbacf8a8f9eae70","null","","null","","","","","","","","./tasks/HMM-beads/Images/WhiteBeadChoiceWrong.png","","","","","","","","","",""
"image-keyboard-response","340","747118","0.0-3.0-6.0-1.0-0.68","5e35de293e64955878774717","6662009ae78f21dd82fcd179","6662024d4cbacf8a8f9eae70","1209","","j","","","","","","","","./tasks/HMM-beads/Images/NewTrialBC.png","lowH","1","68","1","1","0","1","true","",""
"image-keyboard-response","341","747430","0.0-3.0-6.0-1.0-1.68","5e35de293e64955878774717","6662009ae78f21dd82fcd179","6662024d4cbacf8a8f9eae70","null","","null","","","","","","","","./tasks/HMM-beads/Images/WhiteBeadChoice.png","","","","","","","","","",""
"image-keyboard-response","342","747943","0.0-3.0-6.0-1.0-2.68","5e35de293e64955878774717","6662009ae78f21dd82fcd179","6662024d4cbacf8a8f9eae70","null","","null","","","","","","","","./tasks/HMM-beads/Images/WhiteBeadChoiceCorrect.png","","","","","","","","","",""
"image-keyboard-response","343","748480","0.0-3.0-6.0-1.0-0.69","5e35de293e64955878774717","6662009ae78f21dd82fcd179","6662024d4cbacf8a8f9eae70","535","","j","","","","","","","","./tasks/HMM-beads/Images/NewTrialWC.png","lowH","1","69","0","1","1","1","true","",""
"image-keyboard-response","344","748787","0.0-3.0-6.0-1.0-1.69","5e35de293e64955878774717","6662009ae78f21dd82fcd179","6662024d4cbacf8a8f9eae70","null","","null","","","","","","","","./tasks/HMM-beads/Images/WhiteBeadChoice.png","","","","","","","","","",""
"image-keyboard-response","345","749298","0.0-3.0-6.0-1.0-2.69","5e35de293e64955878774717","6662009ae78f21dd82fcd179","6662024d4cbacf8a8f9eae70","null","","null","","","","","","","","./tasks/HMM-beads/Images/WhiteBeadChoiceCorrect.png","","","","","","","","","",""
"image-keyboard-response","346","749862","0.0-3.0-6.0-1.0-0.70","5e35de293e64955878774717","6662009ae78f21dd82fcd179","6662024d4cbacf8a8f9eae70","563","","j","","","","","","","","./tasks/HMM-beads/Images/NewTrialWC.png","lowH","1","70","0","1","1","1","true","",""
"image-keyboard-response","347","750169","0.0-3.0-6.0-1.0-1.70","5e35de293e64955878774717","6662009ae78f21dd82fcd179","6662024d4cbacf8a8f9eae70","null","","null","","","","","","","","./tasks/HMM-beads/Images/WhiteBeadChoice.png","","","","","","","","","",""
"image-keyboard-response","348","750681","0.0-3.0-6.0-1.0-2.70","5e35de293e64955878774717","6662009ae78f21dd82fcd179","6662024d4cbacf8a8f9eae70","null","","null","","","","","","","","./tasks/HMM-beads/Images/WhiteBeadChoiceCorrect.png","","","","","","","","","",""
"image-keyboard-response","349","751512","0.0-3.0-6.0-1.0-0.71","5e35de293e64955878774717","6662009ae78f21dd82fcd179","6662024d4cbacf8a8f9eae70","830","","j","","","","","","","","./tasks/HMM-beads/Images/NewTrialWC.png","lowH","1","71","0","0","1","1","false","",""
"image-keyboard-response","350","751825","0.0-3.0-6.0-1.0-1.71","5e35de293e64955878774717","6662009ae78f21dd82fcd179","6662024d4cbacf8a8f9eae70","null","","null","","","","","","","","./tasks/HMM-beads/Images/WhiteBeadChoice.png","","","","","","","","","",""
"image-keyboard-response","351","752334","0.0-3.0-6.0-1.0-2.71","5e35de293e64955878774717","6662009ae78f21dd82fcd179","6662024d4cbacf8a8f9eae70","null","","null","","","","","","","","./tasks/HMM-beads/Images/WhiteBeadChoiceWrong.png","","","","","","","","","",""
"image-keyboard-response","352","752479","0.0-3.0-6.0-1.0-0.72","5e35de293e64955878774717","6662009ae78f21dd82fcd179","6662024d4cbacf8a8f9eae70","144","","f","","","","","","","","./tasks/HMM-beads/Images/NewTrialBC.png","lowH","1","72","0","0","0","0","true","",""
"image-keyboard-response","353","752800","0.0-3.0-6.0-1.0-1.72","5e35de293e64955878774717","6662009ae78f21dd82fcd179","6662024d4cbacf8a8f9eae70","null","","null","","","","","","","","./tasks/HMM-beads/Images/BlackBeadChoice.png","","","","","","","","","",""
"image-keyboard-response","354","753303","0.0-3.0-6.0-1.0-2.72","5e35de293e64955878774717","6662009ae78f21dd82fcd179","6662024d4cbacf8a8f9eae70","null","","null","","","","","","","","./tasks/HMM-beads/Images/BlackBeadChoiceCorrect.png","","","","","","","","","",""
"image-keyboard-response","355","754456","0.0-3.0-6.0-1.0-0.73","5e35de293e64955878774717","6662009ae78f21dd82fcd179","6662024d4cbacf8a8f9eae70","1151","","j","","","","","","","","./tasks/HMM-beads/Images/NewTrialBC.png","lowH","1","73","0","1","0","1","true","",""
"image-keyboard-response","356","754764","0.0-3.0-6.0-1.0-1.73","5e35de293e64955878774717","6662009ae78f21dd82fcd179","6662024d4cbacf8a8f9eae70","null","","null","","","","","","","","./tasks/HMM-beads/Images/WhiteBeadChoice.png","","","","","","","","","",""
"image-keyboard-response","357","755272","0.0-3.0-6.0-1.0-2.73","5e35de293e64955878774717","6662009ae78f21dd82fcd179","6662024d4cbacf8a8f9eae70","null","","null","","","","","","","","./tasks/HMM-beads/Images/WhiteBeadChoiceCorrect.png","","","","","","","","","",""
"image-keyboard-response","358","755717","0.0-3.0-6.0-1.0-0.74","5e35de293e64955878774717","6662009ae78f21dd82fcd179","6662024d4cbacf8a8f9eae70","443","","j","","","","","","","","./tasks/HMM-beads/Images/NewTrialWC.png","lowH","1","74","0","0","1","1","false","",""
"image-keyboard-response","359","756021","0.0-3.0-6.0-1.0-1.74","5e35de293e64955878774717","6662009ae78f21dd82fcd179","6662024d4cbacf8a8f9eae70","null","","null","","","","","","","","./tasks/HMM-beads/Images/WhiteBeadChoice.png","","","","","","","","","",""
"image-keyboard-response","360","756534","0.0-3.0-6.0-1.0-2.74","5e35de293e64955878774717","6662009ae78f21dd82fcd179","6662024d4cbacf8a8f9eae70","null","","null","","","","","","","","./tasks/HMM-beads/Images/WhiteBeadChoiceWrong.png","","","","","","","","","",""
"image-keyboard-response","361","757923","0.0-3.0-6.0-1.0-0.75","5e35de293e64955878774717","6662009ae78f21dd82fcd179","6662024d4cbacf8a8f9eae70","1388","","f","","","","","","","","./tasks/HMM-beads/Images/NewTrialBC.png","lowH","1","75","0","1","0","0","false","",""
"image-keyboard-response","362","758234","0.0-3.0-6.0-1.0-1.75","5e35de293e64955878774717","6662009ae78f21dd82fcd179","6662024d4cbacf8a8f9eae70","null","","null","","","","","","","","./tasks/HMM-beads/Images/BlackBeadChoice.png","","","","","","","","","",""
"image-keyboard-response","363","758740","0.0-3.0-6.0-1.0-2.75","5e35de293e64955878774717","6662009ae78f21dd82fcd179","6662024d4cbacf8a8f9eae70","null","","null","","","","","","","","./tasks/HMM-beads/Images/BlackBeadChoiceWrong.png","","","","","","","","","",""
"image-keyboard-response","364","759295","0.0-3.0-6.0-1.0-0.76","5e35de293e64955878774717","6662009ae78f21dd82fcd179","6662024d4cbacf8a8f9eae70","553","","f","","","","","","","","./tasks/HMM-beads/Images/NewTrialWC.png","lowH","1","76","0","1","1","0","false","",""
"image-keyboard-response","365","759601","0.0-3.0-6.0-1.0-1.76","5e35de293e64955878774717","6662009ae78f21dd82fcd179","6662024d4cbacf8a8f9eae70","null","","null","","","","","","","","./tasks/HMM-beads/Images/BlackBeadChoice.png","","","","","","","","","",""
"image-keyboard-response","366","760114","0.0-3.0-6.0-1.0-2.76","5e35de293e64955878774717","6662009ae78f21dd82fcd179","6662024d4cbacf8a8f9eae70","null","","null","","","","","","","","./tasks/HMM-beads/Images/BlackBeadChoiceWrong.png","","","","","","","","","",""
"image-keyboard-response","367","760275","0.0-3.0-6.0-1.0-0.77","5e35de293e64955878774717","6662009ae78f21dd82fcd179","6662024d4cbacf8a8f9eae70","160","","j","","","","","","","","./tasks/HMM-beads/Images/NewTrialWC.png","lowH","1","77","0","0","1","1","false","",""
"image-keyboard-response","368","760584","0.0-3.0-6.0-1.0-1.77","5e35de293e64955878774717","6662009ae78f21dd82fcd179","6662024d4cbacf8a8f9eae70","null","","null","","","","","","","","./tasks/HMM-beads/Images/WhiteBeadChoice.png","","","","","","","","","",""
"image-keyboard-response","369","761097","0.0-3.0-6.0-1.0-2.77","5e35de293e64955878774717","6662009ae78f21dd82fcd179","6662024d4cbacf8a8f9eae70","null","","null","","","","","","","","./tasks/HMM-beads/Images/WhiteBeadChoiceWrong.png","","","","","","","","","",""
"image-keyboard-response","370","761197","0.0-3.0-6.0-1.0-0.78","5e35de293e64955878774717","6662009ae78f21dd82fcd179","6662024d4cbacf8a8f9eae70","99","","f","","","","","","","","./tasks/HMM-beads/Images/NewTrialBC.png","lowH","1","78","0","0","0","0","true","",""
"image-keyboard-response","371","761506","0.0-3.0-6.0-1.0-1.78","5e35de293e64955878774717","6662009ae78f21dd82fcd179","6662024d4cbacf8a8f9eae70","null","","null","","","","","","","","./tasks/HMM-beads/Images/BlackBeadChoice.png","","","","","","","","","",""
"image-keyboard-response","372","762020","0.0-3.0-6.0-1.0-2.78","5e35de293e64955878774717","6662009ae78f21dd82fcd179","6662024d4cbacf8a8f9eae70","null","","null","","","","","","","","./tasks/HMM-beads/Images/BlackBeadChoiceCorrect.png","","","","","","","","","",""
"image-keyboard-response","373","763507","0.0-3.0-6.0-1.0-0.79","5e35de293e64955878774717","6662009ae78f21dd82fcd179","6662024d4cbacf8a8f9eae70","1486","","f","","","","","","","","./tasks/HMM-beads/Images/NewTrialBC.png","lowH","1","79","0","0","0","0","true","",""
