"trial_type","trial_index","time_elapsed","internal_node_id","subject_id","study_id","session_id","rt","url","response","question_order","view_history","success","timeout","failed_images","failed_audio","failed_video","stimulus","block","block_rep","trial_number","jar","bead","previous_bead","choice","correct","lowH_score","total_bonus"
"pavlovia","0","1497","0.0-0.0","6542923cf0793b2a3dc55d69","666094c154fdc95dca3e206f","66609847712763bf5d53bdf2","","","","","","","","","","","","","","","","","","","","",""
"external-html","1","515349","0.0-1.0-0.0","6542923cf0793b2a3dc55d69","666094c154fdc95dca3e206f","66609847712763bf5d53bdf2","513849","new_consent.html","","","","","","","","","","","","","","","","","","",""
"survey-multi-choice","2","540381","0.0-1.0-1.0","6542923cf0793b2a3dc55d69","666094c154fdc95dca3e206f","66609847712763bf5d53bdf2","25029","","{""Q0"":""Female"",""Q1"":""Hispanic or Latino""}","[0,1]","","","","","","","","","","","","","","","","",""
"survey-text","3","585115","0.0-1.0-2.0","6542923cf0793b2a3dc55d69","666094c154fdc95dca3e206f","66609847712763bf5d53bdf2","44731","","{""Q0"":""40""}","","","","","","","","","","","","","","","","","",""
"instructions","4","587447","0.0-2.0","6542923cf0793b2a3dc55d69","666094c154fdc95dca3e206f","66609847712763bf5d53bdf2","2228","","","","[{""page_index"":0,""viewing_time"":2227}]","","","","","","","","","","","","","","","",""
"preload","5","588934","0.0-3.0-0.0","6542923cf0793b2a3dc55d69","666094c154fdc95dca3e206f","66609847712763bf5d53bdf2","","","","","","true","false","[]","[]","[]","","","","","","","","","","",""
"instructions","6","683929","0.0-3.0-1.0","6542923cf0793b2a3dc55d69","666094c154fdc95dca3e206f","66609847712763bf5d53bdf2","95000","","","","[{""page_index"":0,""viewing_time"":18229},{""page_index"":1,""viewing_time"":5567},{""page_index"":2,""viewing_time"":3117},{""page_index"":3,""viewing_time"":900},{""page_index"":4,""viewing_time"":8883},{""page_index"":5,""viewing_time"":21684},{""page_index"":6,""viewing_time"":5283},{""page_index"":7,""viewing_time"":8868},{""page_index"":8,""viewing_time"":4034},{""page_index"":9,""viewing_time"":8000},{""page_index"":10,""viewing_time"":7117},{""page_index"":11,""viewing_time"":3317}]","","","","","","","","","","","","","","","",""
"html-button-response","7","686812","0.0-3.0-2.0-0.0-0.0","6542923cf0793b2a3dc55d69","666094c154fdc95dca3e206f","66609847712763bf5d53bdf2","2881","","1","","","","","","","","<div align=center>Your goal is to predict…?<br><br></div>","","","","","","","","","",""
"html-button-response","8","695512","0.0-3.0-2.0-1.0-0.0","6542923cf0793b2a3dc55d69","666094c154fdc95dca3e206f","66609847712763bf5d53bdf2","6983","","2","","","","","","","","<div align=center>In the jar with mostly white beads, there are ___% white beads and ___% black beads?<br><br></div>","","","","","","","","","",""
"html-button-response","9","704645","0.0-3.0-2.0-2.0-0.0","6542923cf0793b2a3dc55d69","666094c154fdc95dca3e206f","66609847712763bf5d53bdf2","7915","","1","","","","","","","","<div align=center>When there is a 1% probability that the jars will switch, the next bead will most likely be drawn from the…<br><br></div>","","","","","","","","","",""
"html-button-response","10","707228","0.0-3.0-2.0-2.1-0.1","6542923cf0793b2a3dc55d69","666094c154fdc95dca3e206f","66609847712763bf5d53bdf2","880","","0","","","","","","","","<div align=center>When there is a 1% probability that the jars will switch, the next bead will most likely be drawn from the…<br><br></div>","","","","","","","","","",""
"html-button-response","11","710361","0.0-3.0-2.0-3.0-0.0","6542923cf0793b2a3dc55d69","666094c154fdc95dca3e206f","66609847712763bf5d53bdf2","2048","","1","","","","","","","","<div align=center>When there is a 99% probability that the jars will switch, the next bead will most likely be drawn from the…<br><br></div>","","","","","","","","","",""
"instructions","12","723911","0.0-3.0-3.0","6542923cf0793b2a3dc55d69","666094c154fdc95dca3e206f","66609847712763bf5d53bdf2","12415","","","","[{""page_index"":0,""viewing_time"":12415}]","","","","","","","","","","","","","","","",""
"html-keyboard-response","13","728411","0.0-3.0-4.0-0.0","6542923cf0793b2a3dc55d69","666094c154fdc95dca3e206f","66609847712763bf5d53bdf2","4499",""," ","","","","","","","","<div align=center>In this practice block, there will be a <b>1% chance</b> that the jar on the next trial will be different from the jar on the current trial.<br><br></div>","","","","","","","","","",""
"image-keyboard-response","14","733321","0.0-3.0-4.0-1.0-0.0","6542923cf0793b2a3dc55d69","666094c154fdc95dca3e206f","66609847712763bf5d53bdf2","4906","","f","","","","","","","","./tasks/HMM-beads/Images/NoChoice.png","practice","0","0","0","0","9","0","true","",""
"image-keyboard-response","15","733626","0.0-3.0-4.0-1.0-1.0","6542923cf0793b2a3dc55d69","666094c154fdc95dca3e206f","66609847712763bf5d53bdf2","null","","null","","","","","","","","./tasks/HMM-beads/Images/BlackBeadChoice.png","","","","","","","","","",""
"image-keyboard-response","16","734130","0.0-3.0-4.0-1.0-2.0","6542923cf0793b2a3dc55d69","666094c154fdc95dca3e206f","66609847712763bf5d53bdf2","null","","null","","","","","","","","./tasks/HMM-beads/Images/BlackBeadChoiceCorrect.png","","","","","","","","","",""
"image-keyboard-response","17","737106","0.0-3.0-4.0-1.0-0.1","6542923cf0793b2a3dc55d69","666094c154fdc95dca3e206f","66609847712763bf5d53bdf2","2974","","j","","","","","","","","./tasks/HMM-beads/Images/NewTrialBC.png","practice","0","1","0","0","0","1","false","",""
"image-keyboard-response","18","737409","0.0-3.0-4.0-1.0-1.1","6542923cf0793b2a3dc55d69","666094c154fdc95dca3e206f","66609847712763bf5d53bdf2","null","","null","","","","","","","","./tasks/HMM-beads/Images/WhiteBeadChoice.png","","","","","","","","","",""
"image-keyboard-response","19","737913","0.0-3.0-4.0-1.0-2.1","6542923cf0793b2a3dc55d69","666094c154fdc95dca3e206f","66609847712763bf5d53bdf2","null","","null","","","","","","","","./tasks/HMM-beads/Images/WhiteBeadChoiceWrong.png","","","","","","","","","",""
"image-keyboard-response","20","740805","0.0-3.0-4.0-1.0-0.2","6542923cf0793b2a3dc55d69","666094c154fdc95dca3e206f","66609847712763bf5d53bdf2","2890","","f","","","","","","","","./tasks/HMM-beads/Images/NewTrialBC.png","practice","0","2","0","1","0","0","false","",""
"image-keyboard-response","21","741108","0.0-3.0-4.0-1.0-1.2","6542923cf0793b2a3dc55d69","666094c154fdc95dca3e206f","66609847712763bf5d53bdf2","null","","null","","","","","","","","./tasks/HMM-beads/Images/BlackBeadChoice.png","","","","","","","","","",""
"image-keyboard-response","22","741612","0.0-3.0-4.0-1.0-2.2","6542923cf0793b2a3dc55d69","666094c154fdc95dca3e206f","66609847712763bf5d53bdf2","null","","null","","","","","","","","./tasks/HMM-beads/Images/BlackBeadChoiceWrong.png","","","","","","","","","",""
"image-keyboard-response","23","744831","0.0-3.0-4.0-1.0-0.3","6542923cf0793b2a3dc55d69","666094c154fdc95dca3e206f","66609847712763bf5d53bdf2","3218","","f","","","","","","","","./tasks/HMM-beads/Images/NewTrialWC.png","practice","0","3","0","0","1","0","true","",""
"image-keyboard-response","24","745134","0.0-3.0-4.0-1.0-1.3","6542923cf0793b2a3dc55d69","666094c154fdc95dca3e206f","66609847712763bf5d53bdf2","null","","null","","","","","","","","./tasks/HMM-beads/Images/BlackBeadChoice.png","","","","","","","","","",""
"image-keyboard-response","25","745637","0.0-3.0-4.0-1.0-2.3","6542923cf0793b2a3dc55d69","666094c154fdc95dca3e206f","66609847712763bf5d53bdf2","null","","null","","","","","","","","./tasks/HMM-beads/Images/BlackBeadChoiceCorrect.png","","","","","","","","","",""
"image-keyboard-response","26","747168","0.0-3.0-4.0-1.0-0.4","6542923cf0793b2a3dc55d69","666094c154fdc95dca3e206f","66609847712763bf5d53bdf2","1531","","j","","","","","","","","./tasks/HMM-beads/Images/NewTrialBC.png","practice","0","4","0","0","0","1","false","",""
"image-keyboard-response","27","747470","0.0-3.0-4.0-1.0-1.4","6542923cf0793b2a3dc55d69","666094c154fdc95dca3e206f","66609847712763bf5d53bdf2","null","","null","","","","","","","","./tasks/HMM-beads/Images/WhiteBeadChoice.png","","","","","","","","","",""
"image-keyboard-response","28","747972","0.0-3.0-4.0-1.0-2.4","6542923cf0793b2a3dc55d69","666094c154fdc95dca3e206f","66609847712763bf5d53bdf2","null","","null","","","","","","","","./tasks/HMM-beads/Images/WhiteBeadChoiceWrong.png","","","","","","","","","",""
"image-keyboard-response","29","748969","0.0-3.0-4.0-1.0-0.5","6542923cf0793b2a3dc55d69","666094c154fdc95dca3e206f","66609847712763bf5d53bdf2","995","","j","","","","","","","","./tasks/HMM-beads/Images/NewTrialBC.png","practice","0","5","0","1","0","1","true","",""
"image-keyboard-response","30","749271","0.0-3.0-4.0-1.0-1.5","6542923cf0793b2a3dc55d69","666094c154fdc95dca3e206f","66609847712763bf5d53bdf2","null","","null","","","","","","","","./tasks/HMM-beads/Images/WhiteBeadChoice.png","","","","","","","","","",""
"image-keyboard-response","31","749774","0.0-3.0-4.0-1.0-2.5","6542923cf0793b2a3dc55d69","666094c154fdc95dca3e206f","66609847712763bf5d53bdf2","null","","null","","","","","","","","./tasks/HMM-beads/Images/WhiteBeadChoiceCorrect.png","","","","","","","","","",""
"image-keyboard-response","32","751710","0.0-3.0-4.0-1.0-0.6","6542923cf0793b2a3dc55d69","666094c154fdc95dca3e206f","66609847712763bf5d53bdf2","1935","","f","","","","","","","","./tasks/HMM-beads/Images/NewTrialWC.png","practice","0","6","0","0","1","0","true","",""
"image-keyboard-response","33","752012","0.0-3.0-4.0-1.0-1.6","6542923cf0793b2a3dc55d69","666094c154fdc95dca3e206f","66609847712763bf5d53bdf2","null","","null","","","","","","","","./tasks/HMM-beads/Images/BlackBeadChoice.png","","","","","","","","","",""
"image-keyboard-response","34","752515","0.0-3.0-4.0-1.0-2.6","6542923cf0793b2a3dc55d69","666094c154fdc95dca3e206f","66609847712763bf5d53bdf2","null","","null","","","","","","","","./tasks/HMM-beads/Images/BlackBeadChoiceCorrect.png","","","","","","","","","",""
"image-keyboard-response","35","754759","0.0-3.0-4.0-1.0-0.7","6542923cf0793b2a3dc55d69","666094c154fdc95dca3e206f","66609847712763bf5d53bdf2","2243","","f","","","","","","","","./tasks/HMM-beads/Images/NewTrialBC.png","practice","0","7","0","0","0","0","true","",""
"image-keyboard-response","36","755061","0.0-3.0-4.0-1.0-1.7","6542923cf0793b2a3dc55d69","666094c154fdc95dca3e206f","66609847712763bf5d53bdf2","null","","null","","","","","","","","./tasks/HMM-beads/Images/BlackBeadChoice.png","","","","","","","","","",""
"image-keyboard-response","37","755564","0.0-3.0-4.0-1.0-2.7","6542923cf0793b2a3dc55d69","666094c154fdc95dca3e206f","66609847712763bf5d53bdf2","null","","null","","","","","","","","./tasks/HMM-beads/Images/BlackBeadChoiceCorrect.png","","","","","","","","","",""
"image-keyboard-response","38","756300","0.0-3.0-4.0-1.0-0.8","6542923cf0793b2a3dc55d69","666094c154fdc95dca3e206f","66609847712763bf5d53bdf2","735","","f","","","","","","","","./tasks/HMM-beads/Images/NewTrialBC.png","practice","0","8","0","0","0","0","true","",""
"image-keyboard-response","39","756602","0.0-3.0-4.0-1.0-1.8","6542923cf0793b2a3dc55d69","666094c154fdc95dca3e206f","66609847712763bf5d53bdf2","null","","null","","","","","","","","./tasks/HMM-beads/Images/BlackBeadChoice.png","","","","","","","","","",""
"image-keyboard-response","40","757104","0.0-3.0-4.0-1.0-2.8","6542923cf0793b2a3dc55d69","666094c154fdc95dca3e206f","66609847712763bf5d53bdf2","null","","null","","","","","","","","./tasks/HMM-beads/Images/BlackBeadChoiceCorrect.png","","","","","","","","","",""
"image-keyboard-response","41","757649","0.0-3.0-4.0-1.0-0.9","6542923cf0793b2a3dc55d69","666094c154fdc95dca3e206f","66609847712763bf5d53bdf2","544","","f","","","","","","","","./tasks/HMM-beads/Images/NewTrialBC.png","practice","0","9","0","1","0","0","false","",""
"image-keyboard-response","42","757951","0.0-3.0-4.0-1.0-1.9","6542923cf0793b2a3dc55d69","666094c154fdc95dca3e206f","66609847712763bf5d53bdf2","null","","null","","","","","","","","./tasks/HMM-beads/Images/BlackBeadChoice.png","","","","","","","","","",""
"image-keyboard-response","43","758454","0.0-3.0-4.0-1.0-2.9","6542923cf0793b2a3dc55d69","666094c154fdc95dca3e206f","66609847712763bf5d53bdf2","null","","null","","","","","","","","./tasks/HMM-beads/Images/BlackBeadChoiceWrong.png","","","","","","","","","",""
"image-keyboard-response","44","759394","0.0-3.0-4.0-1.0-0.10","6542923cf0793b2a3dc55d69","666094c154fdc95dca3e206f","66609847712763bf5d53bdf2","939","","j","","","","","","","","./tasks/HMM-beads/Images/NewTrialWC.png","practice","0","10","0","0","1","1","false","",""
"image-keyboard-response","45","759695","0.0-3.0-4.0-1.0-1.10","6542923cf0793b2a3dc55d69","666094c154fdc95dca3e206f","66609847712763bf5d53bdf2","null","","null","","","","","","","","./tasks/HMM-beads/Images/WhiteBeadChoice.png","","","","","","","","","",""
"image-keyboard-response","46","760198","0.0-3.0-4.0-1.0-2.10","6542923cf0793b2a3dc55d69","666094c154fdc95dca3e206f","66609847712763bf5d53bdf2","null","","null","","","","","","","","./tasks/HMM-beads/Images/WhiteBeadChoiceWrong.png","","","","","","","","","",""
"image-keyboard-response","47","761261","0.0-3.0-4.0-1.0-0.11","6542923cf0793b2a3dc55d69","666094c154fdc95dca3e206f","66609847712763bf5d53bdf2","1062","","j","","","","","","","","./tasks/HMM-beads/Images/NewTrialBC.png","practice","0","11","0","1","0","1","true","",""
"image-keyboard-response","48","761568","0.0-3.0-4.0-1.0-1.11","6542923cf0793b2a3dc55d69","666094c154fdc95dca3e206f","66609847712763bf5d53bdf2","null","","null","","","","","","","","./tasks/HMM-beads/Images/WhiteBeadChoice.png","","","","","","","","","",""
"image-keyboard-response","49","762070","0.0-3.0-4.0-1.0-2.11","6542923cf0793b2a3dc55d69","666094c154fdc95dca3e206f","66609847712763bf5d53bdf2","null","","null","","","","","","","","./tasks/HMM-beads/Images/WhiteBeadChoiceCorrect.png","","","","","","","","","",""
"image-keyboard-response","50","763126","0.0-3.0-4.0-1.0-0.12","6542923cf0793b2a3dc55d69","666094c154fdc95dca3e206f","66609847712763bf5d53bdf2","1056","","f","","","","","","","","./tasks/HMM-beads/Images/NewTrialWC.png","practice","0","12","0","0","1","0","true","",""
"image-keyboard-response","51","763428","0.0-3.0-4.0-1.0-1.12","6542923cf0793b2a3dc55d69","666094c154fdc95dca3e206f","66609847712763bf5d53bdf2","null","","null","","","","","","","","./tasks/HMM-beads/Images/BlackBeadChoice.png","","","","","","","","","",""
"image-keyboard-response","52","763931","0.0-3.0-4.0-1.0-2.12","6542923cf0793b2a3dc55d69","666094c154fdc95dca3e206f","66609847712763bf5d53bdf2","null","","null","","","","","","","","./tasks/HMM-beads/Images/BlackBeadChoiceCorrect.png","","","","","","","","","",""
"image-keyboard-response","53","764873","0.0-3.0-4.0-1.0-0.13","6542923cf0793b2a3dc55d69","666094c154fdc95dca3e206f","66609847712763bf5d53bdf2","941","","f","","","","","","","","./tasks/HMM-beads/Images/NewTrialBC.png","practice","0","13","0","0","0","0","true","",""
"image-keyboard-response","54","765176","0.0-3.0-4.0-1.0-1.13","6542923cf0793b2a3dc55d69","666094c154fdc95dca3e206f","66609847712763bf5d53bdf2","null","","null","","","","","","","","./tasks/HMM-beads/Images/BlackBeadChoice.png","","","","","","","","","",""
"image-keyboard-response","55","765680","0.0-3.0-4.0-1.0-2.13","6542923cf0793b2a3dc55d69","666094c154fdc95dca3e206f","66609847712763bf5d53bdf2","null","","null","","","","","","","","./tasks/HMM-beads/Images/BlackBeadChoiceCorrect.png","","","","","","","","","",""
"image-keyboard-response","56","767230","0.0-3.0-4.0-1.0-0.14","6542923cf0793b2a3dc55d69","666094c154fdc95dca3e206f","66609847712763bf5d53bdf2","1549","","f","","","","","","","","./tasks/HMM-beads/Images/NewTrialBC.png","practice","0","14","0","0","0","0","true","",""
"image-keyboard-response","57","767532","0.0-3.0-4.0-1.0-1.14","6542923cf0793b2a3dc55d69","666094c154fdc95dca3e206f","66609847712763bf5d53bdf2","null","","null","","","","","","","","./tasks/HMM-beads/Images/BlackBeadChoice.png","","","","","","","","","",""
"image-keyboard-response","58","768034","0.0-3.0-4.0-1.0-2.14","6542923cf0793b2a3dc55d69","666094c154fdc95dca3e206f","66609847712763bf5d53bdf2","null","","null","","","","","","","","./tasks/HMM-beads/Images/BlackBeadChoiceCorrect.png","","","","","","","","","",""
"image-keyboard-response","59","769488","0.0-3.0-4.0-1.0-0.15","6542923cf0793b2a3dc55d69","666094c154fdc95dca3e206f","66609847712763bf5d53bdf2","1453","","j","","","","","","","","./tasks/HMM-beads/Images/NewTrialBC.png","practice","0","15","0","0","0","1","false","",""
"image-keyboard-response","60","769790","0.0-3.0-4.0-1.0-1.15","6542923cf0793b2a3dc55d69","666094c154fdc95dca3e206f","66609847712763bf5d53bdf2","null","","null","","","","","","","","./tasks/HMM-beads/Images/WhiteBeadChoice.png","","","","","","","","","",""
"image-keyboard-response","61","770298","0.0-3.0-4.0-1.0-2.15","6542923cf0793b2a3dc55d69","666094c154fdc95dca3e206f","66609847712763bf5d53bdf2","null","","null","","","","","","","","./tasks/HMM-beads/Images/WhiteBeadChoiceWrong.png","","","","","","","","","",""
"image-keyboard-response","62","771098","0.0-3.0-4.0-1.0-0.16","6542923cf0793b2a3dc55d69","666094c154fdc95dca3e206f","66609847712763bf5d53bdf2","800","","f","","","","","","","","./tasks/HMM-beads/Images/NewTrialBC.png","practice","0","16","0","0","0","0","true","",""
"image-keyboard-response","63","771401","0.0-3.0-4.0-1.0-1.16","6542923cf0793b2a3dc55d69","666094c154fdc95dca3e206f","66609847712763bf5d53bdf2","null","","null","","","","","","","","./tasks/HMM-beads/Images/BlackBeadChoice.png","","","","","","","","","",""
"image-keyboard-response","64","771903","0.0-3.0-4.0-1.0-2.16","6542923cf0793b2a3dc55d69","666094c154fdc95dca3e206f","66609847712763bf5d53bdf2","null","","null","","","","","","","","./tasks/HMM-beads/Images/BlackBeadChoiceCorrect.png","","","","","","","","","",""
"image-keyboard-response","65","772577","0.0-3.0-4.0-1.0-0.17","6542923cf0793b2a3dc55d69","666094c154fdc95dca3e206f","66609847712763bf5d53bdf2","672","","f","","","","","","","","./tasks/HMM-beads/Images/NewTrialBC.png","practice","0","17","0","0","0","0","true","",""
"image-keyboard-response","66","772879","0.0-3.0-4.0-1.0-1.17","6542923cf0793b2a3dc55d69","666094c154fdc95dca3e206f","66609847712763bf5d53bdf2","null","","null","","","","","","","","./tasks/HMM-beads/Images/BlackBeadChoice.png","","","","","","","","","",""
"image-keyboard-response","67","773381","0.0-3.0-4.0-1.0-2.17","6542923cf0793b2a3dc55d69","666094c154fdc95dca3e206f","66609847712763bf5d53bdf2","null","","null","","","","","","","","./tasks/HMM-beads/Images/BlackBeadChoiceCorrect.png","","","","","","","","","",""
"image-keyboard-response","68","773882","0.0-3.0-4.0-1.0-0.18","6542923cf0793b2a3dc55d69","666094c154fdc95dca3e206f","66609847712763bf5d53bdf2","501","","f","","","","","","","","./tasks/HMM-beads/Images/NewTrialBC.png","practice","0","18","0","1","0","0","false","",""
"image-keyboard-response","69","774185","0.0-3.0-4.0-1.0-1.18","6542923cf0793b2a3dc55d69","666094c154fdc95dca3e206f","66609847712763bf5d53bdf2","null","","null","","","","","","","","./tasks/HMM-beads/Images/BlackBeadChoice.png","","","","","","","","","",""
"image-keyboard-response","70","774687","0.0-3.0-4.0-1.0-2.18","6542923cf0793b2a3dc55d69","666094c154fdc95dca3e206f","66609847712763bf5d53bdf2","null","","null","","","","","","","","./tasks/HMM-beads/Images/BlackBeadChoiceWrong.png","","","","","","","","","",""
"image-keyboard-response","71","775175","0.0-3.0-4.0-1.0-0.19","6542923cf0793b2a3dc55d69","666094c154fdc95dca3e206f","66609847712763bf5d53bdf2","488","","j","","","","","","","","./tasks/HMM-beads/Images/NewTrialWC.png","practice","0","19","0","0","1","1","false","",""
"image-keyboard-response","72","775477","0.0-3.0-4.0-1.0-1.19","6542923cf0793b2a3dc55d69","666094c154fdc95dca3e206f","66609847712763bf5d53bdf2","null","","null","","","","","","","","./tasks/HMM-beads/Images/WhiteBeadChoice.png","","","","","","","","","",""
"image-keyboard-response","73","775980","0.0-3.0-4.0-1.0-2.19","6542923cf0793b2a3dc55d69","666094c154fdc95dca3e206f","66609847712763bf5d53bdf2","null","","null","","","","","","","","./tasks/HMM-beads/Images/WhiteBeadChoiceWrong.png","","","","","","","","","",""
"image-keyboard-response","74","776776","0.0-3.0-4.0-1.0-0.20","6542923cf0793b2a3dc55d69","666094c154fdc95dca3e206f","66609847712763bf5d53bdf2","795","","j","","","","","","","","./tasks/HMM-beads/Images/NewTrialBC.png","practice","0","20","0","0","0","1","false","",""
"image-keyboard-response","75","777078","0.0-3.0-4.0-1.0-1.20","6542923cf0793b2a3dc55d69","666094c154fdc95dca3e206f","66609847712763bf5d53bdf2","null","","null","","","","","","","","./tasks/HMM-beads/Images/WhiteBeadChoice.png","","","","","","","","","",""
"image-keyboard-response","76","777580","0.0-3.0-4.0-1.0-2.20","6542923cf0793b2a3dc55d69","666094c154fdc95dca3e206f","66609847712763bf5d53bdf2","null","","null","","","","","","","","./tasks/HMM-beads/Images/WhiteBeadChoiceWrong.png","","","","","","","","","",""
"image-keyboard-response","77","777935","0.0-3.0-4.0-1.0-0.21","6542923cf0793b2a3dc55d69","666094c154fdc95dca3e206f","66609847712763bf5d53bdf2","354","","f","","","","","","","","./tasks/HMM-beads/Images/NewTrialBC.png","practice","0","21","0","1","0","0","false","",""
"image-keyboard-response","78","778238","0.0-3.0-4.0-1.0-1.21","6542923cf0793b2a3dc55d69","666094c154fdc95dca3e206f","66609847712763bf5d53bdf2","null","","null","","","","","","","","./tasks/HMM-beads/Images/BlackBeadChoice.png","","","","","","","","","",""
"image-keyboard-response","79","778740","0.0-3.0-4.0-1.0-2.21","6542923cf0793b2a3dc55d69","666094c154fdc95dca3e206f","66609847712763bf5d53bdf2","null","","null","","","","","","","","./tasks/HMM-beads/Images/BlackBeadChoiceWrong.png","","","","","","","","","",""
"image-keyboard-response","80","782093","0.0-3.0-4.0-1.0-0.22","6542923cf0793b2a3dc55d69","666094c154fdc95dca3e206f","66609847712763bf5d53bdf2","3352","","j","","","","","","","","./tasks/HMM-beads/Images/NewTrialWC.png","practice","0","22","1","1","1","1","true","",""
"image-keyboard-response","81","782395","0.0-3.0-4.0-1.0-1.22","6542923cf0793b2a3dc55d69","666094c154fdc95dca3e206f","66609847712763bf5d53bdf2","null","","null","","","","","","","","./tasks/HMM-beads/Images/WhiteBeadChoice.png","","","","","","","","","",""
"image-keyboard-response","82","782898","0.0-3.0-4.0-1.0-2.22","6542923cf0793b2a3dc55d69","666094c154fdc95dca3e206f","66609847712763bf5d53bdf2","null","","null","","","","","","","","./tasks/HMM-beads/Images/WhiteBeadChoiceCorrect.png","","","","","","","","","",""
"image-keyboard-response","83","784537","0.0-3.0-4.0-1.0-0.23","6542923cf0793b2a3dc55d69","666094c154fdc95dca3e206f","66609847712763bf5d53bdf2","1639","","j","","","","","","","","./tasks/HMM-beads/Images/NewTrialWC.png","practice","0","23","1","0","1","1","false","",""
"image-keyboard-response","84","784840","0.0-3.0-4.0-1.0-1.23","6542923cf0793b2a3dc55d69","666094c154fdc95dca3e206f","66609847712763bf5d53bdf2","null","","null","","","","","","","","./tasks/HMM-beads/Images/WhiteBeadChoice.png","","","","","","","","","",""
"image-keyboard-response","85","785342","0.0-3.0-4.0-1.0-2.23","6542923cf0793b2a3dc55d69","666094c154fdc95dca3e206f","66609847712763bf5d53bdf2","null","","null","","","","","","","","./tasks/HMM-beads/Images/WhiteBeadChoiceWrong.png","","","","","","","","","",""
"image-keyboard-response","86","786384","0.0-3.0-4.0-1.0-0.24","6542923cf0793b2a3dc55d69","666094c154fdc95dca3e206f","66609847712763bf5d53bdf2","1041","","f","","","","","","","","./tasks/HMM-beads/Images/NewTrialBC.png","practice","0","24","1","1","0","0","false","",""
"image-keyboard-response","87","786690","0.0-3.0-4.0-1.0-1.24","6542923cf0793b2a3dc55d69","666094c154fdc95dca3e206f","66609847712763bf5d53bdf2","null","","null","","","","","","","","./tasks/HMM-beads/Images/BlackBeadChoice.png","","","","","","","","","",""
"image-keyboard-response","88","787194","0.0-3.0-4.0-1.0-2.24","6542923cf0793b2a3dc55d69","666094c154fdc95dca3e206f","66609847712763bf5d53bdf2","null","","null","","","","","","","","./tasks/HMM-beads/Images/BlackBeadChoiceWrong.png","","","","","","","","","",""
"image-keyboard-response","89","788313","0.0-3.0-4.0-1.0-0.25","6542923cf0793b2a3dc55d69","666094c154fdc95dca3e206f","66609847712763bf5d53bdf2","1117","","f","","","","","","","","./tasks/HMM-beads/Images/NewTrialWC.png","practice","0","25","1","1","1","0","false","",""
"image-keyboard-response","90","788616","0.0-3.0-4.0-1.0-1.25","6542923cf0793b2a3dc55d69","666094c154fdc95dca3e206f","66609847712763bf5d53bdf2","null","","null","","","","","","","","./tasks/HMM-beads/Images/BlackBeadChoice.png","","","","","","","","","",""
"image-keyboard-response","91","789119","0.0-3.0-4.0-1.0-2.25","6542923cf0793b2a3dc55d69","666094c154fdc95dca3e206f","66609847712763bf5d53bdf2","null","","null","","","","","","","","./tasks/HMM-beads/Images/BlackBeadChoiceWrong.png","","","","","","","","","",""
"image-keyboard-response","92","790118","0.0-3.0-4.0-1.0-0.26","6542923cf0793b2a3dc55d69","666094c154fdc95dca3e206f","66609847712763bf5d53bdf2","997","","j","","","","","","","","./tasks/HMM-beads/Images/NewTrialWC.png","practice","0","26","1","1","1","1","true","",""
"image-keyboard-response","93","790421","0.0-3.0-4.0-1.0-1.26","6542923cf0793b2a3dc55d69","666094c154fdc95dca3e206f","66609847712763bf5d53bdf2","null","","null","","","","","","","","./tasks/HMM-beads/Images/WhiteBeadChoice.png","","","","","","","","","",""
"image-keyboard-response","94","790924","0.0-3.0-4.0-1.0-2.26","6542923cf0793b2a3dc55d69","666094c154fdc95dca3e206f","66609847712763bf5d53bdf2","null","","null","","","","","","","","./tasks/HMM-beads/Images/WhiteBeadChoiceCorrect.png","","","","","","","","","",""
"image-keyboard-response","95","792243","0.0-3.0-4.0-1.0-0.27","6542923cf0793b2a3dc55d69","666094c154fdc95dca3e206f","66609847712763bf5d53bdf2","1317","","j","","","","","","","","./tasks/HMM-beads/Images/NewTrialWC.png","practice","0","27","1","1","1","1","true","",""
"image-keyboard-response","96","792546","0.0-3.0-4.0-1.0-1.27","6542923cf0793b2a3dc55d69","666094c154fdc95dca3e206f","66609847712763bf5d53bdf2","null","","null","","","","","","","","./tasks/HMM-beads/Images/WhiteBeadChoice.png","","","","","","","","","",""
"image-keyboard-response","97","793049","0.0-3.0-4.0-1.0-2.27","6542923cf0793b2a3dc55d69","666094c154fdc95dca3e206f","66609847712763bf5d53bdf2","null","","null","","","","","","","","./tasks/HMM-beads/Images/WhiteBeadChoiceCorrect.png","","","","","","","","","",""
"image-keyboard-response","98","794042","0.0-3.0-4.0-1.0-0.28","6542923cf0793b2a3dc55d69","666094c154fdc95dca3e206f","66609847712763bf5d53bdf2","992","","j","","","","","","","","./tasks/HMM-beads/Images/NewTrialWC.png","practice","0","28","1","0","1","1","false","",""
"image-keyboard-response","99","794345","0.0-3.0-4.0-1.0-1.28","6542923cf0793b2a3dc55d69","666094c154fdc95dca3e206f","66609847712763bf5d53bdf2","null","","null","","","","","","","","./tasks/HMM-beads/Images/WhiteBeadChoice.png","","","","","","","","","",""
"image-keyboard-response","100","794852","0.0-3.0-4.0-1.0-2.28","6542923cf0793b2a3dc55d69","666094c154fdc95dca3e206f","66609847712763bf5d53bdf2","null","","null","","","","","","","","./tasks/HMM-beads/Images/WhiteBeadChoiceWrong.png","","","","","","","","","",""
"image-keyboard-response","101","795366","0.0-3.0-4.0-1.0-0.29","6542923cf0793b2a3dc55d69","666094c154fdc95dca3e206f","66609847712763bf5d53bdf2","512","","f","","","","","","","","./tasks/HMM-beads/Images/NewTrialBC.png","practice","0","29","1","1","0","0","false","",""
"image-keyboard-response","102","795669","0.0-3.0-4.0-1.0-1.29","6542923cf0793b2a3dc55d69","666094c154fdc95dca3e206f","66609847712763bf5d53bdf2","null","","null","","","","","","","","./tasks/HMM-beads/Images/BlackBeadChoice.png","","","","","","","","","",""
"image-keyboard-response","103","796172","0.0-3.0-4.0-1.0-2.29","6542923cf0793b2a3dc55d69","666094c154fdc95dca3e206f","66609847712763bf5d53bdf2","null","","null","","","","","","","","./tasks/HMM-beads/Images/BlackBeadChoiceWrong.png","","","","","","","","","",""
"image-keyboard-response","104","797120","0.0-3.0-4.0-1.0-0.30","6542923cf0793b2a3dc55d69","666094c154fdc95dca3e206f","66609847712763bf5d53bdf2","946","","j","","","","","","","","./tasks/HMM-beads/Images/NewTrialWC.png","practice","0","30","1","0","1","1","false","",""
"image-keyboard-response","105","797423","0.0-3.0-4.0-1.0-1.30","6542923cf0793b2a3dc55d69","666094c154fdc95dca3e206f","66609847712763bf5d53bdf2","null","","null","","","","","","","","./tasks/HMM-beads/Images/WhiteBeadChoice.png","","","","","","","","","",""
"image-keyboard-response","106","797926","0.0-3.0-4.0-1.0-2.30","6542923cf0793b2a3dc55d69","666094c154fdc95dca3e206f","66609847712763bf5d53bdf2","null","","null","","","","","","","","./tasks/HMM-beads/Images/WhiteBeadChoiceWrong.png","","","","","","","","","",""
"image-keyboard-response","107","799225","0.0-3.0-4.0-1.0-0.31","6542923cf0793b2a3dc55d69","666094c154fdc95dca3e206f","66609847712763bf5d53bdf2","1297","","f","","","","","","","","./tasks/HMM-beads/Images/NewTrialBC.png","practice","0","31","1","1","0","0","false","",""
"image-keyboard-response","108","799528","0.0-3.0-4.0-1.0-1.31","6542923cf0793b2a3dc55d69","666094c154fdc95dca3e206f","66609847712763bf5d53bdf2","null","","null","","","","","","","","./tasks/HMM-beads/Images/BlackBeadChoice.png","","","","","","","","","",""
"image-keyboard-response","109","800032","0.0-3.0-4.0-1.0-2.31","6542923cf0793b2a3dc55d69","666094c154fdc95dca3e206f","66609847712763bf5d53bdf2","null","","null","","","","","","","","./tasks/HMM-beads/Images/BlackBeadChoiceWrong.png","","","","","","","","","",""
"image-keyboard-response","110","801049","0.0-3.0-4.0-1.0-0.32","6542923cf0793b2a3dc55d69","666094c154fdc95dca3e206f","66609847712763bf5d53bdf2","1015","","j","","","","","","","","./tasks/HMM-beads/Images/NewTrialWC.png","practice","0","32","1","1","1","1","true","",""
"image-keyboard-response","111","801352","0.0-3.0-4.0-1.0-1.32","6542923cf0793b2a3dc55d69","666094c154fdc95dca3e206f","66609847712763bf5d53bdf2","null","","null","","","","","","","","./tasks/HMM-beads/Images/WhiteBeadChoice.png","","","","","","","","","",""
"image-keyboard-response","112","801856","0.0-3.0-4.0-1.0-2.32","6542923cf0793b2a3dc55d69","666094c154fdc95dca3e206f","66609847712763bf5d53bdf2","null","","null","","","","","","","","./tasks/HMM-beads/Images/WhiteBeadChoiceCorrect.png","","","","","","","","","",""
"image-keyboard-response","113","805090","0.0-3.0-4.0-1.0-0.33","6542923cf0793b2a3dc55d69","666094c154fdc95dca3e206f","66609847712763bf5d53bdf2","3232","","f","","","","","","","","./tasks/HMM-beads/Images/NewTrialWC.png","practice","0","33","1","1","1","0","false","",""
"image-keyboard-response","114","805394","0.0-3.0-4.0-1.0-1.33","6542923cf0793b2a3dc55d69","666094c154fdc95dca3e206f","66609847712763bf5d53bdf2","null","","null","","","","","","","","./tasks/HMM-beads/Images/BlackBeadChoice.png","","","","","","","","","",""
"image-keyboard-response","115","805898","0.0-3.0-4.0-1.0-2.33","6542923cf0793b2a3dc55d69","666094c154fdc95dca3e206f","66609847712763bf5d53bdf2","null","","null","","","","","","","","./tasks/HMM-beads/Images/BlackBeadChoiceWrong.png","","","","","","","","","",""
"image-keyboard-response","116","806696","0.0-3.0-4.0-1.0-0.34","6542923cf0793b2a3dc55d69","666094c154fdc95dca3e206f","66609847712763bf5d53bdf2","796","","j","","","","","","","","./tasks/HMM-beads/Images/NewTrialWC.png","practice","0","34","1","1","1","1","true","",""
"image-keyboard-response","117","806999","0.0-3.0-4.0-1.0-1.34","6542923cf0793b2a3dc55d69","666094c154fdc95dca3e206f","66609847712763bf5d53bdf2","null","","null","","","","","","","","./tasks/HMM-beads/Images/WhiteBeadChoice.png","","","","","","","","","",""
"image-keyboard-response","118","807502","0.0-3.0-4.0-1.0-2.34","6542923cf0793b2a3dc55d69","666094c154fdc95dca3e206f","66609847712763bf5d53bdf2","null","","null","","","","","","","","./tasks/HMM-beads/Images/WhiteBeadChoiceCorrect.png","","","","","","","","","",""
"image-keyboard-response","119","808064","0.0-3.0-4.0-1.0-0.35","6542923cf0793b2a3dc55d69","666094c154fdc95dca3e206f","66609847712763bf5d53bdf2","561","","j","","","","","","","","./tasks/HMM-beads/Images/NewTrialWC.png","practice","0","35","1","1","1","1","true","",""
"image-keyboard-response","120","808368","0.0-3.0-4.0-1.0-1.35","6542923cf0793b2a3dc55d69","666094c154fdc95dca3e206f","66609847712763bf5d53bdf2","null","","null","","","","","","","","./tasks/HMM-beads/Images/WhiteBeadChoice.png","","","","","","","","","",""
"image-keyboard-response","121","808871","0.0-3.0-4.0-1.0-2.35","6542923cf0793b2a3dc55d69","666094c154fdc95dca3e206f","66609847712763bf5d53bdf2","null","","null","","","","","","","","./tasks/HMM-beads/Images/WhiteBeadChoiceCorrect.png","","","","","","","","","",""
"image-keyboard-response","122","809595","0.0-3.0-4.0-1.0-0.36","6542923cf0793b2a3dc55d69","666094c154fdc95dca3e206f","66609847712763bf5d53bdf2","722","","j","","","","","","","","./tasks/HMM-beads/Images/NewTrialWC.png","practice","0","36","1","0","1","1","false","",""
"image-keyboard-response","123","809898","0.0-3.0-4.0-1.0-1.36","6542923cf0793b2a3dc55d69","666094c154fdc95dca3e206f","66609847712763bf5d53bdf2","null","","null","","","","","","","","./tasks/HMM-beads/Images/WhiteBeadChoice.png","","","","","","","","","",""
"image-keyboard-response","124","810402","0.0-3.0-4.0-1.0-2.36","6542923cf0793b2a3dc55d69","666094c154fdc95dca3e206f","66609847712763bf5d53bdf2","null","","null","","","","","","","","./tasks/HMM-beads/Images/WhiteBeadChoiceWrong.png","","","","","","","","","",""
"image-keyboard-response","125","811221","0.0-3.0-4.0-1.0-0.37","6542923cf0793b2a3dc55d69","666094c154fdc95dca3e206f","66609847712763bf5d53bdf2","817","","f","","","","","","","","./tasks/HMM-beads/Images/NewTrialBC.png","practice","0","37","1","1","0","0","false","",""
"image-keyboard-response","126","811528","0.0-3.0-4.0-1.0-1.37","6542923cf0793b2a3dc55d69","666094c154fdc95dca3e206f","66609847712763bf5d53bdf2","null","","null","","","","","","","","./tasks/HMM-beads/Images/BlackBeadChoice.png","","","","","","","","","",""
"image-keyboard-response","127","812033","0.0-3.0-4.0-1.0-2.37","6542923cf0793b2a3dc55d69","666094c154fdc95dca3e206f","66609847712763bf5d53bdf2","null","","null","","","","","","","","./tasks/HMM-beads/Images/BlackBeadChoiceWrong.png","","","","","","","","","",""
"image-keyboard-response","128","813406","0.0-3.0-4.0-1.0-0.38","6542923cf0793b2a3dc55d69","666094c154fdc95dca3e206f","66609847712763bf5d53bdf2","1372","","f","","","","","","","","./tasks/HMM-beads/Images/NewTrialWC.png","practice","0","38","1","1","1","0","false","",""
"image-keyboard-response","129","813709","0.0-3.0-4.0-1.0-1.38","6542923cf0793b2a3dc55d69","666094c154fdc95dca3e206f","66609847712763bf5d53bdf2","null","","null","","","","","","","","./tasks/HMM-beads/Images/BlackBeadChoice.png","","","","","","","","","",""
"image-keyboard-response","130","814212","0.0-3.0-4.0-1.0-2.38","6542923cf0793b2a3dc55d69","666094c154fdc95dca3e206f","66609847712763bf5d53bdf2","null","","null","","","","","","","","./tasks/HMM-beads/Images/BlackBeadChoiceWrong.png","","","","","","","","","",""
"image-keyboard-response","131","814570","0.0-3.0-4.0-1.0-0.39","6542923cf0793b2a3dc55d69","666094c154fdc95dca3e206f","66609847712763bf5d53bdf2","356","","j","","","","","","","","./tasks/HMM-beads/Images/NewTrialWC.png","practice","0","39","1","1","1","1","true","",""
"image-keyboard-response","132","814872","0.0-3.0-4.0-1.0-1.39","6542923cf0793b2a3dc55d69","666094c154fdc95dca3e206f","66609847712763bf5d53bdf2","null","","null","","","","","","","","./tasks/HMM-beads/Images/WhiteBeadChoice.png","","","","","","","","","",""
"image-keyboard-response","133","815376","0.0-3.0-4.0-1.0-2.39","6542923cf0793b2a3dc55d69","666094c154fdc95dca3e206f","66609847712763bf5d53bdf2","null","","null","","","","","","","","./tasks/HMM-beads/Images/WhiteBeadChoiceCorrect.png","","","","","","","","","",""
"html-keyboard-response","134","818803","0.0-3.0-4.0-2.0","6542923cf0793b2a3dc55d69","666094c154fdc95dca3e206f","66609847712763bf5d53bdf2","3424",""," ","","","","","","","","","","","","","","","","","",""
"instructions","135","844159","0.0-3.0-5.0","6542923cf0793b2a3dc55d69","666094c154fdc95dca3e206f","66609847712763bf5d53bdf2","25355","","","","[{""page_index"":0,""viewing_time"":8387},{""page_index"":1,""viewing_time"":16967}]","","","","","","","","","","","","","","","",""
"html-keyboard-response","136","850239","0.0-3.0-6.0-0.0","6542923cf0793b2a3dc55d69","666094c154fdc95dca3e206f","66609847712763bf5d53bdf2","6079",""," ","","","","","","","","<div align=center>In this block, there will be a <b>1% chance</b> that the jar on the next trial will be different from the jar on the current trial.<br><br></div>","","","","","","","","","",""
"image-keyboard-response","137","852590","0.0-3.0-6.0-1.0-0.0","6542923cf0793b2a3dc55d69","666094c154fdc95dca3e206f","66609847712763bf5d53bdf2","2350","","f","","","","","","","","./tasks/HMM-beads/Images/NoChoice.png","lowH","1","0","1","0","9","0","true","",""
"image-keyboard-response","138","852894","0.0-3.0-6.0-1.0-1.0","6542923cf0793b2a3dc55d69","666094c154fdc95dca3e206f","66609847712763bf5d53bdf2","null","","null","","","","","","","","./tasks/HMM-beads/Images/BlackBeadChoice.png","","","","","","","","","",""
"image-keyboard-response","139","853397","0.0-3.0-6.0-1.0-2.0","6542923cf0793b2a3dc55d69","666094c154fdc95dca3e206f","66609847712763bf5d53bdf2","null","","null","","","","","","","","./tasks/HMM-beads/Images/BlackBeadChoiceCorrect.png","","","","","","","","","",""
"image-keyboard-response","140","853983","0.0-3.0-6.0-1.0-0.1","6542923cf0793b2a3dc55d69","666094c154fdc95dca3e206f","66609847712763bf5d53bdf2","585","","f","","","","","","","","./tasks/HMM-beads/Images/NewTrialBC.png","lowH","1","1","1","1","0","0","false","",""
"image-keyboard-response","141","854287","0.0-3.0-6.0-1.0-1.1","6542923cf0793b2a3dc55d69","666094c154fdc95dca3e206f","66609847712763bf5d53bdf2","null","","null","","","","","","","","./tasks/HMM-beads/Images/BlackBeadChoice.png","","","","","","","","","",""
"image-keyboard-response","142","854795","0.0-3.0-6.0-1.0-2.1","6542923cf0793b2a3dc55d69","666094c154fdc95dca3e206f","66609847712763bf5d53bdf2","null","","null","","","","","","","","./tasks/HMM-beads/Images/BlackBeadChoiceWrong.png","","","","","","","","","",""
"image-keyboard-response","143","855807","0.0-3.0-6.0-1.0-0.2","6542923cf0793b2a3dc55d69","666094c154fdc95dca3e206f","66609847712763bf5d53bdf2","1010","","f","","","","","","","","./tasks/HMM-beads/Images/NewTrialWC.png","lowH","1","2","1","1","1","0","false","",""
"image-keyboard-response","144","856110","0.0-3.0-6.0-1.0-1.2","6542923cf0793b2a3dc55d69","666094c154fdc95dca3e206f","66609847712763bf5d53bdf2","null","","null","","","","","","","","./tasks/HMM-beads/Images/BlackBeadChoice.png","","","","","","","","","",""
"image-keyboard-response","145","856614","0.0-3.0-6.0-1.0-2.2","6542923cf0793b2a3dc55d69","666094c154fdc95dca3e206f","66609847712763bf5d53bdf2","null","","null","","","","","","","","./tasks/HMM-beads/Images/BlackBeadChoiceWrong.png","","","","","","","","","",""
"image-keyboard-response","146","856983","0.0-3.0-6.0-1.0-0.3","6542923cf0793b2a3dc55d69","666094c154fdc95dca3e206f","66609847712763bf5d53bdf2","367","","j","","","","","","","","./tasks/HMM-beads/Images/NewTrialWC.png","lowH","1","3","1","1","1","1","true","",""
"image-keyboard-response","147","857287","0.0-3.0-6.0-1.0-1.3","6542923cf0793b2a3dc55d69","666094c154fdc95dca3e206f","66609847712763bf5d53bdf2","null","","null","","","","","","","","./tasks/HMM-beads/Images/WhiteBeadChoice.png","","","","","","","","","",""
"image-keyboard-response","148","857790","0.0-3.0-6.0-1.0-2.3","6542923cf0793b2a3dc55d69","666094c154fdc95dca3e206f","66609847712763bf5d53bdf2","null","","null","","","","","","","","./tasks/HMM-beads/Images/WhiteBeadChoiceCorrect.png","","","","","","","","","",""
"image-keyboard-response","149","858444","0.0-3.0-6.0-1.0-0.4","6542923cf0793b2a3dc55d69","666094c154fdc95dca3e206f","66609847712763bf5d53bdf2","653","","j","","","","","","","","./tasks/HMM-beads/Images/NewTrialWC.png","lowH","1","4","1","1","1","1","true","",""
"image-keyboard-response","150","858747","0.0-3.0-6.0-1.0-1.4","6542923cf0793b2a3dc55d69","666094c154fdc95dca3e206f","66609847712763bf5d53bdf2","null","","null","","","","","","","","./tasks/HMM-beads/Images/WhiteBeadChoice.png","","","","","","","","","",""
"image-keyboard-response","151","859250","0.0-3.0-6.0-1.0-2.4","6542923cf0793b2a3dc55d69","666094c154fdc95dca3e206f","66609847712763bf5d53bdf2","null","","null","","","","","","","","./tasks/HMM-beads/Images/WhiteBeadChoiceCorrect.png","","","","","","","","","",""
"image-keyboard-response","152","860355","0.0-3.0-6.0-1.0-0.5","6542923cf0793b2a3dc55d69","666094c154fdc95dca3e206f","66609847712763bf5d53bdf2","1104","","j","","","","","","","","./tasks/HMM-beads/Images/NewTrialWC.png","lowH","1","5","1","1","1","1","true","",""
"image-keyboard-response","153","860658","0.0-3.0-6.0-1.0-1.5","6542923cf0793b2a3dc55d69","666094c154fdc95dca3e206f","66609847712763bf5d53bdf2","null","","null","","","","","","","","./tasks/HMM-beads/Images/WhiteBeadChoice.png","","","","","","","","","",""
"image-keyboard-response","154","861161","0.0-3.0-6.0-1.0-2.5","6542923cf0793b2a3dc55d69","666094c154fdc95dca3e206f","66609847712763bf5d53bdf2","null","","null","","","","","","","","./tasks/HMM-beads/Images/WhiteBeadChoiceCorrect.png","","","","","","","","","",""
"image-keyboard-response","155","864873","0.0-3.0-6.0-1.0-0.6","6542923cf0793b2a3dc55d69","666094c154fdc95dca3e206f","66609847712763bf5d53bdf2","3710","","j","","","","","","","","./tasks/HMM-beads/Images/NewTrialWC.png","lowH","1","6","1","0","1","1","false","",""
"image-keyboard-response","156","865175","0.0-3.0-6.0-1.0-1.6","6542923cf0793b2a3dc55d69","666094c154fdc95dca3e206f","66609847712763bf5d53bdf2","null","","null","","","","","","","","./tasks/HMM-beads/Images/WhiteBeadChoice.png","","","","","","","","","",""
"image-keyboard-response","157","865679","0.0-3.0-6.0-1.0-2.6","6542923cf0793b2a3dc55d69","666094c154fdc95dca3e206f","66609847712763bf5d53bdf2","null","","null","","","","","","","","./tasks/HMM-beads/Images/WhiteBeadChoiceWrong.png","","","","","","","","","",""
"image-keyboard-response","158","866041","0.0-3.0-6.0-1.0-0.7","6542923cf0793b2a3dc55d69","666094c154fdc95dca3e206f","66609847712763bf5d53bdf2","361","","f","","","","","","","","./tasks/HMM-beads/Images/NewTrialBC.png","lowH","1","7","1","1","0","0","false","",""
"image-keyboard-response","159","866345","0.0-3.0-6.0-1.0-1.7","6542923cf0793b2a3dc55d69","666094c154fdc95dca3e206f","66609847712763bf5d53bdf2","null","","null","","","","","","","","./tasks/HMM-beads/Images/BlackBeadChoice.png","","","","","","","","","",""
"image-keyboard-response","160","866847","0.0-3.0-6.0-1.0-2.7","6542923cf0793b2a3dc55d69","666094c154fdc95dca3e206f","66609847712763bf5d53bdf2","null","","null","","","","","","","","./tasks/HMM-beads/Images/BlackBeadChoiceWrong.png","","","","","","","","","",""
"image-keyboard-response","161","867288","0.0-3.0-6.0-1.0-0.8","6542923cf0793b2a3dc55d69","666094c154fdc95dca3e206f","66609847712763bf5d53bdf2","439","","j","","","","","","","","./tasks/HMM-beads/Images/NewTrialWC.png","lowH","1","8","1","1","1","1","true","",""
"image-keyboard-response","162","867592","0.0-3.0-6.0-1.0-1.8","6542923cf0793b2a3dc55d69","666094c154fdc95dca3e206f","66609847712763bf5d53bdf2","null","","null","","","","","","","","./tasks/HMM-beads/Images/WhiteBeadChoice.png","","","","","","","","","",""
"image-keyboard-response","163","868094","0.0-3.0-6.0-1.0-2.8","6542923cf0793b2a3dc55d69","666094c154fdc95dca3e206f","66609847712763bf5d53bdf2","null","","null","","","","","","","","./tasks/HMM-beads/Images/WhiteBeadChoiceCorrect.png","","","","","","","","","",""
"image-keyboard-response","164","869070","0.0-3.0-6.0-1.0-0.9","6542923cf0793b2a3dc55d69","666094c154fdc95dca3e206f","66609847712763bf5d53bdf2","974","","j","","","","","","","","./tasks/HMM-beads/Images/NewTrialWC.png","lowH","1","9","1","1","1","1","true","",""
"image-keyboard-response","165","869373","0.0-3.0-6.0-1.0-1.9","6542923cf0793b2a3dc55d69","666094c154fdc95dca3e206f","66609847712763bf5d53bdf2","null","","null","","","","","","","","./tasks/HMM-beads/Images/WhiteBeadChoice.png","","","","","","","","","",""
"image-keyboard-response","166","869876","0.0-3.0-6.0-1.0-2.9","6542923cf0793b2a3dc55d69","666094c154fdc95dca3e206f","66609847712763bf5d53bdf2","null","","null","","","","","","","","./tasks/HMM-beads/Images/WhiteBeadChoiceCorrect.png","","","","","","","","","",""
"image-keyboard-response","167","870514","0.0-3.0-6.0-1.0-0.10","6542923cf0793b2a3dc55d69","666094c154fdc95dca3e206f","66609847712763bf5d53bdf2","636","","j","","","","","","","","./tasks/HMM-beads/Images/NewTrialWC.png","lowH","1","10","1","1","1","1","true","",""
"image-keyboard-response","168","870820","0.0-3.0-6.0-1.0-1.10","6542923cf0793b2a3dc55d69","666094c154fdc95dca3e206f","66609847712763bf5d53bdf2","null","","null","","","","","","","","./tasks/HMM-beads/Images/WhiteBeadChoice.png","","","","","","","","","",""
"image-keyboard-response","169","871324","0.0-3.0-6.0-1.0-2.10","6542923cf0793b2a3dc55d69","666094c154fdc95dca3e206f","66609847712763bf5d53bdf2","null","","null","","","","","","","","./tasks/HMM-beads/Images/WhiteBeadChoiceCorrect.png","","","","","","","","","",""
"image-keyboard-response","170","873789","0.0-3.0-6.0-1.0-0.11","6542923cf0793b2a3dc55d69","666094c154fdc95dca3e206f","66609847712763bf5d53bdf2","2464","","j","","","","","","","","./tasks/HMM-beads/Images/NewTrialWC.png","lowH","1","11","1","1","1","1","true","",""
"image-keyboard-response","171","874091","0.0-3.0-6.0-1.0-1.11","6542923cf0793b2a3dc55d69","666094c154fdc95dca3e206f","66609847712763bf5d53bdf2","null","","null","","","","","","","","./tasks/HMM-beads/Images/WhiteBeadChoice.png","","","","","","","","","",""
"image-keyboard-response","172","874595","0.0-3.0-6.0-1.0-2.11","6542923cf0793b2a3dc55d69","666094c154fdc95dca3e206f","66609847712763bf5d53bdf2","null","","null","","","","","","","","./tasks/HMM-beads/Images/WhiteBeadChoiceCorrect.png","","","","","","","","","",""
"image-keyboard-response","173","875253","0.0-3.0-6.0-1.0-0.12","6542923cf0793b2a3dc55d69","666094c154fdc95dca3e206f","66609847712763bf5d53bdf2","656","","j","","","","","","","","./tasks/HMM-beads/Images/NewTrialWC.png","lowH","1","12","1","1","1","1","true","",""
"image-keyboard-response","174","875557","0.0-3.0-6.0-1.0-1.12","6542923cf0793b2a3dc55d69","666094c154fdc95dca3e206f","66609847712763bf5d53bdf2","null","","null","","","","","","","","./tasks/HMM-beads/Images/WhiteBeadChoice.png","","","","","","","","","",""
"image-keyboard-response","175","876060","0.0-3.0-6.0-1.0-2.12","6542923cf0793b2a3dc55d69","666094c154fdc95dca3e206f","66609847712763bf5d53bdf2","null","","null","","","","","","","","./tasks/HMM-beads/Images/WhiteBeadChoiceCorrect.png","","","","","","","","","",""
"image-keyboard-response","176","876680","0.0-3.0-6.0-1.0-0.13","6542923cf0793b2a3dc55d69","666094c154fdc95dca3e206f","66609847712763bf5d53bdf2","618","","j","","","","","","","","./tasks/HMM-beads/Images/NewTrialWC.png","lowH","1","13","1","0","1","1","false","",""
"image-keyboard-response","177","876983","0.0-3.0-6.0-1.0-1.13","6542923cf0793b2a3dc55d69","666094c154fdc95dca3e206f","66609847712763bf5d53bdf2","null","","null","","","","","","","","./tasks/HMM-beads/Images/WhiteBeadChoice.png","","","","","","","","","",""
"image-keyboard-response","178","877486","0.0-3.0-6.0-1.0-2.13","6542923cf0793b2a3dc55d69","666094c154fdc95dca3e206f","66609847712763bf5d53bdf2","null","","null","","","","","","","","./tasks/HMM-beads/Images/WhiteBeadChoiceWrong.png","","","","","","","","","",""
"image-keyboard-response","179","877842","0.0-3.0-6.0-1.0-0.14","6542923cf0793b2a3dc55d69","666094c154fdc95dca3e206f","66609847712763bf5d53bdf2","354","","f","","","","","","","","./tasks/HMM-beads/Images/NewTrialBC.png","lowH","1","14","1","0","0","0","true","",""
"image-keyboard-response","180","878145","0.0-3.0-6.0-1.0-1.14","6542923cf0793b2a3dc55d69","666094c154fdc95dca3e206f","66609847712763bf5d53bdf2","null","","null","","","","","","","","./tasks/HMM-beads/Images/BlackBeadChoice.png","","","","","","","","","",""
"image-keyboard-response","181","878653","0.0-3.0-6.0-1.0-2.14","6542923cf0793b2a3dc55d69","666094c154fdc95dca3e206f","66609847712763bf5d53bdf2","null","","null","","","","","","","","./tasks/HMM-beads/Images/BlackBeadChoiceCorrect.png","","","","","","","","","",""
"image-keyboard-response","182","879824","0.0-3.0-6.0-1.0-0.15","6542923cf0793b2a3dc55d69","666094c154fdc95dca3e206f","66609847712763bf5d53bdf2","1169","","f","","","","","","","","./tasks/HMM-beads/Images/NewTrialBC.png","lowH","1","15","1","1","0","0","false","",""
"image-keyboard-response","183","880127","0.0-3.0-6.0-1.0-1.15","6542923cf0793b2a3dc55d69","666094c154fdc95dca3e206f","66609847712763bf5d53bdf2","null","","null","","","","","","","","./tasks/HMM-beads/Images/BlackBeadChoice.png","","","","","","","","","",""
"image-keyboard-response","184","880631","0.0-3.0-6.0-1.0-2.15","6542923cf0793b2a3dc55d69","666094c154fdc95dca3e206f","66609847712763bf5d53bdf2","null","","null","","","","","","","","./tasks/HMM-beads/Images/BlackBeadChoiceWrong.png","","","","","","","","","",""
"image-keyboard-response","185","881198","0.0-3.0-6.0-1.0-0.16","6542923cf0793b2a3dc55d69","666094c154fdc95dca3e206f","66609847712763bf5d53bdf2","566","","j","","","","","","","","./tasks/HMM-beads/Images/NewTrialWC.png","lowH","1","16","1","1","1","1","true","",""
"image-keyboard-response","186","881500","0.0-3.0-6.0-1.0-1.16","6542923cf0793b2a3dc55d69","666094c154fdc95dca3e206f","66609847712763bf5d53bdf2","null","","null","","","","","","","","./tasks/HMM-beads/Images/WhiteBeadChoice.png","","","","","","","","","",""
"image-keyboard-response","187","882003","0.0-3.0-6.0-1.0-2.16","6542923cf0793b2a3dc55d69","666094c154fdc95dca3e206f","66609847712763bf5d53bdf2","null","","null","","","","","","","","./tasks/HMM-beads/Images/WhiteBeadChoiceCorrect.png","","","","","","","","","",""
"image-keyboard-response","188","882590","0.0-3.0-6.0-1.0-0.17","6542923cf0793b2a3dc55d69","666094c154fdc95dca3e206f","66609847712763bf5d53bdf2","586","","j","","","","","","","","./tasks/HMM-beads/Images/NewTrialWC.png","lowH","1","17","1","1","1","1","true","",""
"image-keyboard-response","189","882893","0.0-3.0-6.0-1.0-1.17","6542923cf0793b2a3dc55d69","666094c154fdc95dca3e206f","66609847712763bf5d53bdf2","null","","null","","","","","","","","./tasks/HMM-beads/Images/WhiteBeadChoice.png","","","","","","","","","",""
"image-keyboard-response","190","883397","0.0-3.0-6.0-1.0-2.17","6542923cf0793b2a3dc55d69","666094c154fdc95dca3e206f","66609847712763bf5d53bdf2","null","","null","","","","","","","","./tasks/HMM-beads/Images/WhiteBeadChoiceCorrect.png","","","","","","","","","",""
"image-keyboard-response","191","884210","0.0-3.0-6.0-1.0-0.18","6542923cf0793b2a3dc55d69","666094c154fdc95dca3e206f","66609847712763bf5d53bdf2","812","","j","","","","","","","","./tasks/HMM-beads/Images/NewTrialWC.png","lowH","1","18","1","1","1","1","true","",""
"image-keyboard-response","192","884514","0.0-3.0-6.0-1.0-1.18","6542923cf0793b2a3dc55d69","666094c154fdc95dca3e206f","66609847712763bf5d53bdf2","null","","null","","","","","","","","./tasks/HMM-beads/Images/WhiteBeadChoice.png","","","","","","","","","",""
"image-keyboard-response","193","885017","0.0-3.0-6.0-1.0-2.18","6542923cf0793b2a3dc55d69","666094c154fdc95dca3e206f","66609847712763bf5d53bdf2","null","","null","","","","","","","","./tasks/HMM-beads/Images/WhiteBeadChoiceCorrect.png","","","","","","","","","",""
"image-keyboard-response","194","886218","0.0-3.0-6.0-1.0-0.19","6542923cf0793b2a3dc55d69","666094c154fdc95dca3e206f","66609847712763bf5d53bdf2","1199","","f","","","","","","","","./tasks/HMM-beads/Images/NewTrialWC.png","lowH","1","19","1","1","1","0","false","",""
"image-keyboard-response","195","886521","0.0-3.0-6.0-1.0-1.19","6542923cf0793b2a3dc55d69","666094c154fdc95dca3e206f","66609847712763bf5d53bdf2","null","","null","","","","","","","","./tasks/HMM-beads/Images/BlackBeadChoice.png","","","","","","","","","",""
"image-keyboard-response","196","887024","0.0-3.0-6.0-1.0-2.19","6542923cf0793b2a3dc55d69","666094c154fdc95dca3e206f","66609847712763bf5d53bdf2","null","","null","","","","","","","","./tasks/HMM-beads/Images/BlackBeadChoiceWrong.png","","","","","","","","","",""
"image-keyboard-response","197","887549","0.0-3.0-6.0-1.0-0.20","6542923cf0793b2a3dc55d69","666094c154fdc95dca3e206f","66609847712763bf5d53bdf2","522","","j","","","","","","","","./tasks/HMM-beads/Images/NewTrialWC.png","lowH","1","20","1","1","1","1","true","",""
"image-keyboard-response","198","887852","0.0-3.0-6.0-1.0-1.20","6542923cf0793b2a3dc55d69","666094c154fdc95dca3e206f","66609847712763bf5d53bdf2","null","","null","","","","","","","","./tasks/HMM-beads/Images/WhiteBeadChoice.png","","","","","","","","","",""
"image-keyboard-response","199","888355","0.0-3.0-6.0-1.0-2.20","6542923cf0793b2a3dc55d69","666094c154fdc95dca3e206f","66609847712763bf5d53bdf2","null","","null","","","","","","","","./tasks/HMM-beads/Images/WhiteBeadChoiceCorrect.png","","","","","","","","","",""
"image-keyboard-response","200","889060","0.0-3.0-6.0-1.0-0.21","6542923cf0793b2a3dc55d69","666094c154fdc95dca3e206f","66609847712763bf5d53bdf2","703","","j","","","","","","","","./tasks/HMM-beads/Images/NewTrialWC.png","lowH","1","21","1","1","1","1","true","",""
"image-keyboard-response","201","889362","0.0-3.0-6.0-1.0-1.21","6542923cf0793b2a3dc55d69","666094c154fdc95dca3e206f","66609847712763bf5d53bdf2","null","","null","","","","","","","","./tasks/HMM-beads/Images/WhiteBeadChoice.png","","","","","","","","","",""
"image-keyboard-response","202","889865","0.0-3.0-6.0-1.0-2.21","6542923cf0793b2a3dc55d69","666094c154fdc95dca3e206f","66609847712763bf5d53bdf2","null","","null","","","","","","","","./tasks/HMM-beads/Images/WhiteBeadChoiceCorrect.png","","","","","","","","","",""
"image-keyboard-response","203","890947","0.0-3.0-6.0-1.0-0.22","6542923cf0793b2a3dc55d69","666094c154fdc95dca3e206f","66609847712763bf5d53bdf2","1081","","j","","","","","","","","./tasks/HMM-beads/Images/NewTrialWC.png","lowH","1","22","1","1","1","1","true","",""
"image-keyboard-response","204","891250","0.0-3.0-6.0-1.0-1.22","6542923cf0793b2a3dc55d69","666094c154fdc95dca3e206f","66609847712763bf5d53bdf2","null","","null","","","","","","","","./tasks/HMM-beads/Images/WhiteBeadChoice.png","","","","","","","","","",""
"image-keyboard-response","205","891754","0.0-3.0-6.0-1.0-2.22","6542923cf0793b2a3dc55d69","666094c154fdc95dca3e206f","66609847712763bf5d53bdf2","null","","null","","","","","","","","./tasks/HMM-beads/Images/WhiteBeadChoiceCorrect.png","","","","","","","","","",""
"image-keyboard-response","206","892367","0.0-3.0-6.0-1.0-0.23","6542923cf0793b2a3dc55d69","666094c154fdc95dca3e206f","66609847712763bf5d53bdf2","612","","j","","","","","","","","./tasks/HMM-beads/Images/NewTrialWC.png","lowH","1","23","1","1","1","1","true","",""
"image-keyboard-response","207","892674","0.0-3.0-6.0-1.0-1.23","6542923cf0793b2a3dc55d69","666094c154fdc95dca3e206f","66609847712763bf5d53bdf2","null","","null","","","","","","","","./tasks/HMM-beads/Images/WhiteBeadChoice.png","","","","","","","","","",""
"image-keyboard-response","208","893178","0.0-3.0-6.0-1.0-2.23","6542923cf0793b2a3dc55d69","666094c154fdc95dca3e206f","66609847712763bf5d53bdf2","null","","null","","","","","","","","./tasks/HMM-beads/Images/WhiteBeadChoiceCorrect.png","","","","","","","","","",""
"image-keyboard-response","209","894366","0.0-3.0-6.0-1.0-0.24","6542923cf0793b2a3dc55d69","666094c154fdc95dca3e206f","66609847712763bf5d53bdf2","1187","","j","","","","","","","","./tasks/HMM-beads/Images/NewTrialWC.png","lowH","1","24","1","0","1","1","false","",""
"image-keyboard-response","210","894668","0.0-3.0-6.0-1.0-1.24","6542923cf0793b2a3dc55d69","666094c154fdc95dca3e206f","66609847712763bf5d53bdf2","null","","null","","","","","","","","./tasks/HMM-beads/Images/WhiteBeadChoice.png","","","","","","","","","",""
"image-keyboard-response","211","895172","0.0-3.0-6.0-1.0-2.24","6542923cf0793b2a3dc55d69","666094c154fdc95dca3e206f","66609847712763bf5d53bdf2","null","","null","","","","","","","","./tasks/HMM-beads/Images/WhiteBeadChoiceWrong.png","","","","","","","","","",""
"image-keyboard-response","212","895530","0.0-3.0-6.0-1.0-0.25","6542923cf0793b2a3dc55d69","666094c154fdc95dca3e206f","66609847712763bf5d53bdf2","356","","f","","","","","","","","./tasks/HMM-beads/Images/NewTrialBC.png","lowH","1","25","1","1","0","0","false","",""
"image-keyboard-response","213","895833","0.0-3.0-6.0-1.0-1.25","6542923cf0793b2a3dc55d69","666094c154fdc95dca3e206f","66609847712763bf5d53bdf2","null","","null","","","","","","","","./tasks/HMM-beads/Images/BlackBeadChoice.png","","","","","","","","","",""
"image-keyboard-response","214","896337","0.0-3.0-6.0-1.0-2.25","6542923cf0793b2a3dc55d69","666094c154fdc95dca3e206f","66609847712763bf5d53bdf2","null","","null","","","","","","","","./tasks/HMM-beads/Images/BlackBeadChoiceWrong.png","","","","","","","","","",""
"image-keyboard-response","215","896778","0.0-3.0-6.0-1.0-0.26","6542923cf0793b2a3dc55d69","666094c154fdc95dca3e206f","66609847712763bf5d53bdf2","439","","j","","","","","","","","./tasks/HMM-beads/Images/NewTrialWC.png","lowH","1","26","1","0","1","1","false","",""
"image-keyboard-response","216","897080","0.0-3.0-6.0-1.0-1.26","6542923cf0793b2a3dc55d69","666094c154fdc95dca3e206f","66609847712763bf5d53bdf2","null","","null","","","","","","","","./tasks/HMM-beads/Images/WhiteBeadChoice.png","","","","","","","","","",""
"image-keyboard-response","217","897584","0.0-3.0-6.0-1.0-2.26","6542923cf0793b2a3dc55d69","666094c154fdc95dca3e206f","66609847712763bf5d53bdf2","null","","null","","","","","","","","./tasks/HMM-beads/Images/WhiteBeadChoiceWrong.png","","","","","","","","","",""
"image-keyboard-response","218","897638","0.0-3.0-6.0-1.0-0.27","6542923cf0793b2a3dc55d69","666094c154fdc95dca3e206f","66609847712763bf5d53bdf2","52","","f","","","","","","","","./tasks/HMM-beads/Images/NewTrialBC.png","lowH","1","27","1","1","0","0","false","",""
"image-keyboard-response","219","897941","0.0-3.0-6.0-1.0-1.27","6542923cf0793b2a3dc55d69","666094c154fdc95dca3e206f","66609847712763bf5d53bdf2","null","","null","","","","","","","","./tasks/HMM-beads/Images/BlackBeadChoice.png","","","","","","","","","",""
"image-keyboard-response","220","898449","0.0-3.0-6.0-1.0-2.27","6542923cf0793b2a3dc55d69","666094c154fdc95dca3e206f","66609847712763bf5d53bdf2","null","","null","","","","","","","","./tasks/HMM-beads/Images/BlackBeadChoiceWrong.png","","","","","","","","","",""
"image-keyboard-response","221","898867","0.0-3.0-6.0-1.0-0.28","6542923cf0793b2a3dc55d69","666094c154fdc95dca3e206f","66609847712763bf5d53bdf2","415","","j","","","","","","","","./tasks/HMM-beads/Images/NewTrialWC.png","lowH","1","28","1","1","1","1","true","",""
"image-keyboard-response","222","899170","0.0-3.0-6.0-1.0-1.28","6542923cf0793b2a3dc55d69","666094c154fdc95dca3e206f","66609847712763bf5d53bdf2","null","","null","","","","","","","","./tasks/HMM-beads/Images/WhiteBeadChoice.png","","","","","","","","","",""
"image-keyboard-response","223","899673","0.0-3.0-6.0-1.0-2.28","6542923cf0793b2a3dc55d69","666094c154fdc95dca3e206f","66609847712763bf5d53bdf2","null","","null","","","","","","","","./tasks/HMM-beads/Images/WhiteBeadChoiceCorrect.png","","","","","","","","","",""
"image-keyboard-response","224","899999","0.0-3.0-6.0-1.0-0.29","6542923cf0793b2a3dc55d69","666094c154fdc95dca3e206f","66609847712763bf5d53bdf2","325","","j","","","","","","","","./tasks/HMM-beads/Images/NewTrialWC.png","lowH","1","29","1","1","1","1","true","",""
"image-keyboard-response","225","900302","0.0-3.0-6.0-1.0-1.29","6542923cf0793b2a3dc55d69","666094c154fdc95dca3e206f","66609847712763bf5d53bdf2","null","","null","","","","","","","","./tasks/HMM-beads/Images/WhiteBeadChoice.png","","","","","","","","","",""
"image-keyboard-response","226","900805","0.0-3.0-6.0-1.0-2.29","6542923cf0793b2a3dc55d69","666094c154fdc95dca3e206f","66609847712763bf5d53bdf2","null","","null","","","","","","","","./tasks/HMM-beads/Images/WhiteBeadChoiceCorrect.png","","","","","","","","","",""
"image-keyboard-response","227","904181","0.0-3.0-6.0-1.0-0.30","6542923cf0793b2a3dc55d69","666094c154fdc95dca3e206f","66609847712763bf5d53bdf2","3374","","j","","","","","","","","./tasks/HMM-beads/Images/NewTrialWC.png","lowH","1","30","1","1","1","1","true","",""
"image-keyboard-response","228","904483","0.0-3.0-6.0-1.0-1.30","6542923cf0793b2a3dc55d69","666094c154fdc95dca3e206f","66609847712763bf5d53bdf2","null","","null","","","","","","","","./tasks/HMM-beads/Images/WhiteBeadChoice.png","","","","","","","","","",""
"image-keyboard-response","229","904987","0.0-3.0-6.0-1.0-2.30","6542923cf0793b2a3dc55d69","666094c154fdc95dca3e206f","66609847712763bf5d53bdf2","null","","null","","","","","","","","./tasks/HMM-beads/Images/WhiteBeadChoiceCorrect.png","","","","","","","","","",""
"image-keyboard-response","230","905120","0.0-3.0-6.0-1.0-0.31","6542923cf0793b2a3dc55d69","666094c154fdc95dca3e206f","66609847712763bf5d53bdf2","132","","j","","","","","","","","./tasks/HMM-beads/Images/NewTrialWC.png","lowH","1","31","1","1","1","1","true","",""
"image-keyboard-response","231","905423","0.0-3.0-6.0-1.0-1.31","6542923cf0793b2a3dc55d69","666094c154fdc95dca3e206f","66609847712763bf5d53bdf2","null","","null","","","","","","","","./tasks/HMM-beads/Images/WhiteBeadChoice.png","","","","","","","","","",""
"image-keyboard-response","232","905926","0.0-3.0-6.0-1.0-2.31","6542923cf0793b2a3dc55d69","666094c154fdc95dca3e206f","66609847712763bf5d53bdf2","null","","null","","","","","","","","./tasks/HMM-beads/Images/WhiteBeadChoiceCorrect.png","","","","","","","","","",""
"image-keyboard-response","233","907042","0.0-3.0-6.0-1.0-0.32","6542923cf0793b2a3dc55d69","666094c154fdc95dca3e206f","66609847712763bf5d53bdf2","1114","","j","","","","","","","","./tasks/HMM-beads/Images/NewTrialWC.png","lowH","1","32","1","1","1","1","true","",""
"image-keyboard-response","234","907345","0.0-3.0-6.0-1.0-1.32","6542923cf0793b2a3dc55d69","666094c154fdc95dca3e206f","66609847712763bf5d53bdf2","null","","null","","","","","","","","./tasks/HMM-beads/Images/WhiteBeadChoice.png","","","","","","","","","",""
"image-keyboard-response","235","907848","0.0-3.0-6.0-1.0-2.32","6542923cf0793b2a3dc55d69","666094c154fdc95dca3e206f","66609847712763bf5d53bdf2","null","","null","","","","","","","","./tasks/HMM-beads/Images/WhiteBeadChoiceCorrect.png","","","","","","","","","",""
"image-keyboard-response","236","908214","0.0-3.0-6.0-1.0-0.33","6542923cf0793b2a3dc55d69","666094c154fdc95dca3e206f","66609847712763bf5d53bdf2","364","","j","","","","","","","","./tasks/HMM-beads/Images/NewTrialWC.png","lowH","1","33","1","1","1","1","true","",""
"image-keyboard-response","237","908516","0.0-3.0-6.0-1.0-1.33","6542923cf0793b2a3dc55d69","666094c154fdc95dca3e206f","66609847712763bf5d53bdf2","null","","null","","","","","","","","./tasks/HMM-beads/Images/WhiteBeadChoice.png","","","","","","","","","",""
"image-keyboard-response","238","909020","0.0-3.0-6.0-1.0-2.33","6542923cf0793b2a3dc55d69","666094c154fdc95dca3e206f","66609847712763bf5d53bdf2","null","","null","","","","","","","","./tasks/HMM-beads/Images/WhiteBeadChoiceCorrect.png","","","","","","","","","",""
"image-keyboard-response","239","910383","0.0-3.0-6.0-1.0-0.34","6542923cf0793b2a3dc55d69","666094c154fdc95dca3e206f","66609847712763bf5d53bdf2","1362","","j","","","","","","","","./tasks/HMM-beads/Images/NewTrialWC.png","lowH","1","34","1","1","1","1","true","",""
"image-keyboard-response","240","910686","0.0-3.0-6.0-1.0-1.34","6542923cf0793b2a3dc55d69","666094c154fdc95dca3e206f","66609847712763bf5d53bdf2","null","","null","","","","","","","","./tasks/HMM-beads/Images/WhiteBeadChoice.png","","","","","","","","","",""
"image-keyboard-response","241","911189","0.0-3.0-6.0-1.0-2.34","6542923cf0793b2a3dc55d69","666094c154fdc95dca3e206f","66609847712763bf5d53bdf2","null","","null","","","","","","","","./tasks/HMM-beads/Images/WhiteBeadChoiceCorrect.png","","","","","","","","","",""
"image-keyboard-response","242","911836","0.0-3.0-6.0-1.0-0.35","6542923cf0793b2a3dc55d69","666094c154fdc95dca3e206f","66609847712763bf5d53bdf2","645","","j","","","","","","","","./tasks/HMM-beads/Images/NewTrialWC.png","lowH","1","35","1","1","1","1","true","",""
"image-keyboard-response","243","912138","0.0-3.0-6.0-1.0-1.35","6542923cf0793b2a3dc55d69","666094c154fdc95dca3e206f","66609847712763bf5d53bdf2","null","","null","","","","","","","","./tasks/HMM-beads/Images/WhiteBeadChoice.png","","","","","","","","","",""
"image-keyboard-response","244","912642","0.0-3.0-6.0-1.0-2.35","6542923cf0793b2a3dc55d69","666094c154fdc95dca3e206f","66609847712763bf5d53bdf2","null","","null","","","","","","","","./tasks/HMM-beads/Images/WhiteBeadChoiceCorrect.png","","","","","","","","","",""
"image-keyboard-response","245","912666","0.0-3.0-6.0-1.0-0.36","6542923cf0793b2a3dc55d69","666094c154fdc95dca3e206f","66609847712763bf5d53bdf2","23","","j","","","","","","","","./tasks/HMM-beads/Images/NewTrialWC.png","lowH","1","36","1","1","1","1","true","",""
"image-keyboard-response","246","912974","0.0-3.0-6.0-1.0-1.36","6542923cf0793b2a3dc55d69","666094c154fdc95dca3e206f","66609847712763bf5d53bdf2","null","","null","","","","","","","","./tasks/HMM-beads/Images/WhiteBeadChoice.png","","","","","","","","","",""
"image-keyboard-response","247","913478","0.0-3.0-6.0-1.0-2.36","6542923cf0793b2a3dc55d69","666094c154fdc95dca3e206f","66609847712763bf5d53bdf2","null","","null","","","","","","","","./tasks/HMM-beads/Images/WhiteBeadChoiceCorrect.png","","","","","","","","","",""
"image-keyboard-response","248","913961","0.0-3.0-6.0-1.0-0.37","6542923cf0793b2a3dc55d69","666094c154fdc95dca3e206f","66609847712763bf5d53bdf2","482","","j","","","","","","","","./tasks/HMM-beads/Images/NewTrialWC.png","lowH","1","37","1","1","1","1","true","",""
"image-keyboard-response","249","914264","0.0-3.0-6.0-1.0-1.37","6542923cf0793b2a3dc55d69","666094c154fdc95dca3e206f","66609847712763bf5d53bdf2","null","","null","","","","","","","","./tasks/HMM-beads/Images/WhiteBeadChoice.png","","","","","","","","","",""
"image-keyboard-response","250","914766","0.0-3.0-6.0-1.0-2.37","6542923cf0793b2a3dc55d69","666094c154fdc95dca3e206f","66609847712763bf5d53bdf2","null","","null","","","","","","","","./tasks/HMM-beads/Images/WhiteBeadChoiceCorrect.png","","","","","","","","","",""
"image-keyboard-response","251","915574","0.0-3.0-6.0-1.0-0.38","6542923cf0793b2a3dc55d69","666094c154fdc95dca3e206f","66609847712763bf5d53bdf2","806","","j","","","","","","","","./tasks/HMM-beads/Images/NewTrialWC.png","lowH","1","38","1","1","1","1","true","",""
"image-keyboard-response","252","915877","0.0-3.0-6.0-1.0-1.38","6542923cf0793b2a3dc55d69","666094c154fdc95dca3e206f","66609847712763bf5d53bdf2","null","","null","","","","","","","","./tasks/HMM-beads/Images/WhiteBeadChoice.png","","","","","","","","","",""
"image-keyboard-response","253","916380","0.0-3.0-6.0-1.0-2.38","6542923cf0793b2a3dc55d69","666094c154fdc95dca3e206f","66609847712763bf5d53bdf2","null","","null","","","","","","","","./tasks/HMM-beads/Images/WhiteBeadChoiceCorrect.png","","","","","","","","","",""
"image-keyboard-response","254","916602","0.0-3.0-6.0-1.0-0.39","6542923cf0793b2a3dc55d69","666094c154fdc95dca3e206f","66609847712763bf5d53bdf2","219","","j","","","","","","","","./tasks/HMM-beads/Images/NewTrialWC.png","lowH","1","39","1","1","1","1","true","",""
"image-keyboard-response","255","916905","0.0-3.0-6.0-1.0-1.39","6542923cf0793b2a3dc55d69","666094c154fdc95dca3e206f","66609847712763bf5d53bdf2","null","","null","","","","","","","","./tasks/HMM-beads/Images/WhiteBeadChoice.png","","","","","","","","","",""
"image-keyboard-response","256","917409","0.0-3.0-6.0-1.0-2.39","6542923cf0793b2a3dc55d69","666094c154fdc95dca3e206f","66609847712763bf5d53bdf2","null","","null","","","","","","","","./tasks/HMM-beads/Images/WhiteBeadChoiceCorrect.png","","","","","","","","","",""
"image-keyboard-response","257","922267","0.0-3.0-6.0-1.0-0.40","6542923cf0793b2a3dc55d69","666094c154fdc95dca3e206f","66609847712763bf5d53bdf2","4856","","j","","","","","","","","./tasks/HMM-beads/Images/NewTrialWC.png","lowH","1","40","1","1","1","1","true","",""
"image-keyboard-response","258","922569","0.0-3.0-6.0-1.0-1.40","6542923cf0793b2a3dc55d69","666094c154fdc95dca3e206f","66609847712763bf5d53bdf2","null","","null","","","","","","","","./tasks/HMM-beads/Images/WhiteBeadChoice.png","","","","","","","","","",""
"image-keyboard-response","259","923077","0.0-3.0-6.0-1.0-2.40","6542923cf0793b2a3dc55d69","666094c154fdc95dca3e206f","66609847712763bf5d53bdf2","null","","null","","","","","","","","./tasks/HMM-beads/Images/WhiteBeadChoiceCorrect.png","","","","","","","","","",""
"image-keyboard-response","260","924319","0.0-3.0-6.0-1.0-0.41","6542923cf0793b2a3dc55d69","666094c154fdc95dca3e206f","66609847712763bf5d53bdf2","1240","","j","","","","","","","","./tasks/HMM-beads/Images/NewTrialWC.png","lowH","1","41","1","1","1","1","true","",""
"image-keyboard-response","261","924623","0.0-3.0-6.0-1.0-1.41","6542923cf0793b2a3dc55d69","666094c154fdc95dca3e206f","66609847712763bf5d53bdf2","null","","null","","","","","","","","./tasks/HMM-beads/Images/WhiteBeadChoice.png","","","","","","","","","",""
"image-keyboard-response","262","925126","0.0-3.0-6.0-1.0-2.41","6542923cf0793b2a3dc55d69","666094c154fdc95dca3e206f","66609847712763bf5d53bdf2","null","","null","","","","","","","","./tasks/HMM-beads/Images/WhiteBeadChoiceCorrect.png","","","","","","","","","",""
"image-keyboard-response","263","925677","0.0-3.0-6.0-1.0-0.42","6542923cf0793b2a3dc55d69","666094c154fdc95dca3e206f","66609847712763bf5d53bdf2","549","","j","","","","","","","","./tasks/HMM-beads/Images/NewTrialWC.png","lowH","1","42","1","1","1","1","true","",""
"image-keyboard-response","264","925980","0.0-3.0-6.0-1.0-1.42","6542923cf0793b2a3dc55d69","666094c154fdc95dca3e206f","66609847712763bf5d53bdf2","null","","null","","","","","","","","./tasks/HMM-beads/Images/WhiteBeadChoice.png","","","","","","","","","",""
"image-keyboard-response","265","926482","0.0-3.0-6.0-1.0-2.42","6542923cf0793b2a3dc55d69","666094c154fdc95dca3e206f","66609847712763bf5d53bdf2","null","","null","","","","","","","","./tasks/HMM-beads/Images/WhiteBeadChoiceCorrect.png","","","","","","","","","",""
"image-keyboard-response","266","927779","0.0-3.0-6.0-1.0-0.43","6542923cf0793b2a3dc55d69","666094c154fdc95dca3e206f","66609847712763bf5d53bdf2","1295","","j","","","","","","","","./tasks/HMM-beads/Images/NewTrialWC.png","lowH","1","43","1","1","1","1","true","",""
"image-keyboard-response","267","928081","0.0-3.0-6.0-1.0-1.43","6542923cf0793b2a3dc55d69","666094c154fdc95dca3e206f","66609847712763bf5d53bdf2","null","","null","","","","","","","","./tasks/HMM-beads/Images/WhiteBeadChoice.png","","","","","","","","","",""
"image-keyboard-response","268","928584","0.0-3.0-6.0-1.0-2.43","6542923cf0793b2a3dc55d69","666094c154fdc95dca3e206f","66609847712763bf5d53bdf2","null","","null","","","","","","","","./tasks/HMM-beads/Images/WhiteBeadChoiceCorrect.png","","","","","","","","","",""
"image-keyboard-response","269","929181","0.0-3.0-6.0-1.0-0.44","6542923cf0793b2a3dc55d69","666094c154fdc95dca3e206f","66609847712763bf5d53bdf2","594","","j","","","","","","","","./tasks/HMM-beads/Images/NewTrialWC.png","lowH","1","44","1","1","1","1","true","",""
"image-keyboard-response","270","929484","0.0-3.0-6.0-1.0-1.44","6542923cf0793b2a3dc55d69","666094c154fdc95dca3e206f","66609847712763bf5d53bdf2","null","","null","","","","","","","","./tasks/HMM-beads/Images/WhiteBeadChoice.png","","","","","","","","","",""
"image-keyboard-response","271","929987","0.0-3.0-6.0-1.0-2.44","6542923cf0793b2a3dc55d69","666094c154fdc95dca3e206f","66609847712763bf5d53bdf2","null","","null","","","","","","","","./tasks/HMM-beads/Images/WhiteBeadChoiceCorrect.png","","","","","","","","","",""
"image-keyboard-response","272","931007","0.0-3.0-6.0-1.0-0.45","6542923cf0793b2a3dc55d69","666094c154fdc95dca3e206f","66609847712763bf5d53bdf2","1018","","j","","","","","","","","./tasks/HMM-beads/Images/NewTrialWC.png","lowH","1","45","1","1","1","1","true","",""
"image-keyboard-response","273","931310","0.0-3.0-6.0-1.0-1.45","6542923cf0793b2a3dc55d69","666094c154fdc95dca3e206f","66609847712763bf5d53bdf2","null","","null","","","","","","","","./tasks/HMM-beads/Images/WhiteBeadChoice.png","","","","","","","","","",""
"image-keyboard-response","274","931813","0.0-3.0-6.0-1.0-2.45","6542923cf0793b2a3dc55d69","666094c154fdc95dca3e206f","66609847712763bf5d53bdf2","null","","null","","","","","","","","./tasks/HMM-beads/Images/WhiteBeadChoiceCorrect.png","","","","","","","","","",""
"image-keyboard-response","275","932494","0.0-3.0-6.0-1.0-0.46","6542923cf0793b2a3dc55d69","666094c154fdc95dca3e206f","66609847712763bf5d53bdf2","679","","j","","","","","","","","./tasks/HMM-beads/Images/NewTrialWC.png","lowH","1","46","1","1","1","1","true","",""
"image-keyboard-response","276","932798","0.0-3.0-6.0-1.0-1.46","6542923cf0793b2a3dc55d69","666094c154fdc95dca3e206f","66609847712763bf5d53bdf2","null","","null","","","","","","","","./tasks/HMM-beads/Images/WhiteBeadChoice.png","","","","","","","","","",""
"image-keyboard-response","277","933301","0.0-3.0-6.0-1.0-2.46","6542923cf0793b2a3dc55d69","666094c154fdc95dca3e206f","66609847712763bf5d53bdf2","null","","null","","","","","","","","./tasks/HMM-beads/Images/WhiteBeadChoiceCorrect.png","","","","","","","","","",""
"image-keyboard-response","278","934146","0.0-3.0-6.0-1.0-0.47","6542923cf0793b2a3dc55d69","666094c154fdc95dca3e206f","66609847712763bf5d53bdf2","843","","j","","","","","","","","./tasks/HMM-beads/Images/NewTrialWC.png","lowH","1","47","1","0","1","1","false","",""
"image-keyboard-response","279","934449","0.0-3.0-6.0-1.0-1.47","6542923cf0793b2a3dc55d69","666094c154fdc95dca3e206f","66609847712763bf5d53bdf2","null","","null","","","","","","","","./tasks/HMM-beads/Images/WhiteBeadChoice.png","","","","","","","","","",""
"image-keyboard-response","280","934952","0.0-3.0-6.0-1.0-2.47","6542923cf0793b2a3dc55d69","666094c154fdc95dca3e206f","66609847712763bf5d53bdf2","null","","null","","","","","","","","./tasks/HMM-beads/Images/WhiteBeadChoiceWrong.png","","","","","","","","","",""
"image-keyboard-response","281","936932","0.0-3.0-6.0-1.0-0.48","6542923cf0793b2a3dc55d69","666094c154fdc95dca3e206f","66609847712763bf5d53bdf2","1979","","f","","","","","","","","./tasks/HMM-beads/Images/NewTrialBC.png","lowH","1","48","1","0","0","0","true","",""
"image-keyboard-response","282","937235","0.0-3.0-6.0-1.0-1.48","6542923cf0793b2a3dc55d69","666094c154fdc95dca3e206f","66609847712763bf5d53bdf2","null","","null","","","","","","","","./tasks/HMM-beads/Images/BlackBeadChoice.png","","","","","","","","","",""
"image-keyboard-response","283","937738","0.0-3.0-6.0-1.0-2.48","6542923cf0793b2a3dc55d69","666094c154fdc95dca3e206f","66609847712763bf5d53bdf2","null","","null","","","","","","","","./tasks/HMM-beads/Images/BlackBeadChoiceCorrect.png","","","","","","","","","",""
"image-keyboard-response","284","938433","0.0-3.0-6.0-1.0-0.49","6542923cf0793b2a3dc55d69","666094c154fdc95dca3e206f","66609847712763bf5d53bdf2","692","","f","","","","","","","","./tasks/HMM-beads/Images/NewTrialBC.png","lowH","1","49","1","0","0","0","true","",""
"image-keyboard-response","285","938741","0.0-3.0-6.0-1.0-1.49","6542923cf0793b2a3dc55d69","666094c154fdc95dca3e206f","66609847712763bf5d53bdf2","null","","null","","","","","","","","./tasks/HMM-beads/Images/BlackBeadChoice.png","","","","","","","","","",""
"image-keyboard-response","286","939245","0.0-3.0-6.0-1.0-2.49","6542923cf0793b2a3dc55d69","666094c154fdc95dca3e206f","66609847712763bf5d53bdf2","null","","null","","","","","","","","./tasks/HMM-beads/Images/BlackBeadChoiceCorrect.png","","","","","","","","","",""
"image-keyboard-response","287","940653","0.0-3.0-6.0-1.0-0.50","6542923cf0793b2a3dc55d69","666094c154fdc95dca3e206f","66609847712763bf5d53bdf2","1407","","f","","","","","","","","./tasks/HMM-beads/Images/NewTrialBC.png","lowH","1","50","1","1","0","0","false","",""
"image-keyboard-response","288","940956","0.0-3.0-6.0-1.0-1.50","6542923cf0793b2a3dc55d69","666094c154fdc95dca3e206f","66609847712763bf5d53bdf2","null","","null","","","","","","","","./tasks/HMM-beads/Images/BlackBeadChoice.png","","","","","","","","","",""
"image-keyboard-response","289","941459","0.0-3.0-6.0-1.0-2.50","6542923cf0793b2a3dc55d69","666094c154fdc95dca3e206f","66609847712763bf5d53bdf2","null","","null","","","","","","","","./tasks/HMM-beads/Images/BlackBeadChoiceWrong.png","","","","","","","","","",""
"image-keyboard-response","290","942056","0.0-3.0-6.0-1.0-0.51","6542923cf0793b2a3dc55d69","666094c154fdc95dca3e206f","66609847712763bf5d53bdf2","595","","j","","","","","","","","./tasks/HMM-beads/Images/NewTrialWC.png","lowH","1","51","1","1","1","1","true","",""
"image-keyboard-response","291","942359","0.0-3.0-6.0-1.0-1.51","6542923cf0793b2a3dc55d69","666094c154fdc95dca3e206f","66609847712763bf5d53bdf2","null","","null","","","","","","","","./tasks/HMM-beads/Images/WhiteBeadChoice.png","","","","","","","","","",""
"image-keyboard-response","292","942862","0.0-3.0-6.0-1.0-2.51","6542923cf0793b2a3dc55d69","666094c154fdc95dca3e206f","66609847712763bf5d53bdf2","null","","null","","","","","","","","./tasks/HMM-beads/Images/WhiteBeadChoiceCorrect.png","","","","","","","","","",""
"image-keyboard-response","293","943435","0.0-3.0-6.0-1.0-0.52","6542923cf0793b2a3dc55d69","666094c154fdc95dca3e206f","66609847712763bf5d53bdf2","571","","j","","","","","","","","./tasks/HMM-beads/Images/NewTrialWC.png","lowH","1","52","1","1","1","1","true","",""
"image-keyboard-response","294","943738","0.0-3.0-6.0-1.0-1.52","6542923cf0793b2a3dc55d69","666094c154fdc95dca3e206f","66609847712763bf5d53bdf2","null","","null","","","","","","","","./tasks/HMM-beads/Images/WhiteBeadChoice.png","","","","","","","","","",""
"image-keyboard-response","295","944241","0.0-3.0-6.0-1.0-2.52","6542923cf0793b2a3dc55d69","666094c154fdc95dca3e206f","66609847712763bf5d53bdf2","null","","null","","","","","","","","./tasks/HMM-beads/Images/WhiteBeadChoiceCorrect.png","","","","","","","","","",""
"image-keyboard-response","296","944462","0.0-3.0-6.0-1.0-0.53","6542923cf0793b2a3dc55d69","666094c154fdc95dca3e206f","66609847712763bf5d53bdf2","220","","j","","","","","","","","./tasks/HMM-beads/Images/NewTrialWC.png","lowH","1","53","1","1","1","1","true","",""
"image-keyboard-response","297","944765","0.0-3.0-6.0-1.0-1.53","6542923cf0793b2a3dc55d69","666094c154fdc95dca3e206f","66609847712763bf5d53bdf2","null","","null","","","","","","","","./tasks/HMM-beads/Images/WhiteBeadChoice.png","","","","","","","","","",""
"image-keyboard-response","298","945273","0.0-3.0-6.0-1.0-2.53","6542923cf0793b2a3dc55d69","666094c154fdc95dca3e206f","66609847712763bf5d53bdf2","null","","null","","","","","","","","./tasks/HMM-beads/Images/WhiteBeadChoiceCorrect.png","","","","","","","","","",""
"image-keyboard-response","299","945292","0.0-3.0-6.0-1.0-0.54","6542923cf0793b2a3dc55d69","666094c154fdc95dca3e206f","66609847712763bf5d53bdf2","18","","j","","","","","","","","./tasks/HMM-beads/Images/NewTrialWC.png","lowH","1","54","1","1","1","1","true","",""
"image-keyboard-response","300","945594","0.0-3.0-6.0-1.0-1.54","6542923cf0793b2a3dc55d69","666094c154fdc95dca3e206f","66609847712763bf5d53bdf2","null","","null","","","","","","","","./tasks/HMM-beads/Images/WhiteBeadChoice.png","","","","","","","","","",""
"image-keyboard-response","301","946098","0.0-3.0-6.0-1.0-2.54","6542923cf0793b2a3dc55d69","666094c154fdc95dca3e206f","66609847712763bf5d53bdf2","null","","null","","","","","","","","./tasks/HMM-beads/Images/WhiteBeadChoiceCorrect.png","","","","","","","","","",""
"image-keyboard-response","302","947083","0.0-3.0-6.0-1.0-0.55","6542923cf0793b2a3dc55d69","666094c154fdc95dca3e206f","66609847712763bf5d53bdf2","983","","j","","","","","","","","./tasks/HMM-beads/Images/NewTrialWC.png","lowH","1","55","1","1","1","1","true","",""
"image-keyboard-response","303","947386","0.0-3.0-6.0-1.0-1.55","6542923cf0793b2a3dc55d69","666094c154fdc95dca3e206f","66609847712763bf5d53bdf2","null","","null","","","","","","","","./tasks/HMM-beads/Images/WhiteBeadChoice.png","","","","","","","","","",""
"image-keyboard-response","304","947889","0.0-3.0-6.0-1.0-2.55","6542923cf0793b2a3dc55d69","666094c154fdc95dca3e206f","66609847712763bf5d53bdf2","null","","null","","","","","","","","./tasks/HMM-beads/Images/WhiteBeadChoiceCorrect.png","","","","","","","","","",""
"image-keyboard-response","305","948437","0.0-3.0-6.0-1.0-0.56","6542923cf0793b2a3dc55d69","666094c154fdc95dca3e206f","66609847712763bf5d53bdf2","546","","j","","","","","","","","./tasks/HMM-beads/Images/NewTrialWC.png","lowH","1","56","1","1","1","1","true","",""
"image-keyboard-response","306","948740","0.0-3.0-6.0-1.0-1.56","6542923cf0793b2a3dc55d69","666094c154fdc95dca3e206f","66609847712763bf5d53bdf2","null","","null","","","","","","","","./tasks/HMM-beads/Images/WhiteBeadChoice.png","","","","","","","","","",""
"image-keyboard-response","307","949242","0.0-3.0-6.0-1.0-2.56","6542923cf0793b2a3dc55d69","666094c154fdc95dca3e206f","66609847712763bf5d53bdf2","null","","null","","","","","","","","./tasks/HMM-beads/Images/WhiteBeadChoiceCorrect.png","","","","","","","","","",""
"image-keyboard-response","308","949880","0.0-3.0-6.0-1.0-0.57","6542923cf0793b2a3dc55d69","666094c154fdc95dca3e206f","66609847712763bf5d53bdf2","636","","j","","","","","","","","./tasks/HMM-beads/Images/NewTrialWC.png","lowH","1","57","1","1","1","1","true","",""
"image-keyboard-response","309","950183","0.0-3.0-6.0-1.0-1.57","6542923cf0793b2a3dc55d69","666094c154fdc95dca3e206f","66609847712763bf5d53bdf2","null","","null","","","","","","","","./tasks/HMM-beads/Images/WhiteBeadChoice.png","","","","","","","","","",""
"image-keyboard-response","310","950686","0.0-3.0-6.0-1.0-2.57","6542923cf0793b2a3dc55d69","666094c154fdc95dca3e206f","66609847712763bf5d53bdf2","null","","null","","","","","","","","./tasks/HMM-beads/Images/WhiteBeadChoiceCorrect.png","","","","","","","","","",""
"image-keyboard-response","311","950738","0.0-3.0-6.0-1.0-0.58","6542923cf0793b2a3dc55d69","666094c154fdc95dca3e206f","66609847712763bf5d53bdf2","50","","j","","","","","","","","./tasks/HMM-beads/Images/NewTrialWC.png","lowH","1","58","1","1","1","1","true","",""
"image-keyboard-response","312","951042","0.0-3.0-6.0-1.0-1.58","6542923cf0793b2a3dc55d69","666094c154fdc95dca3e206f","66609847712763bf5d53bdf2","null","","null","","","","","","","","./tasks/HMM-beads/Images/WhiteBeadChoice.png","","","","","","","","","",""
"image-keyboard-response","313","951545","0.0-3.0-6.0-1.0-2.58","6542923cf0793b2a3dc55d69","666094c154fdc95dca3e206f","66609847712763bf5d53bdf2","null","","null","","","","","","","","./tasks/HMM-beads/Images/WhiteBeadChoiceCorrect.png","","","","","","","","","",""
"image-keyboard-response","314","951939","0.0-3.0-6.0-1.0-0.59","6542923cf0793b2a3dc55d69","666094c154fdc95dca3e206f","66609847712763bf5d53bdf2","392","","j","","","","","","","","./tasks/HMM-beads/Images/NewTrialWC.png","lowH","1","59","1","0","1","1","false","",""
"image-keyboard-response","315","952241","0.0-3.0-6.0-1.0-1.59","6542923cf0793b2a3dc55d69","666094c154fdc95dca3e206f","66609847712763bf5d53bdf2","null","","null","","","","","","","","./tasks/HMM-beads/Images/WhiteBeadChoice.png","","","","","","","","","",""
"image-keyboard-response","316","952744","0.0-3.0-6.0-1.0-2.59","6542923cf0793b2a3dc55d69","666094c154fdc95dca3e206f","66609847712763bf5d53bdf2","null","","null","","","","","","","","./tasks/HMM-beads/Images/WhiteBeadChoiceWrong.png","","","","","","","","","",""
"image-keyboard-response","317","953783","0.0-3.0-6.0-1.0-0.60","6542923cf0793b2a3dc55d69","666094c154fdc95dca3e206f","66609847712763bf5d53bdf2","1038","","f","","","","","","","","./tasks/HMM-beads/Images/NewTrialBC.png","lowH","1","60","1","1","0","0","false","",""
"image-keyboard-response","318","954087","0.0-3.0-6.0-1.0-1.60","6542923cf0793b2a3dc55d69","666094c154fdc95dca3e206f","66609847712763bf5d53bdf2","null","","null","","","","","","","","./tasks/HMM-beads/Images/BlackBeadChoice.png","","","","","","","","","",""
"image-keyboard-response","319","954590","0.0-3.0-6.0-1.0-2.60","6542923cf0793b2a3dc55d69","666094c154fdc95dca3e206f","66609847712763bf5d53bdf2","null","","null","","","","","","","","./tasks/HMM-beads/Images/BlackBeadChoiceWrong.png","","","","","","","","","",""
"image-keyboard-response","320","955009","0.0-3.0-6.0-1.0-0.61","6542923cf0793b2a3dc55d69","666094c154fdc95dca3e206f","66609847712763bf5d53bdf2","418","","j","","","","","","","","./tasks/HMM-beads/Images/NewTrialWC.png","lowH","1","61","1","1","1","1","true","",""
"image-keyboard-response","321","955312","0.0-3.0-6.0-1.0-1.61","6542923cf0793b2a3dc55d69","666094c154fdc95dca3e206f","66609847712763bf5d53bdf2","null","","null","","","","","","","","./tasks/HMM-beads/Images/WhiteBeadChoice.png","","","","","","","","","",""
"image-keyboard-response","322","955815","0.0-3.0-6.0-1.0-2.61","6542923cf0793b2a3dc55d69","666094c154fdc95dca3e206f","66609847712763bf5d53bdf2","null","","null","","","","","","","","./tasks/HMM-beads/Images/WhiteBeadChoiceCorrect.png","","","","","","","","","",""
"image-keyboard-response","323","963475","0.0-3.0-6.0-1.0-0.62","6542923cf0793b2a3dc55d69","666094c154fdc95dca3e206f","66609847712763bf5d53bdf2","7659","","j","","","","","","","","./tasks/HMM-beads/Images/NewTrialWC.png","lowH","1","62","1","0","1","1","false","",""
"image-keyboard-response","324","963784","0.0-3.0-6.0-1.0-1.62","6542923cf0793b2a3dc55d69","666094c154fdc95dca3e206f","66609847712763bf5d53bdf2","null","","null","","","","","","","","./tasks/HMM-beads/Images/WhiteBeadChoice.png","","","","","","","","","",""
"image-keyboard-response","325","964287","0.0-3.0-6.0-1.0-2.62","6542923cf0793b2a3dc55d69","666094c154fdc95dca3e206f","66609847712763bf5d53bdf2","null","","null","","","","","","","","./tasks/HMM-beads/Images/WhiteBeadChoiceWrong.png","","","","","","","","","",""
"image-keyboard-response","326","964361","0.0-3.0-6.0-1.0-0.63","6542923cf0793b2a3dc55d69","666094c154fdc95dca3e206f","66609847712763bf5d53bdf2","71","","f","","","","","","","","./tasks/HMM-beads/Images/NewTrialBC.png","lowH","1","63","1","1","0","0","false","",""
"image-keyboard-response","327","964663","0.0-3.0-6.0-1.0-1.63","6542923cf0793b2a3dc55d69","666094c154fdc95dca3e206f","66609847712763bf5d53bdf2","null","","null","","","","","","","","./tasks/HMM-beads/Images/BlackBeadChoice.png","","","","","","","","","",""
"image-keyboard-response","328","965167","0.0-3.0-6.0-1.0-2.63","6542923cf0793b2a3dc55d69","666094c154fdc95dca3e206f","66609847712763bf5d53bdf2","null","","null","","","","","","","","./tasks/HMM-beads/Images/BlackBeadChoiceWrong.png","","","","","","","","","",""
"image-keyboard-response","329","965182","0.0-3.0-6.0-1.0-0.64","6542923cf0793b2a3dc55d69","666094c154fdc95dca3e206f","66609847712763bf5d53bdf2","13","","j","","","","","","","","./tasks/HMM-beads/Images/NewTrialWC.png","lowH","1","64","1","1","1","1","true","",""
"image-keyboard-response","330","965485","0.0-3.0-6.0-1.0-1.64","6542923cf0793b2a3dc55d69","666094c154fdc95dca3e206f","66609847712763bf5d53bdf2","null","","null","","","","","","","","./tasks/HMM-beads/Images/WhiteBeadChoice.png","","","","","","","","","",""
"image-keyboard-response","331","965988","0.0-3.0-6.0-1.0-2.64","6542923cf0793b2a3dc55d69","666094c154fdc95dca3e206f","66609847712763bf5d53bdf2","null","","null","","","","","","","","./tasks/HMM-beads/Images/WhiteBeadChoiceCorrect.png","","","","","","","","","",""
"image-keyboard-response","332","966728","0.0-3.0-6.0-1.0-0.65","6542923cf0793b2a3dc55d69","666094c154fdc95dca3e206f","66609847712763bf5d53bdf2","738","","j","","","","","","","","./tasks/HMM-beads/Images/NewTrialWC.png","lowH","1","65","1","1","1","1","true","",""
"image-keyboard-response","333","967032","0.0-3.0-6.0-1.0-1.65","6542923cf0793b2a3dc55d69","666094c154fdc95dca3e206f","66609847712763bf5d53bdf2","null","","null","","","","","","","","./tasks/HMM-beads/Images/WhiteBeadChoice.png","","","","","","","","","",""
"image-keyboard-response","334","967535","0.0-3.0-6.0-1.0-2.65","6542923cf0793b2a3dc55d69","666094c154fdc95dca3e206f","66609847712763bf5d53bdf2","null","","null","","","","","","","","./tasks/HMM-beads/Images/WhiteBeadChoiceCorrect.png","","","","","","","","","",""
"image-keyboard-response","335","968054","0.0-3.0-6.0-1.0-0.66","6542923cf0793b2a3dc55d69","666094c154fdc95dca3e206f","66609847712763bf5d53bdf2","517","","j","","","","","","","","./tasks/HMM-beads/Images/NewTrialWC.png","lowH","1","66","1","1","1","1","true","",""
"image-keyboard-response","336","968357","0.0-3.0-6.0-1.0-1.66","6542923cf0793b2a3dc55d69","666094c154fdc95dca3e206f","66609847712763bf5d53bdf2","null","","null","","","","","","","","./tasks/HMM-beads/Images/WhiteBeadChoice.png","","","","","","","","","",""
"image-keyboard-response","337","968865","0.0-3.0-6.0-1.0-2.66","6542923cf0793b2a3dc55d69","666094c154fdc95dca3e206f","66609847712763bf5d53bdf2","null","","null","","","","","","","","./tasks/HMM-beads/Images/WhiteBeadChoiceCorrect.png","","","","","","","","","",""
"image-keyboard-response","338","969328","0.0-3.0-6.0-1.0-0.67","6542923cf0793b2a3dc55d69","666094c154fdc95dca3e206f","66609847712763bf5d53bdf2","461","","j","","","","","","","","./tasks/HMM-beads/Images/NewTrialWC.png","lowH","1","67","1","0","1","1","false","",""
"image-keyboard-response","339","969631","0.0-3.0-6.0-1.0-1.67","6542923cf0793b2a3dc55d69","666094c154fdc95dca3e206f","66609847712763bf5d53bdf2","null","","null","","","","","","","","./tasks/HMM-beads/Images/WhiteBeadChoice.png","","","","","","","","","",""
"image-keyboard-response","340","970135","0.0-3.0-6.0-1.0-2.67","6542923cf0793b2a3dc55d69","666094c154fdc95dca3e206f","66609847712763bf5d53bdf2","null","","null","","","","","","","","./tasks/HMM-beads/Images/WhiteBeadChoiceWrong.png","","","","","","","","","",""
"image-keyboard-response","341","970428","0.0-3.0-6.0-1.0-0.68","6542923cf0793b2a3dc55d69","666094c154fdc95dca3e206f","66609847712763bf5d53bdf2","292","","f","","","","","","","","./tasks/HMM-beads/Images/NewTrialBC.png","lowH","1","68","1","1","0","0","false","",""
"image-keyboard-response","342","970732","0.0-3.0-6.0-1.0-1.68","6542923cf0793b2a3dc55d69","666094c154fdc95dca3e206f","66609847712763bf5d53bdf2","null","","null","","","","","","","","./tasks/HMM-beads/Images/BlackBeadChoice.png","","","","","","","","","",""
"image-keyboard-response","343","971235","0.0-3.0-6.0-1.0-2.68","6542923cf0793b2a3dc55d69","666094c154fdc95dca3e206f","66609847712763bf5d53bdf2","null","","null","","","","","","","","./tasks/HMM-beads/Images/BlackBeadChoiceWrong.png","","","","","","","","","",""
"image-keyboard-response","344","971743","0.0-3.0-6.0-1.0-0.69","6542923cf0793b2a3dc55d69","666094c154fdc95dca3e206f","66609847712763bf5d53bdf2","507","","j","","","","","","","","./tasks/HMM-beads/Images/NewTrialWC.png","lowH","1","69","0","1","1","1","true","",""
"image-keyboard-response","345","972046","0.0-3.0-6.0-1.0-1.69","6542923cf0793b2a3dc55d69","666094c154fdc95dca3e206f","66609847712763bf5d53bdf2","null","","null","","","","","","","","./tasks/HMM-beads/Images/WhiteBeadChoice.png","","","","","","","","","",""
"image-keyboard-response","346","972549","0.0-3.0-6.0-1.0-2.69","6542923cf0793b2a3dc55d69","666094c154fdc95dca3e206f","66609847712763bf5d53bdf2","null","","null","","","","","","","","./tasks/HMM-beads/Images/WhiteBeadChoiceCorrect.png","","","","","","","","","",""
"image-keyboard-response","347","973294","0.0-3.0-6.0-1.0-0.70","6542923cf0793b2a3dc55d69","666094c154fdc95dca3e206f","66609847712763bf5d53bdf2","743","","j","","","","","","","","./tasks/HMM-beads/Images/NewTrialWC.png","lowH","1","70","0","1","1","1","true","",""
"image-keyboard-response","348","973597","0.0-3.0-6.0-1.0-1.70","6542923cf0793b2a3dc55d69","666094c154fdc95dca3e206f","66609847712763bf5d53bdf2","null","","null","","","","","","","","./tasks/HMM-beads/Images/WhiteBeadChoice.png","","","","","","","","","",""
"image-keyboard-response","349","974100","0.0-3.0-6.0-1.0-2.70","6542923cf0793b2a3dc55d69","666094c154fdc95dca3e206f","66609847712763bf5d53bdf2","null","","null","","","","","","","","./tasks/HMM-beads/Images/WhiteBeadChoiceCorrect.png","","","","","","","","","",""
"image-keyboard-response","350","974218","0.0-3.0-6.0-1.0-0.71","6542923cf0793b2a3dc55d69","666094c154fdc95dca3e206f","66609847712763bf5d53bdf2","116","","j","","","","","","","","./tasks/HMM-beads/Images/NewTrialWC.png","lowH","1","71","0","0","1","1","false","",""
"image-keyboard-response","351","974521","0.0-3.0-6.0-1.0-1.71","6542923cf0793b2a3dc55d69","666094c154fdc95dca3e206f","66609847712763bf5d53bdf2","null","","null","","","","","","","","./tasks/HMM-beads/Images/WhiteBeadChoice.png","","","","","","","","","",""
"image-keyboard-response","352","975024","0.0-3.0-6.0-1.0-2.71","6542923cf0793b2a3dc55d69","666094c154fdc95dca3e206f","66609847712763bf5d53bdf2","null","","null","","","","","","","","./tasks/HMM-beads/Images/WhiteBeadChoiceWrong.png","","","","","","","","","",""
"image-keyboard-response","353","975115","0.0-3.0-6.0-1.0-0.72","6542923cf0793b2a3dc55d69","666094c154fdc95dca3e206f","66609847712763bf5d53bdf2","89","","f","","","","","","","","./tasks/HMM-beads/Images/NewTrialBC.png","lowH","1","72","0","0","0","0","true","",""
"image-keyboard-response","354","975418","0.0-3.0-6.0-1.0-1.72","6542923cf0793b2a3dc55d69","666094c154fdc95dca3e206f","66609847712763bf5d53bdf2","null","","null","","","","","","","","./tasks/HMM-beads/Images/BlackBeadChoice.png","","","","","","","","","",""
"image-keyboard-response","355","975921","0.0-3.0-6.0-1.0-2.72","6542923cf0793b2a3dc55d69","666094c154fdc95dca3e206f","66609847712763bf5d53bdf2","null","","null","","","","","","","","./tasks/HMM-beads/Images/BlackBeadChoiceCorrect.png","","","","","","","","","",""
"image-keyboard-response","356","975944","0.0-3.0-6.0-1.0-0.73","6542923cf0793b2a3dc55d69","666094c154fdc95dca3e206f","66609847712763bf5d53bdf2","20","","f","","","","","","","","./tasks/HMM-beads/Images/NewTrialBC.png","lowH","1","73","0","1","0","0","false","",""
"image-keyboard-response","357","976246","0.0-3.0-6.0-1.0-1.73","6542923cf0793b2a3dc55d69","666094c154fdc95dca3e206f","66609847712763bf5d53bdf2","null","","null","","","","","","","","./tasks/HMM-beads/Images/BlackBeadChoice.png","","","","","","","","","",""
"image-keyboard-response","358","976749","0.0-3.0-6.0-1.0-2.73","6542923cf0793b2a3dc55d69","666094c154fdc95dca3e206f","66609847712763bf5d53bdf2","null","","null","","","","","","","","./tasks/HMM-beads/Images/BlackBeadChoiceWrong.png","","","","","","","","","",""
"image-keyboard-response","359","977134","0.0-3.0-6.0-1.0-0.74","6542923cf0793b2a3dc55d69","666094c154fdc95dca3e206f","66609847712763bf5d53bdf2","384","","j","","","","","","","","./tasks/HMM-beads/Images/NewTrialWC.png","lowH","1","74","0","0","1","1","false","",""
"image-keyboard-response","360","977438","0.0-3.0-6.0-1.0-1.74","6542923cf0793b2a3dc55d69","666094c154fdc95dca3e206f","66609847712763bf5d53bdf2","null","","null","","","","","","","","./tasks/HMM-beads/Images/WhiteBeadChoice.png","","","","","","","","","",""
"image-keyboard-response","361","977941","0.0-3.0-6.0-1.0-2.74","6542923cf0793b2a3dc55d69","666094c154fdc95dca3e206f","66609847712763bf5d53bdf2","null","","null","","","","","","","","./tasks/HMM-beads/Images/WhiteBeadChoiceWrong.png","","","","","","","","","",""
"image-keyboard-response","362","977983","0.0-3.0-6.0-1.0-0.75","6542923cf0793b2a3dc55d69","666094c154fdc95dca3e206f","66609847712763bf5d53bdf2","39","","f","","","","","","","","./tasks/HMM-beads/Images/NewTrialBC.png","lowH","1","75","0","1","0","0","false","",""
"image-keyboard-response","363","978290","0.0-3.0-6.0-1.0-1.75","6542923cf0793b2a3dc55d69","666094c154fdc95dca3e206f","66609847712763bf5d53bdf2","null","","null","","","","","","","","./tasks/HMM-beads/Images/BlackBeadChoice.png","","","","","","","","","",""
"image-keyboard-response","364","978793","0.0-3.0-6.0-1.0-2.75","6542923cf0793b2a3dc55d69","666094c154fdc95dca3e206f","66609847712763bf5d53bdf2","null","","null","","","","","","","","./tasks/HMM-beads/Images/BlackBeadChoiceWrong.png","","","","","","","","","",""
"image-keyboard-response","365","979064","0.0-3.0-6.0-1.0-0.76","6542923cf0793b2a3dc55d69","666094c154fdc95dca3e206f","66609847712763bf5d53bdf2","269","","j","","","","","","","","./tasks/HMM-beads/Images/NewTrialWC.png","lowH","1","76","0","1","1","1","true","",""
"image-keyboard-response","366","979367","0.0-3.0-6.0-1.0-1.76","6542923cf0793b2a3dc55d69","666094c154fdc95dca3e206f","66609847712763bf5d53bdf2","null","","null","","","","","","","","./tasks/HMM-beads/Images/WhiteBeadChoice.png","","","","","","","","","",""
"image-keyboard-response","367","979870","0.0-3.0-6.0-1.0-2.76","6542923cf0793b2a3dc55d69","666094c154fdc95dca3e206f","66609847712763bf5d53bdf2","null","","null","","","","","","","","./tasks/HMM-beads/Images/WhiteBeadChoiceCorrect.png","","","","","","","","","",""
"image-keyboard-response","368","980057","0.0-3.0-6.0-1.0-0.77","6542923cf0793b2a3dc55d69","666094c154fdc95dca3e206f","66609847712763bf5d53bdf2","185","","j","","","","","","","","./tasks/HMM-beads/Images/NewTrialWC.png","lowH","1","77","0","0","1","1","false","",""
"image-keyboard-response","369","980360","0.0-3.0-6.0-1.0-1.77","6542923cf0793b2a3dc55d69","666094c154fdc95dca3e206f","66609847712763bf5d53bdf2","null","","null","","","","","","","","./tasks/HMM-beads/Images/WhiteBeadChoice.png","","","","","","","","","",""
"image-keyboard-response","370","980863","0.0-3.0-6.0-1.0-2.77","6542923cf0793b2a3dc55d69","666094c154fdc95dca3e206f","66609847712763bf5d53bdf2","null","","null","","","","","","","","./tasks/HMM-beads/Images/WhiteBeadChoiceWrong.png","","","","","","","","","",""
"image-keyboard-response","371","982281","0.0-3.0-6.0-1.0-0.78","6542923cf0793b2a3dc55d69","666094c154fdc95dca3e206f","66609847712763bf5d53bdf2","1416","","j","","","","","","","","./tasks/HMM-beads/Images/NewTrialBC.png","lowH","1","78","0","0","0","1","false","",""
"image-keyboard-response","372","982583","0.0-3.0-6.0-1.0-1.78","6542923cf0793b2a3dc55d69","666094c154fdc95dca3e206f","66609847712763bf5d53bdf2","null","","null","","","","","","","","./tasks/HMM-beads/Images/WhiteBeadChoice.png","","","","","","","","","",""
"image-keyboard-response","373","983087","0.0-3.0-6.0-1.0-2.78","6542923cf0793b2a3dc55d69","666094c154fdc95dca3e206f","66609847712763bf5d53bdf2","null","","null","","","","","","","","./tasks/HMM-beads/Images/WhiteBeadChoiceWrong.png","","","","","","","","","",""
"image-keyboard-response","374","983171","0.0-3.0-6.0-1.0-0.79","6542923cf0793b2a3dc55d69","666094c154fdc95dca3e206f","66609847712763bf5d53bdf2","82","","f","","","","","","","","./tasks/HMM-beads/Images/NewTrialBC.png","lowH","1","79","0","0","0","0","true","",""
