"trial_type","trial_index","time_elapsed","internal_node_id","subject_id","study_id","session_id","rt","url","response","question_order","view_history","success","timeout","failed_images","failed_audio","failed_video","stimulus","block","block_rep","trial_number","jar","bead","previous_bead","choice","correct","lowH_score","total_bonus"
"pavlovia","0","1047","0.0-0.0","64231dd75feb7c5e16e3d869","666094c154fdc95dca3e206f","6660967fda8ceb61b53d4f5e","","","","","","","","","","","","","","","","","","","","",""
"external-html","1","17459","0.0-1.0-0.0","64231dd75feb7c5e16e3d869","666094c154fdc95dca3e206f","6660967fda8ceb61b53d4f5e","16286","new_consent.html","","","","","","","","","","","","","","","","","","",""
"survey-multi-choice","2","24668","0.0-1.0-1.0","64231dd75feb7c5e16e3d869","666094c154fdc95dca3e206f","6660967fda8ceb61b53d4f5e","7207","","{""Q0"":""Female"",""Q1"":""White""}","[0,1]","","","","","","","","","","","","","","","","",""
"survey-text","3","27837","0.0-1.0-2.0","64231dd75feb7c5e16e3d869","666094c154fdc95dca3e206f","6660967fda8ceb61b53d4f5e","3161","","{""Q0"":""33""}","","","","","","","","","","","","","","","","","",""
"instructions","4","30837","0.0-2.0","64231dd75feb7c5e16e3d869","666094c154fdc95dca3e206f","6660967fda8ceb61b53d4f5e","2897","","","","[{""page_index"":0,""viewing_time"":2897}]","","","","","","","","","","","","","","","",""
"preload","5","32179","0.0-3.0-0.0","64231dd75feb7c5e16e3d869","666094c154fdc95dca3e206f","6660967fda8ceb61b53d4f5e","","","","","","true","false","[]","[]","[]","","","","","","","","","","",""
"instructions","6","143805","0.0-3.0-1.0","64231dd75feb7c5e16e3d869","666094c154fdc95dca3e206f","6660967fda8ceb61b53d4f5e","111626","","","","[{""page_index"":0,""viewing_time"":23852},{""page_index"":1,""viewing_time"":6764},{""page_index"":2,""viewing_time"":4500},{""page_index"":3,""viewing_time"":2317},{""page_index"":4,""viewing_time"":7884},{""page_index"":5,""viewing_time"":18462},{""page_index"":6,""viewing_time"":6739},{""page_index"":7,""viewing_time"":6571},{""page_index"":8,""viewing_time"":16531},{""page_index"":9,""viewing_time"":7773},{""page_index"":10,""viewing_time"":7472},{""page_index"":11,""viewing_time"":2761}]","","","","","","","","","","","","","","","",""
"html-button-response","7","147377","0.0-3.0-2.0-0.0-0.0","64231dd75feb7c5e16e3d869","666094c154fdc95dca3e206f","6660967fda8ceb61b53d4f5e","3571","","1","","","","","","","","<div align=center>Your goal is to predict…?<br><br></div>","","","","","","","","","",""
"html-button-response","8","157432","0.0-3.0-2.0-1.0-0.0","64231dd75feb7c5e16e3d869","666094c154fdc95dca3e206f","6660967fda8ceb61b53d4f5e","8261","","2","","","","","","","","<div align=center>In the jar with mostly white beads, there are ___% white beads and ___% black beads?<br><br></div>","","","","","","","","","",""
"html-button-response","9","163726","0.0-3.0-2.0-2.0-0.0","64231dd75feb7c5e16e3d869","666094c154fdc95dca3e206f","6660967fda8ceb61b53d4f5e","5016","","1","","","","","","","","<div align=center>When there is a 1% probability that the jars will switch, the next bead will most likely be drawn from the…<br><br></div>","","","","","","","","","",""
"html-button-response","10","166069","0.0-3.0-2.0-2.1-0.1","64231dd75feb7c5e16e3d869","666094c154fdc95dca3e206f","6660967fda8ceb61b53d4f5e","878","","0","","","","","","","","<div align=center>When there is a 1% probability that the jars will switch, the next bead will most likely be drawn from the…<br><br></div>","","","","","","","","","",""
"html-button-response","11","173409","0.0-3.0-2.0-3.0-0.0","64231dd75feb7c5e16e3d869","666094c154fdc95dca3e206f","6660967fda8ceb61b53d4f5e","5388","","1","","","","","","","","<div align=center>When there is a 99% probability that the jars will switch, the next bead will most likely be drawn from the…<br><br></div>","","","","","","","","","",""
"instructions","12","185771","0.0-3.0-3.0","64231dd75feb7c5e16e3d869","666094c154fdc95dca3e206f","6660967fda8ceb61b53d4f5e","11195","","","","[{""page_index"":0,""viewing_time"":11195}]","","","","","","","","","","","","","","","",""
"html-keyboard-response","13","191265","0.0-3.0-4.0-0.0","64231dd75feb7c5e16e3d869","666094c154fdc95dca3e206f","6660967fda8ceb61b53d4f5e","5492",""," ","","","","","","","","<div align=center>In this practice block, there will be a <b>1% chance</b> that the jar on the next trial will be different from the jar on the current trial.<br><br></div>","","","","","","","","","",""
"image-keyboard-response","14","194216","0.0-3.0-4.0-1.0-0.0","64231dd75feb7c5e16e3d869","666094c154fdc95dca3e206f","6660967fda8ceb61b53d4f5e","2944","","f","","","","","","","","./tasks/HMM-beads/Images/NoChoice.png","practice","0","0","0","0","9","0","true","",""
"image-keyboard-response","15","194527","0.0-3.0-4.0-1.0-1.0","64231dd75feb7c5e16e3d869","666094c154fdc95dca3e206f","6660967fda8ceb61b53d4f5e","null","","null","","","","","","","","./tasks/HMM-beads/Images/BlackBeadChoice.png","","","","","","","","","",""
"image-keyboard-response","16","195029","0.0-3.0-4.0-1.0-2.0","64231dd75feb7c5e16e3d869","666094c154fdc95dca3e206f","6660967fda8ceb61b53d4f5e","null","","null","","","","","","","","./tasks/HMM-beads/Images/BlackBeadChoiceCorrect.png","","","","","","","","","",""
"image-keyboard-response","17","197800","0.0-3.0-4.0-1.0-0.1","64231dd75feb7c5e16e3d869","666094c154fdc95dca3e206f","6660967fda8ceb61b53d4f5e","2769","","j","","","","","","","","./tasks/HMM-beads/Images/NewTrialBC.png","practice","0","1","0","0","0","1","false","",""
"image-keyboard-response","18","198109","0.0-3.0-4.0-1.0-1.1","64231dd75feb7c5e16e3d869","666094c154fdc95dca3e206f","6660967fda8ceb61b53d4f5e","null","","null","","","","","","","","./tasks/HMM-beads/Images/WhiteBeadChoice.png","","","","","","","","","",""
"image-keyboard-response","19","198613","0.0-3.0-4.0-1.0-2.1","64231dd75feb7c5e16e3d869","666094c154fdc95dca3e206f","6660967fda8ceb61b53d4f5e","null","","null","","","","","","","","./tasks/HMM-beads/Images/WhiteBeadChoiceWrong.png","","","","","","","","","",""
"image-keyboard-response","20","199906","0.0-3.0-4.0-1.0-0.2","64231dd75feb7c5e16e3d869","666094c154fdc95dca3e206f","6660967fda8ceb61b53d4f5e","1291","","j","","","","","","","","./tasks/HMM-beads/Images/NewTrialBC.png","practice","0","2","0","1","0","1","true","",""
"image-keyboard-response","21","200209","0.0-3.0-4.0-1.0-1.2","64231dd75feb7c5e16e3d869","666094c154fdc95dca3e206f","6660967fda8ceb61b53d4f5e","null","","null","","","","","","","","./tasks/HMM-beads/Images/WhiteBeadChoice.png","","","","","","","","","",""
"image-keyboard-response","22","200727","0.0-3.0-4.0-1.0-2.2","64231dd75feb7c5e16e3d869","666094c154fdc95dca3e206f","6660967fda8ceb61b53d4f5e","null","","null","","","","","","","","./tasks/HMM-beads/Images/WhiteBeadChoiceCorrect.png","","","","","","","","","",""
"image-keyboard-response","23","202194","0.0-3.0-4.0-1.0-0.3","64231dd75feb7c5e16e3d869","666094c154fdc95dca3e206f","6660967fda8ceb61b53d4f5e","1465","","f","","","","","","","","./tasks/HMM-beads/Images/NewTrialWC.png","practice","0","3","0","0","1","0","true","",""
"image-keyboard-response","24","202507","0.0-3.0-4.0-1.0-1.3","64231dd75feb7c5e16e3d869","666094c154fdc95dca3e206f","6660967fda8ceb61b53d4f5e","null","","null","","","","","","","","./tasks/HMM-beads/Images/BlackBeadChoice.png","","","","","","","","","",""
"image-keyboard-response","25","203011","0.0-3.0-4.0-1.0-2.3","64231dd75feb7c5e16e3d869","666094c154fdc95dca3e206f","6660967fda8ceb61b53d4f5e","null","","null","","","","","","","","./tasks/HMM-beads/Images/BlackBeadChoiceCorrect.png","","","","","","","","","",""
"image-keyboard-response","26","204598","0.0-3.0-4.0-1.0-0.4","64231dd75feb7c5e16e3d869","666094c154fdc95dca3e206f","6660967fda8ceb61b53d4f5e","1585","","f","","","","","","","","./tasks/HMM-beads/Images/NewTrialBC.png","practice","0","4","0","0","0","0","true","",""
"image-keyboard-response","27","204909","0.0-3.0-4.0-1.0-1.4","64231dd75feb7c5e16e3d869","666094c154fdc95dca3e206f","6660967fda8ceb61b53d4f5e","null","","null","","","","","","","","./tasks/HMM-beads/Images/BlackBeadChoice.png","","","","","","","","","",""
"image-keyboard-response","28","205426","0.0-3.0-4.0-1.0-2.4","64231dd75feb7c5e16e3d869","666094c154fdc95dca3e206f","6660967fda8ceb61b53d4f5e","null","","null","","","","","","","","./tasks/HMM-beads/Images/BlackBeadChoiceCorrect.png","","","","","","","","","",""
"image-keyboard-response","29","206219","0.0-3.0-4.0-1.0-0.5","64231dd75feb7c5e16e3d869","666094c154fdc95dca3e206f","6660967fda8ceb61b53d4f5e","791","","j","","","","","","","","./tasks/HMM-beads/Images/NewTrialBC.png","practice","0","5","0","1","0","1","true","",""
"image-keyboard-response","30","206522","0.0-3.0-4.0-1.0-1.5","64231dd75feb7c5e16e3d869","666094c154fdc95dca3e206f","6660967fda8ceb61b53d4f5e","null","","null","","","","","","","","./tasks/HMM-beads/Images/WhiteBeadChoice.png","","","","","","","","","",""
"image-keyboard-response","31","207026","0.0-3.0-4.0-1.0-2.5","64231dd75feb7c5e16e3d869","666094c154fdc95dca3e206f","6660967fda8ceb61b53d4f5e","null","","null","","","","","","","","./tasks/HMM-beads/Images/WhiteBeadChoiceCorrect.png","","","","","","","","","",""
"image-keyboard-response","32","207996","0.0-3.0-4.0-1.0-0.6","64231dd75feb7c5e16e3d869","666094c154fdc95dca3e206f","6660967fda8ceb61b53d4f5e","968","","f","","","","","","","","./tasks/HMM-beads/Images/NewTrialWC.png","practice","0","6","0","0","1","0","true","",""
"image-keyboard-response","33","208305","0.0-3.0-4.0-1.0-1.6","64231dd75feb7c5e16e3d869","666094c154fdc95dca3e206f","6660967fda8ceb61b53d4f5e","null","","null","","","","","","","","./tasks/HMM-beads/Images/BlackBeadChoice.png","","","","","","","","","",""
"image-keyboard-response","34","208810","0.0-3.0-4.0-1.0-2.6","64231dd75feb7c5e16e3d869","666094c154fdc95dca3e206f","6660967fda8ceb61b53d4f5e","null","","null","","","","","","","","./tasks/HMM-beads/Images/BlackBeadChoiceCorrect.png","","","","","","","","","",""
"image-keyboard-response","35","209467","0.0-3.0-4.0-1.0-0.7","64231dd75feb7c5e16e3d869","666094c154fdc95dca3e206f","6660967fda8ceb61b53d4f5e","655","","f","","","","","","","","./tasks/HMM-beads/Images/NewTrialBC.png","practice","0","7","0","0","0","0","true","",""
"image-keyboard-response","36","209771","0.0-3.0-4.0-1.0-1.7","64231dd75feb7c5e16e3d869","666094c154fdc95dca3e206f","6660967fda8ceb61b53d4f5e","null","","null","","","","","","","","./tasks/HMM-beads/Images/BlackBeadChoice.png","","","","","","","","","",""
"image-keyboard-response","37","210276","0.0-3.0-4.0-1.0-2.7","64231dd75feb7c5e16e3d869","666094c154fdc95dca3e206f","6660967fda8ceb61b53d4f5e","null","","null","","","","","","","","./tasks/HMM-beads/Images/BlackBeadChoiceCorrect.png","","","","","","","","","",""
"image-keyboard-response","38","211005","0.0-3.0-4.0-1.0-0.8","64231dd75feb7c5e16e3d869","666094c154fdc95dca3e206f","6660967fda8ceb61b53d4f5e","727","","j","","","","","","","","./tasks/HMM-beads/Images/NewTrialBC.png","practice","0","8","0","0","0","1","false","",""
"image-keyboard-response","39","211321","0.0-3.0-4.0-1.0-1.8","64231dd75feb7c5e16e3d869","666094c154fdc95dca3e206f","6660967fda8ceb61b53d4f5e","null","","null","","","","","","","","./tasks/HMM-beads/Images/WhiteBeadChoice.png","","","","","","","","","",""
"image-keyboard-response","40","211825","0.0-3.0-4.0-1.0-2.8","64231dd75feb7c5e16e3d869","666094c154fdc95dca3e206f","6660967fda8ceb61b53d4f5e","null","","null","","","","","","","","./tasks/HMM-beads/Images/WhiteBeadChoiceWrong.png","","","","","","","","","",""
"image-keyboard-response","41","212816","0.0-3.0-4.0-1.0-0.9","64231dd75feb7c5e16e3d869","666094c154fdc95dca3e206f","6660967fda8ceb61b53d4f5e","989","","f","","","","","","","","./tasks/HMM-beads/Images/NewTrialBC.png","practice","0","9","0","1","0","0","false","",""
"image-keyboard-response","42","213121","0.0-3.0-4.0-1.0-1.9","64231dd75feb7c5e16e3d869","666094c154fdc95dca3e206f","6660967fda8ceb61b53d4f5e","null","","null","","","","","","","","./tasks/HMM-beads/Images/BlackBeadChoice.png","","","","","","","","","",""
"image-keyboard-response","43","213623","0.0-3.0-4.0-1.0-2.9","64231dd75feb7c5e16e3d869","666094c154fdc95dca3e206f","6660967fda8ceb61b53d4f5e","null","","null","","","","","","","","./tasks/HMM-beads/Images/BlackBeadChoiceWrong.png","","","","","","","","","",""
"image-keyboard-response","44","217323","0.0-3.0-4.0-1.0-0.10","64231dd75feb7c5e16e3d869","666094c154fdc95dca3e206f","6660967fda8ceb61b53d4f5e","3699","","j","","","","","","","","./tasks/HMM-beads/Images/NewTrialWC.png","practice","0","10","0","0","1","1","false","",""
"image-keyboard-response","45","217635","0.0-3.0-4.0-1.0-1.10","64231dd75feb7c5e16e3d869","666094c154fdc95dca3e206f","6660967fda8ceb61b53d4f5e","null","","null","","","","","","","","./tasks/HMM-beads/Images/WhiteBeadChoice.png","","","","","","","","","",""
"image-keyboard-response","46","218139","0.0-3.0-4.0-1.0-2.10","64231dd75feb7c5e16e3d869","666094c154fdc95dca3e206f","6660967fda8ceb61b53d4f5e","null","","null","","","","","","","","./tasks/HMM-beads/Images/WhiteBeadChoiceWrong.png","","","","","","","","","",""
"image-keyboard-response","47","219008","0.0-3.0-4.0-1.0-0.11","64231dd75feb7c5e16e3d869","666094c154fdc95dca3e206f","6660967fda8ceb61b53d4f5e","867","","f","","","","","","","","./tasks/HMM-beads/Images/NewTrialBC.png","practice","0","11","0","1","0","0","false","",""
"image-keyboard-response","48","219319","0.0-3.0-4.0-1.0-1.11","64231dd75feb7c5e16e3d869","666094c154fdc95dca3e206f","6660967fda8ceb61b53d4f5e","null","","null","","","","","","","","./tasks/HMM-beads/Images/BlackBeadChoice.png","","","","","","","","","",""
"image-keyboard-response","49","219822","0.0-3.0-4.0-1.0-2.11","64231dd75feb7c5e16e3d869","666094c154fdc95dca3e206f","6660967fda8ceb61b53d4f5e","null","","null","","","","","","","","./tasks/HMM-beads/Images/BlackBeadChoiceWrong.png","","","","","","","","","",""
"image-keyboard-response","50","221026","0.0-3.0-4.0-1.0-0.12","64231dd75feb7c5e16e3d869","666094c154fdc95dca3e206f","6660967fda8ceb61b53d4f5e","1203","","f","","","","","","","","./tasks/HMM-beads/Images/NewTrialWC.png","practice","0","12","0","0","1","0","true","",""
"image-keyboard-response","51","221332","0.0-3.0-4.0-1.0-1.12","64231dd75feb7c5e16e3d869","666094c154fdc95dca3e206f","6660967fda8ceb61b53d4f5e","null","","null","","","","","","","","./tasks/HMM-beads/Images/BlackBeadChoice.png","","","","","","","","","",""
"image-keyboard-response","52","221854","0.0-3.0-4.0-1.0-2.12","64231dd75feb7c5e16e3d869","666094c154fdc95dca3e206f","6660967fda8ceb61b53d4f5e","null","","null","","","","","","","","./tasks/HMM-beads/Images/BlackBeadChoiceCorrect.png","","","","","","","","","",""
"image-keyboard-response","53","222360","0.0-3.0-4.0-1.0-0.13","64231dd75feb7c5e16e3d869","666094c154fdc95dca3e206f","6660967fda8ceb61b53d4f5e","504","","f","","","","","","","","./tasks/HMM-beads/Images/NewTrialBC.png","practice","0","13","0","0","0","0","true","",""
"image-keyboard-response","54","222667","0.0-3.0-4.0-1.0-1.13","64231dd75feb7c5e16e3d869","666094c154fdc95dca3e206f","6660967fda8ceb61b53d4f5e","null","","null","","","","","","","","./tasks/HMM-beads/Images/BlackBeadChoice.png","","","","","","","","","",""
"image-keyboard-response","55","223170","0.0-3.0-4.0-1.0-2.13","64231dd75feb7c5e16e3d869","666094c154fdc95dca3e206f","6660967fda8ceb61b53d4f5e","null","","null","","","","","","","","./tasks/HMM-beads/Images/BlackBeadChoiceCorrect.png","","","","","","","","","",""
"image-keyboard-response","56","223884","0.0-3.0-4.0-1.0-0.14","64231dd75feb7c5e16e3d869","666094c154fdc95dca3e206f","6660967fda8ceb61b53d4f5e","712","","j","","","","","","","","./tasks/HMM-beads/Images/NewTrialBC.png","practice","0","14","0","0","0","1","false","",""
"image-keyboard-response","57","224199","0.0-3.0-4.0-1.0-1.14","64231dd75feb7c5e16e3d869","666094c154fdc95dca3e206f","6660967fda8ceb61b53d4f5e","null","","null","","","","","","","","./tasks/HMM-beads/Images/WhiteBeadChoice.png","","","","","","","","","",""
"image-keyboard-response","58","224703","0.0-3.0-4.0-1.0-2.14","64231dd75feb7c5e16e3d869","666094c154fdc95dca3e206f","6660967fda8ceb61b53d4f5e","null","","null","","","","","","","","./tasks/HMM-beads/Images/WhiteBeadChoiceWrong.png","","","","","","","","","",""
"image-keyboard-response","59","225530","0.0-3.0-4.0-1.0-0.15","64231dd75feb7c5e16e3d869","666094c154fdc95dca3e206f","6660967fda8ceb61b53d4f5e","825","","f","","","","","","","","./tasks/HMM-beads/Images/NewTrialBC.png","practice","0","15","0","0","0","0","true","",""
"image-keyboard-response","60","225834","0.0-3.0-4.0-1.0-1.15","64231dd75feb7c5e16e3d869","666094c154fdc95dca3e206f","6660967fda8ceb61b53d4f5e","null","","null","","","","","","","","./tasks/HMM-beads/Images/BlackBeadChoice.png","","","","","","","","","",""
"image-keyboard-response","61","226351","0.0-3.0-4.0-1.0-2.15","64231dd75feb7c5e16e3d869","666094c154fdc95dca3e206f","6660967fda8ceb61b53d4f5e","null","","null","","","","","","","","./tasks/HMM-beads/Images/BlackBeadChoiceCorrect.png","","","","","","","","","",""
"image-keyboard-response","62","226790","0.0-3.0-4.0-1.0-0.16","64231dd75feb7c5e16e3d869","666094c154fdc95dca3e206f","6660967fda8ceb61b53d4f5e","438","","f","","","","","","","","./tasks/HMM-beads/Images/NewTrialBC.png","practice","0","16","0","0","0","0","true","",""
"image-keyboard-response","63","227099","0.0-3.0-4.0-1.0-1.16","64231dd75feb7c5e16e3d869","666094c154fdc95dca3e206f","6660967fda8ceb61b53d4f5e","null","","null","","","","","","","","./tasks/HMM-beads/Images/BlackBeadChoice.png","","","","","","","","","",""
"image-keyboard-response","64","227602","0.0-3.0-4.0-1.0-2.16","64231dd75feb7c5e16e3d869","666094c154fdc95dca3e206f","6660967fda8ceb61b53d4f5e","null","","null","","","","","","","","./tasks/HMM-beads/Images/BlackBeadChoiceCorrect.png","","","","","","","","","",""
"image-keyboard-response","65","228227","0.0-3.0-4.0-1.0-0.17","64231dd75feb7c5e16e3d869","666094c154fdc95dca3e206f","6660967fda8ceb61b53d4f5e","622","","f","","","","","","","","./tasks/HMM-beads/Images/NewTrialBC.png","practice","0","17","0","0","0","0","true","",""
"image-keyboard-response","66","228531","0.0-3.0-4.0-1.0-1.17","64231dd75feb7c5e16e3d869","666094c154fdc95dca3e206f","6660967fda8ceb61b53d4f5e","null","","null","","","","","","","","./tasks/HMM-beads/Images/BlackBeadChoice.png","","","","","","","","","",""
"image-keyboard-response","67","229035","0.0-3.0-4.0-1.0-2.17","64231dd75feb7c5e16e3d869","666094c154fdc95dca3e206f","6660967fda8ceb61b53d4f5e","null","","null","","","","","","","","./tasks/HMM-beads/Images/BlackBeadChoiceCorrect.png","","","","","","","","","",""
"image-keyboard-response","68","229822","0.0-3.0-4.0-1.0-0.18","64231dd75feb7c5e16e3d869","666094c154fdc95dca3e206f","6660967fda8ceb61b53d4f5e","785","","j","","","","","","","","./tasks/HMM-beads/Images/NewTrialBC.png","practice","0","18","0","1","0","1","true","",""
"image-keyboard-response","69","230131","0.0-3.0-4.0-1.0-1.18","64231dd75feb7c5e16e3d869","666094c154fdc95dca3e206f","6660967fda8ceb61b53d4f5e","null","","null","","","","","","","","./tasks/HMM-beads/Images/WhiteBeadChoice.png","","","","","","","","","",""
"image-keyboard-response","70","230635","0.0-3.0-4.0-1.0-2.18","64231dd75feb7c5e16e3d869","666094c154fdc95dca3e206f","6660967fda8ceb61b53d4f5e","null","","null","","","","","","","","./tasks/HMM-beads/Images/WhiteBeadChoiceCorrect.png","","","","","","","","","",""
"image-keyboard-response","71","231318","0.0-3.0-4.0-1.0-0.19","64231dd75feb7c5e16e3d869","666094c154fdc95dca3e206f","6660967fda8ceb61b53d4f5e","682","","f","","","","","","","","./tasks/HMM-beads/Images/NewTrialWC.png","practice","0","19","0","0","1","0","true","",""
"image-keyboard-response","72","231631","0.0-3.0-4.0-1.0-1.19","64231dd75feb7c5e16e3d869","666094c154fdc95dca3e206f","6660967fda8ceb61b53d4f5e","null","","null","","","","","","","","./tasks/HMM-beads/Images/BlackBeadChoice.png","","","","","","","","","",""
"image-keyboard-response","73","232135","0.0-3.0-4.0-1.0-2.19","64231dd75feb7c5e16e3d869","666094c154fdc95dca3e206f","6660967fda8ceb61b53d4f5e","null","","null","","","","","","","","./tasks/HMM-beads/Images/BlackBeadChoiceCorrect.png","","","","","","","","","",""
"image-keyboard-response","74","232643","0.0-3.0-4.0-1.0-0.20","64231dd75feb7c5e16e3d869","666094c154fdc95dca3e206f","6660967fda8ceb61b53d4f5e","506","","f","","","","","","","","./tasks/HMM-beads/Images/NewTrialBC.png","practice","0","20","0","0","0","0","true","",""
"image-keyboard-response","75","232949","0.0-3.0-4.0-1.0-1.20","64231dd75feb7c5e16e3d869","666094c154fdc95dca3e206f","6660967fda8ceb61b53d4f5e","null","","null","","","","","","","","./tasks/HMM-beads/Images/BlackBeadChoice.png","","","","","","","","","",""
"image-keyboard-response","76","233451","0.0-3.0-4.0-1.0-2.20","64231dd75feb7c5e16e3d869","666094c154fdc95dca3e206f","6660967fda8ceb61b53d4f5e","null","","null","","","","","","","","./tasks/HMM-beads/Images/BlackBeadChoiceCorrect.png","","","","","","","","","",""
"image-keyboard-response","77","234122","0.0-3.0-4.0-1.0-0.21","64231dd75feb7c5e16e3d869","666094c154fdc95dca3e206f","6660967fda8ceb61b53d4f5e","669","","f","","","","","","","","./tasks/HMM-beads/Images/NewTrialBC.png","practice","0","21","0","1","0","0","false","",""
"image-keyboard-response","78","234446","0.0-3.0-4.0-1.0-1.21","64231dd75feb7c5e16e3d869","666094c154fdc95dca3e206f","6660967fda8ceb61b53d4f5e","null","","null","","","","","","","","./tasks/HMM-beads/Images/BlackBeadChoice.png","","","","","","","","","",""
"image-keyboard-response","79","234950","0.0-3.0-4.0-1.0-2.21","64231dd75feb7c5e16e3d869","666094c154fdc95dca3e206f","6660967fda8ceb61b53d4f5e","null","","null","","","","","","","","./tasks/HMM-beads/Images/BlackBeadChoiceWrong.png","","","","","","","","","",""
"image-keyboard-response","80","236650","0.0-3.0-4.0-1.0-0.22","64231dd75feb7c5e16e3d869","666094c154fdc95dca3e206f","6660967fda8ceb61b53d4f5e","1698","","f","","","","","","","","./tasks/HMM-beads/Images/NewTrialWC.png","practice","0","22","1","1","1","0","false","",""
"image-keyboard-response","81","236962","0.0-3.0-4.0-1.0-1.22","64231dd75feb7c5e16e3d869","666094c154fdc95dca3e206f","6660967fda8ceb61b53d4f5e","null","","null","","","","","","","","./tasks/HMM-beads/Images/BlackBeadChoice.png","","","","","","","","","",""
"image-keyboard-response","82","237467","0.0-3.0-4.0-1.0-2.22","64231dd75feb7c5e16e3d869","666094c154fdc95dca3e206f","6660967fda8ceb61b53d4f5e","null","","null","","","","","","","","./tasks/HMM-beads/Images/BlackBeadChoiceWrong.png","","","","","","","","","",""
"image-keyboard-response","83","238418","0.0-3.0-4.0-1.0-0.23","64231dd75feb7c5e16e3d869","666094c154fdc95dca3e206f","6660967fda8ceb61b53d4f5e","962","","f","","","","","","","","./tasks/HMM-beads/Images/NewTrialWC.png","practice","0","23","1","0","1","0","true","",""
"image-keyboard-response","84","238733","0.0-3.0-4.0-1.0-1.23","64231dd75feb7c5e16e3d869","666094c154fdc95dca3e206f","6660967fda8ceb61b53d4f5e","null","","null","","","","","","","","./tasks/HMM-beads/Images/BlackBeadChoice.png","","","","","","","","","",""
"image-keyboard-response","85","239240","0.0-3.0-4.0-1.0-2.23","64231dd75feb7c5e16e3d869","666094c154fdc95dca3e206f","6660967fda8ceb61b53d4f5e","null","","null","","","","","","","","./tasks/HMM-beads/Images/BlackBeadChoiceCorrect.png","","","","","","","","","",""
"image-keyboard-response","86","240516","0.0-3.0-4.0-1.0-0.24","64231dd75feb7c5e16e3d869","666094c154fdc95dca3e206f","6660967fda8ceb61b53d4f5e","1275","","f","","","","","","","","./tasks/HMM-beads/Images/NewTrialBC.png","practice","0","24","1","1","0","0","false","",""
"image-keyboard-response","87","240820","0.0-3.0-4.0-1.0-1.24","64231dd75feb7c5e16e3d869","666094c154fdc95dca3e206f","6660967fda8ceb61b53d4f5e","null","","null","","","","","","","","./tasks/HMM-beads/Images/BlackBeadChoice.png","","","","","","","","","",""
"image-keyboard-response","88","241332","0.0-3.0-4.0-1.0-2.24","64231dd75feb7c5e16e3d869","666094c154fdc95dca3e206f","6660967fda8ceb61b53d4f5e","null","","null","","","","","","","","./tasks/HMM-beads/Images/BlackBeadChoiceWrong.png","","","","","","","","","",""
"image-keyboard-response","89","242347","0.0-3.0-4.0-1.0-0.25","64231dd75feb7c5e16e3d869","666094c154fdc95dca3e206f","6660967fda8ceb61b53d4f5e","1014","","j","","","","","","","","./tasks/HMM-beads/Images/NewTrialWC.png","practice","0","25","1","1","1","1","true","",""
"image-keyboard-response","90","242649","0.0-3.0-4.0-1.0-1.25","64231dd75feb7c5e16e3d869","666094c154fdc95dca3e206f","6660967fda8ceb61b53d4f5e","null","","null","","","","","","","","./tasks/HMM-beads/Images/WhiteBeadChoice.png","","","","","","","","","",""
"image-keyboard-response","91","243168","0.0-3.0-4.0-1.0-2.25","64231dd75feb7c5e16e3d869","666094c154fdc95dca3e206f","6660967fda8ceb61b53d4f5e","null","","null","","","","","","","","./tasks/HMM-beads/Images/WhiteBeadChoiceCorrect.png","","","","","","","","","",""
"image-keyboard-response","92","243774","0.0-3.0-4.0-1.0-0.26","64231dd75feb7c5e16e3d869","666094c154fdc95dca3e206f","6660967fda8ceb61b53d4f5e","605","","f","","","","","","","","./tasks/HMM-beads/Images/NewTrialWC.png","practice","0","26","1","1","1","0","false","",""
"image-keyboard-response","93","244083","0.0-3.0-4.0-1.0-1.26","64231dd75feb7c5e16e3d869","666094c154fdc95dca3e206f","6660967fda8ceb61b53d4f5e","null","","null","","","","","","","","./tasks/HMM-beads/Images/BlackBeadChoice.png","","","","","","","","","",""
"image-keyboard-response","94","244593","0.0-3.0-4.0-1.0-2.26","64231dd75feb7c5e16e3d869","666094c154fdc95dca3e206f","6660967fda8ceb61b53d4f5e","null","","null","","","","","","","","./tasks/HMM-beads/Images/BlackBeadChoiceWrong.png","","","","","","","","","",""
"image-keyboard-response","95","245801","0.0-3.0-4.0-1.0-0.27","64231dd75feb7c5e16e3d869","666094c154fdc95dca3e206f","6660967fda8ceb61b53d4f5e","1206","","j","","","","","","","","./tasks/HMM-beads/Images/NewTrialWC.png","practice","0","27","1","1","1","1","true","",""
"image-keyboard-response","96","246115","0.0-3.0-4.0-1.0-1.27","64231dd75feb7c5e16e3d869","666094c154fdc95dca3e206f","6660967fda8ceb61b53d4f5e","null","","null","","","","","","","","./tasks/HMM-beads/Images/WhiteBeadChoice.png","","","","","","","","","",""
"image-keyboard-response","97","246624","0.0-3.0-4.0-1.0-2.27","64231dd75feb7c5e16e3d869","666094c154fdc95dca3e206f","6660967fda8ceb61b53d4f5e","null","","null","","","","","","","","./tasks/HMM-beads/Images/WhiteBeadChoiceCorrect.png","","","","","","","","","",""
"image-keyboard-response","98","247446","0.0-3.0-4.0-1.0-0.28","64231dd75feb7c5e16e3d869","666094c154fdc95dca3e206f","6660967fda8ceb61b53d4f5e","819","","j","","","","","","","","./tasks/HMM-beads/Images/NewTrialWC.png","practice","0","28","1","0","1","1","false","",""
"image-keyboard-response","99","247763","0.0-3.0-4.0-1.0-1.28","64231dd75feb7c5e16e3d869","666094c154fdc95dca3e206f","6660967fda8ceb61b53d4f5e","null","","null","","","","","","","","./tasks/HMM-beads/Images/WhiteBeadChoice.png","","","","","","","","","",""
"image-keyboard-response","100","248267","0.0-3.0-4.0-1.0-2.28","64231dd75feb7c5e16e3d869","666094c154fdc95dca3e206f","6660967fda8ceb61b53d4f5e","null","","null","","","","","","","","./tasks/HMM-beads/Images/WhiteBeadChoiceWrong.png","","","","","","","","","",""
"image-keyboard-response","101","248964","0.0-3.0-4.0-1.0-0.29","64231dd75feb7c5e16e3d869","666094c154fdc95dca3e206f","6660967fda8ceb61b53d4f5e","696","","f","","","","","","","","./tasks/HMM-beads/Images/NewTrialBC.png","practice","0","29","1","1","0","0","false","",""
"image-keyboard-response","102","249280","0.0-3.0-4.0-1.0-1.29","64231dd75feb7c5e16e3d869","666094c154fdc95dca3e206f","6660967fda8ceb61b53d4f5e","null","","null","","","","","","","","./tasks/HMM-beads/Images/BlackBeadChoice.png","","","","","","","","","",""
"image-keyboard-response","103","249784","0.0-3.0-4.0-1.0-2.29","64231dd75feb7c5e16e3d869","666094c154fdc95dca3e206f","6660967fda8ceb61b53d4f5e","null","","null","","","","","","","","./tasks/HMM-beads/Images/BlackBeadChoiceWrong.png","","","","","","","","","",""
"image-keyboard-response","104","251484","0.0-3.0-4.0-1.0-0.30","64231dd75feb7c5e16e3d869","666094c154fdc95dca3e206f","6660967fda8ceb61b53d4f5e","1698","","j","","","","","","","","./tasks/HMM-beads/Images/NewTrialWC.png","practice","0","30","1","0","1","1","false","",""
"image-keyboard-response","105","251795","0.0-3.0-4.0-1.0-1.30","64231dd75feb7c5e16e3d869","666094c154fdc95dca3e206f","6660967fda8ceb61b53d4f5e","null","","null","","","","","","","","./tasks/HMM-beads/Images/WhiteBeadChoice.png","","","","","","","","","",""
"image-keyboard-response","106","252303","0.0-3.0-4.0-1.0-2.30","64231dd75feb7c5e16e3d869","666094c154fdc95dca3e206f","6660967fda8ceb61b53d4f5e","null","","null","","","","","","","","./tasks/HMM-beads/Images/WhiteBeadChoiceWrong.png","","","","","","","","","",""
"image-keyboard-response","107","253163","0.0-3.0-4.0-1.0-0.31","64231dd75feb7c5e16e3d869","666094c154fdc95dca3e206f","6660967fda8ceb61b53d4f5e","858","","f","","","","","","","","./tasks/HMM-beads/Images/NewTrialBC.png","practice","0","31","1","1","0","0","false","",""
"image-keyboard-response","108","253478","0.0-3.0-4.0-1.0-1.31","64231dd75feb7c5e16e3d869","666094c154fdc95dca3e206f","6660967fda8ceb61b53d4f5e","null","","null","","","","","","","","./tasks/HMM-beads/Images/BlackBeadChoice.png","","","","","","","","","",""
"image-keyboard-response","109","253982","0.0-3.0-4.0-1.0-2.31","64231dd75feb7c5e16e3d869","666094c154fdc95dca3e206f","6660967fda8ceb61b53d4f5e","null","","null","","","","","","","","./tasks/HMM-beads/Images/BlackBeadChoiceWrong.png","","","","","","","","","",""
"image-keyboard-response","110","255011","0.0-3.0-4.0-1.0-0.32","64231dd75feb7c5e16e3d869","666094c154fdc95dca3e206f","6660967fda8ceb61b53d4f5e","1028","","j","","","","","","","","./tasks/HMM-beads/Images/NewTrialWC.png","practice","0","32","1","1","1","1","true","",""
"image-keyboard-response","111","255327","0.0-3.0-4.0-1.0-1.32","64231dd75feb7c5e16e3d869","666094c154fdc95dca3e206f","6660967fda8ceb61b53d4f5e","null","","null","","","","","","","","./tasks/HMM-beads/Images/WhiteBeadChoice.png","","","","","","","","","",""
"image-keyboard-response","112","255831","0.0-3.0-4.0-1.0-2.32","64231dd75feb7c5e16e3d869","666094c154fdc95dca3e206f","6660967fda8ceb61b53d4f5e","null","","null","","","","","","","","./tasks/HMM-beads/Images/WhiteBeadChoiceCorrect.png","","","","","","","","","",""
"image-keyboard-response","113","256517","0.0-3.0-4.0-1.0-0.33","64231dd75feb7c5e16e3d869","666094c154fdc95dca3e206f","6660967fda8ceb61b53d4f5e","684","","j","","","","","","","","./tasks/HMM-beads/Images/NewTrialWC.png","practice","0","33","1","1","1","1","true","",""
"image-keyboard-response","114","256828","0.0-3.0-4.0-1.0-1.33","64231dd75feb7c5e16e3d869","666094c154fdc95dca3e206f","6660967fda8ceb61b53d4f5e","null","","null","","","","","","","","./tasks/HMM-beads/Images/WhiteBeadChoice.png","","","","","","","","","",""
"image-keyboard-response","115","257345","0.0-3.0-4.0-1.0-2.33","64231dd75feb7c5e16e3d869","666094c154fdc95dca3e206f","6660967fda8ceb61b53d4f5e","null","","null","","","","","","","","./tasks/HMM-beads/Images/WhiteBeadChoiceCorrect.png","","","","","","","","","",""
"image-keyboard-response","116","258029","0.0-3.0-4.0-1.0-0.34","64231dd75feb7c5e16e3d869","666094c154fdc95dca3e206f","6660967fda8ceb61b53d4f5e","682","","j","","","","","","","","./tasks/HMM-beads/Images/NewTrialWC.png","practice","0","34","1","1","1","1","true","",""
"image-keyboard-response","117","258343","0.0-3.0-4.0-1.0-1.34","64231dd75feb7c5e16e3d869","666094c154fdc95dca3e206f","6660967fda8ceb61b53d4f5e","null","","null","","","","","","","","./tasks/HMM-beads/Images/WhiteBeadChoice.png","","","","","","","","","",""
"image-keyboard-response","118","258853","0.0-3.0-4.0-1.0-2.34","64231dd75feb7c5e16e3d869","666094c154fdc95dca3e206f","6660967fda8ceb61b53d4f5e","null","","null","","","","","","","","./tasks/HMM-beads/Images/WhiteBeadChoiceCorrect.png","","","","","","","","","",""
"image-keyboard-response","119","259528","0.0-3.0-4.0-1.0-0.35","64231dd75feb7c5e16e3d869","666094c154fdc95dca3e206f","6660967fda8ceb61b53d4f5e","673","","j","","","","","","","","./tasks/HMM-beads/Images/NewTrialWC.png","practice","0","35","1","1","1","1","true","",""
"image-keyboard-response","120","259843","0.0-3.0-4.0-1.0-1.35","64231dd75feb7c5e16e3d869","666094c154fdc95dca3e206f","6660967fda8ceb61b53d4f5e","null","","null","","","","","","","","./tasks/HMM-beads/Images/WhiteBeadChoice.png","","","","","","","","","",""
"image-keyboard-response","121","260347","0.0-3.0-4.0-1.0-2.35","64231dd75feb7c5e16e3d869","666094c154fdc95dca3e206f","6660967fda8ceb61b53d4f5e","null","","null","","","","","","","","./tasks/HMM-beads/Images/WhiteBeadChoiceCorrect.png","","","","","","","","","",""
"image-keyboard-response","122","261064","0.0-3.0-4.0-1.0-0.36","64231dd75feb7c5e16e3d869","666094c154fdc95dca3e206f","6660967fda8ceb61b53d4f5e","715","","j","","","","","","","","./tasks/HMM-beads/Images/NewTrialWC.png","practice","0","36","1","0","1","1","false","",""
"image-keyboard-response","123","261376","0.0-3.0-4.0-1.0-1.36","64231dd75feb7c5e16e3d869","666094c154fdc95dca3e206f","6660967fda8ceb61b53d4f5e","null","","null","","","","","","","","./tasks/HMM-beads/Images/WhiteBeadChoice.png","","","","","","","","","",""
"image-keyboard-response","124","261879","0.0-3.0-4.0-1.0-2.36","64231dd75feb7c5e16e3d869","666094c154fdc95dca3e206f","6660967fda8ceb61b53d4f5e","null","","null","","","","","","","","./tasks/HMM-beads/Images/WhiteBeadChoiceWrong.png","","","","","","","","","",""
"image-keyboard-response","125","262559","0.0-3.0-4.0-1.0-0.37","64231dd75feb7c5e16e3d869","666094c154fdc95dca3e206f","6660967fda8ceb61b53d4f5e","679","","f","","","","","","","","./tasks/HMM-beads/Images/NewTrialBC.png","practice","0","37","1","1","0","0","false","",""
"image-keyboard-response","126","262875","0.0-3.0-4.0-1.0-1.37","64231dd75feb7c5e16e3d869","666094c154fdc95dca3e206f","6660967fda8ceb61b53d4f5e","null","","null","","","","","","","","./tasks/HMM-beads/Images/BlackBeadChoice.png","","","","","","","","","",""
"image-keyboard-response","127","263390","0.0-3.0-4.0-1.0-2.37","64231dd75feb7c5e16e3d869","666094c154fdc95dca3e206f","6660967fda8ceb61b53d4f5e","null","","null","","","","","","","","./tasks/HMM-beads/Images/BlackBeadChoiceWrong.png","","","","","","","","","",""
"image-keyboard-response","128","263861","0.0-3.0-4.0-1.0-0.38","64231dd75feb7c5e16e3d869","666094c154fdc95dca3e206f","6660967fda8ceb61b53d4f5e","470","","j","","","","","","","","./tasks/HMM-beads/Images/NewTrialWC.png","practice","0","38","1","1","1","1","true","",""
"image-keyboard-response","129","264174","0.0-3.0-4.0-1.0-1.38","64231dd75feb7c5e16e3d869","666094c154fdc95dca3e206f","6660967fda8ceb61b53d4f5e","null","","null","","","","","","","","./tasks/HMM-beads/Images/WhiteBeadChoice.png","","","","","","","","","",""
"image-keyboard-response","130","264693","0.0-3.0-4.0-1.0-2.38","64231dd75feb7c5e16e3d869","666094c154fdc95dca3e206f","6660967fda8ceb61b53d4f5e","null","","null","","","","","","","","./tasks/HMM-beads/Images/WhiteBeadChoiceCorrect.png","","","","","","","","","",""
"image-keyboard-response","131","265232","0.0-3.0-4.0-1.0-0.39","64231dd75feb7c5e16e3d869","666094c154fdc95dca3e206f","6660967fda8ceb61b53d4f5e","537","","j","","","","","","","","./tasks/HMM-beads/Images/NewTrialWC.png","practice","0","39","1","1","1","1","true","",""
"image-keyboard-response","132","265540","0.0-3.0-4.0-1.0-1.39","64231dd75feb7c5e16e3d869","666094c154fdc95dca3e206f","6660967fda8ceb61b53d4f5e","null","","null","","","","","","","","./tasks/HMM-beads/Images/WhiteBeadChoice.png","","","","","","","","","",""
"image-keyboard-response","133","266046","0.0-3.0-4.0-1.0-2.39","64231dd75feb7c5e16e3d869","666094c154fdc95dca3e206f","6660967fda8ceb61b53d4f5e","null","","null","","","","","","","","./tasks/HMM-beads/Images/WhiteBeadChoiceCorrect.png","","","","","","","","","",""
"html-keyboard-response","134","271661","0.0-3.0-4.0-2.0","64231dd75feb7c5e16e3d869","666094c154fdc95dca3e206f","6660967fda8ceb61b53d4f5e","5614",""," ","","","","","","","","","","","","","","","","","",""
"instructions","135","296975","0.0-3.0-5.0","64231dd75feb7c5e16e3d869","666094c154fdc95dca3e206f","6660967fda8ceb61b53d4f5e","25312","","","","[{""page_index"":0,""viewing_time"":21699},{""page_index"":1,""viewing_time"":3612}]","","","","","","","","","","","","","","","",""
"html-keyboard-response","136","302047","0.0-3.0-6.0-0.0","64231dd75feb7c5e16e3d869","666094c154fdc95dca3e206f","6660967fda8ceb61b53d4f5e","5060",""," ","","","","","","","","<div align=center>In this block, there will be a <b>1% chance</b> that the jar on the next trial will be different from the jar on the current trial.<br><br></div>","","","","","","","","","",""
"image-keyboard-response","137","303806","0.0-3.0-6.0-1.0-0.0","64231dd75feb7c5e16e3d869","666094c154fdc95dca3e206f","6660967fda8ceb61b53d4f5e","1757","","f","","","","","","","","./tasks/HMM-beads/Images/NoChoice.png","lowH","1","0","1","0","9","0","true","",""
"image-keyboard-response","138","304122","0.0-3.0-6.0-1.0-1.0","64231dd75feb7c5e16e3d869","666094c154fdc95dca3e206f","6660967fda8ceb61b53d4f5e","null","","null","","","","","","","","./tasks/HMM-beads/Images/BlackBeadChoice.png","","","","","","","","","",""
"image-keyboard-response","139","304626","0.0-3.0-6.0-1.0-2.0","64231dd75feb7c5e16e3d869","666094c154fdc95dca3e206f","6660967fda8ceb61b53d4f5e","null","","null","","","","","","","","./tasks/HMM-beads/Images/BlackBeadChoiceCorrect.png","","","","","","","","","",""
"image-keyboard-response","140","305399","0.0-3.0-6.0-1.0-0.1","64231dd75feb7c5e16e3d869","666094c154fdc95dca3e206f","6660967fda8ceb61b53d4f5e","772","","f","","","","","","","","./tasks/HMM-beads/Images/NewTrialBC.png","lowH","1","1","1","1","0","0","false","",""
"image-keyboard-response","141","305705","0.0-3.0-6.0-1.0-1.1","64231dd75feb7c5e16e3d869","666094c154fdc95dca3e206f","6660967fda8ceb61b53d4f5e","null","","null","","","","","","","","./tasks/HMM-beads/Images/BlackBeadChoice.png","","","","","","","","","",""
"image-keyboard-response","142","306210","0.0-3.0-6.0-1.0-2.1","64231dd75feb7c5e16e3d869","666094c154fdc95dca3e206f","6660967fda8ceb61b53d4f5e","null","","null","","","","","","","","./tasks/HMM-beads/Images/BlackBeadChoiceWrong.png","","","","","","","","","",""
"image-keyboard-response","143","307139","0.0-3.0-6.0-1.0-0.2","64231dd75feb7c5e16e3d869","666094c154fdc95dca3e206f","6660967fda8ceb61b53d4f5e","927","","f","","","","","","","","./tasks/HMM-beads/Images/NewTrialWC.png","lowH","1","2","1","1","1","0","false","",""
"image-keyboard-response","144","307455","0.0-3.0-6.0-1.0-1.2","64231dd75feb7c5e16e3d869","666094c154fdc95dca3e206f","6660967fda8ceb61b53d4f5e","null","","null","","","","","","","","./tasks/HMM-beads/Images/BlackBeadChoice.png","","","","","","","","","",""
"image-keyboard-response","145","307958","0.0-3.0-6.0-1.0-2.2","64231dd75feb7c5e16e3d869","666094c154fdc95dca3e206f","6660967fda8ceb61b53d4f5e","null","","null","","","","","","","","./tasks/HMM-beads/Images/BlackBeadChoiceWrong.png","","","","","","","","","",""
"image-keyboard-response","146","308700","0.0-3.0-6.0-1.0-0.3","64231dd75feb7c5e16e3d869","666094c154fdc95dca3e206f","6660967fda8ceb61b53d4f5e","740","","j","","","","","","","","./tasks/HMM-beads/Images/NewTrialWC.png","lowH","1","3","1","1","1","1","true","",""
"image-keyboard-response","147","309004","0.0-3.0-6.0-1.0-1.3","64231dd75feb7c5e16e3d869","666094c154fdc95dca3e206f","6660967fda8ceb61b53d4f5e","null","","null","","","","","","","","./tasks/HMM-beads/Images/WhiteBeadChoice.png","","","","","","","","","",""
"image-keyboard-response","148","309508","0.0-3.0-6.0-1.0-2.3","64231dd75feb7c5e16e3d869","666094c154fdc95dca3e206f","6660967fda8ceb61b53d4f5e","null","","null","","","","","","","","./tasks/HMM-beads/Images/WhiteBeadChoiceCorrect.png","","","","","","","","","",""
"image-keyboard-response","149","310251","0.0-3.0-6.0-1.0-0.4","64231dd75feb7c5e16e3d869","666094c154fdc95dca3e206f","6660967fda8ceb61b53d4f5e","741","","j","","","","","","","","./tasks/HMM-beads/Images/NewTrialWC.png","lowH","1","4","1","1","1","1","true","",""
"image-keyboard-response","150","310555","0.0-3.0-6.0-1.0-1.4","64231dd75feb7c5e16e3d869","666094c154fdc95dca3e206f","6660967fda8ceb61b53d4f5e","null","","null","","","","","","","","./tasks/HMM-beads/Images/WhiteBeadChoice.png","","","","","","","","","",""
"image-keyboard-response","151","311062","0.0-3.0-6.0-1.0-2.4","64231dd75feb7c5e16e3d869","666094c154fdc95dca3e206f","6660967fda8ceb61b53d4f5e","null","","null","","","","","","","","./tasks/HMM-beads/Images/WhiteBeadChoiceCorrect.png","","","","","","","","","",""
"image-keyboard-response","152","311945","0.0-3.0-6.0-1.0-0.5","64231dd75feb7c5e16e3d869","666094c154fdc95dca3e206f","6660967fda8ceb61b53d4f5e","882","","j","","","","","","","","./tasks/HMM-beads/Images/NewTrialWC.png","lowH","1","5","1","1","1","1","true","",""
"image-keyboard-response","153","312256","0.0-3.0-6.0-1.0-1.5","64231dd75feb7c5e16e3d869","666094c154fdc95dca3e206f","6660967fda8ceb61b53d4f5e","null","","null","","","","","","","","./tasks/HMM-beads/Images/WhiteBeadChoice.png","","","","","","","","","",""
"image-keyboard-response","154","312772","0.0-3.0-6.0-1.0-2.5","64231dd75feb7c5e16e3d869","666094c154fdc95dca3e206f","6660967fda8ceb61b53d4f5e","null","","null","","","","","","","","./tasks/HMM-beads/Images/WhiteBeadChoiceCorrect.png","","","","","","","","","",""
"image-keyboard-response","155","313406","0.0-3.0-6.0-1.0-0.6","64231dd75feb7c5e16e3d869","666094c154fdc95dca3e206f","6660967fda8ceb61b53d4f5e","633","","j","","","","","","","","./tasks/HMM-beads/Images/NewTrialWC.png","lowH","1","6","1","0","1","1","false","",""
"image-keyboard-response","156","313719","0.0-3.0-6.0-1.0-1.6","64231dd75feb7c5e16e3d869","666094c154fdc95dca3e206f","6660967fda8ceb61b53d4f5e","null","","null","","","","","","","","./tasks/HMM-beads/Images/WhiteBeadChoice.png","","","","","","","","","",""
"image-keyboard-response","157","314222","0.0-3.0-6.0-1.0-2.6","64231dd75feb7c5e16e3d869","666094c154fdc95dca3e206f","6660967fda8ceb61b53d4f5e","null","","null","","","","","","","","./tasks/HMM-beads/Images/WhiteBeadChoiceWrong.png","","","","","","","","","",""
"image-keyboard-response","158","315058","0.0-3.0-6.0-1.0-0.7","64231dd75feb7c5e16e3d869","666094c154fdc95dca3e206f","6660967fda8ceb61b53d4f5e","834","","f","","","","","","","","./tasks/HMM-beads/Images/NewTrialBC.png","lowH","1","7","1","1","0","0","false","",""
"image-keyboard-response","159","315369","0.0-3.0-6.0-1.0-1.7","64231dd75feb7c5e16e3d869","666094c154fdc95dca3e206f","6660967fda8ceb61b53d4f5e","null","","null","","","","","","","","./tasks/HMM-beads/Images/BlackBeadChoice.png","","","","","","","","","",""
"image-keyboard-response","160","315872","0.0-3.0-6.0-1.0-2.7","64231dd75feb7c5e16e3d869","666094c154fdc95dca3e206f","6660967fda8ceb61b53d4f5e","null","","null","","","","","","","","./tasks/HMM-beads/Images/BlackBeadChoiceWrong.png","","","","","","","","","",""
"image-keyboard-response","161","316235","0.0-3.0-6.0-1.0-0.8","64231dd75feb7c5e16e3d869","666094c154fdc95dca3e206f","6660967fda8ceb61b53d4f5e","362","","j","","","","","","","","./tasks/HMM-beads/Images/NewTrialWC.png","lowH","1","8","1","1","1","1","true","",""
"image-keyboard-response","162","316551","0.0-3.0-6.0-1.0-1.8","64231dd75feb7c5e16e3d869","666094c154fdc95dca3e206f","6660967fda8ceb61b53d4f5e","null","","null","","","","","","","","./tasks/HMM-beads/Images/WhiteBeadChoice.png","","","","","","","","","",""
"image-keyboard-response","163","317054","0.0-3.0-6.0-1.0-2.8","64231dd75feb7c5e16e3d869","666094c154fdc95dca3e206f","6660967fda8ceb61b53d4f5e","null","","null","","","","","","","","./tasks/HMM-beads/Images/WhiteBeadChoiceCorrect.png","","","","","","","","","",""
"image-keyboard-response","164","317683","0.0-3.0-6.0-1.0-0.9","64231dd75feb7c5e16e3d869","666094c154fdc95dca3e206f","6660967fda8ceb61b53d4f5e","627","","j","","","","","","","","./tasks/HMM-beads/Images/NewTrialWC.png","lowH","1","9","1","1","1","1","true","",""
"image-keyboard-response","165","317986","0.0-3.0-6.0-1.0-1.9","64231dd75feb7c5e16e3d869","666094c154fdc95dca3e206f","6660967fda8ceb61b53d4f5e","null","","null","","","","","","","","./tasks/HMM-beads/Images/WhiteBeadChoice.png","","","","","","","","","",""
"image-keyboard-response","166","318490","0.0-3.0-6.0-1.0-2.9","64231dd75feb7c5e16e3d869","666094c154fdc95dca3e206f","6660967fda8ceb61b53d4f5e","null","","null","","","","","","","","./tasks/HMM-beads/Images/WhiteBeadChoiceCorrect.png","","","","","","","","","",""
"image-keyboard-response","167","319213","0.0-3.0-6.0-1.0-0.10","64231dd75feb7c5e16e3d869","666094c154fdc95dca3e206f","6660967fda8ceb61b53d4f5e","721","","j","","","","","","","","./tasks/HMM-beads/Images/NewTrialWC.png","lowH","1","10","1","1","1","1","true","",""
"image-keyboard-response","168","319517","0.0-3.0-6.0-1.0-1.10","64231dd75feb7c5e16e3d869","666094c154fdc95dca3e206f","6660967fda8ceb61b53d4f5e","null","","null","","","","","","","","./tasks/HMM-beads/Images/WhiteBeadChoice.png","","","","","","","","","",""
"image-keyboard-response","169","320022","0.0-3.0-6.0-1.0-2.10","64231dd75feb7c5e16e3d869","666094c154fdc95dca3e206f","6660967fda8ceb61b53d4f5e","null","","null","","","","","","","","./tasks/HMM-beads/Images/WhiteBeadChoiceCorrect.png","","","","","","","","","",""
"image-keyboard-response","170","320837","0.0-3.0-6.0-1.0-0.11","64231dd75feb7c5e16e3d869","666094c154fdc95dca3e206f","6660967fda8ceb61b53d4f5e","814","","j","","","","","","","","./tasks/HMM-beads/Images/NewTrialWC.png","lowH","1","11","1","1","1","1","true","",""
"image-keyboard-response","171","321150","0.0-3.0-6.0-1.0-1.11","64231dd75feb7c5e16e3d869","666094c154fdc95dca3e206f","6660967fda8ceb61b53d4f5e","null","","null","","","","","","","","./tasks/HMM-beads/Images/WhiteBeadChoice.png","","","","","","","","","",""
"image-keyboard-response","172","321654","0.0-3.0-6.0-1.0-2.11","64231dd75feb7c5e16e3d869","666094c154fdc95dca3e206f","6660967fda8ceb61b53d4f5e","null","","null","","","","","","","","./tasks/HMM-beads/Images/WhiteBeadChoiceCorrect.png","","","","","","","","","",""
"image-keyboard-response","173","322457","0.0-3.0-6.0-1.0-0.12","64231dd75feb7c5e16e3d869","666094c154fdc95dca3e206f","6660967fda8ceb61b53d4f5e","801","","j","","","","","","","","./tasks/HMM-beads/Images/NewTrialWC.png","lowH","1","12","1","1","1","1","true","",""
"image-keyboard-response","174","322769","0.0-3.0-6.0-1.0-1.12","64231dd75feb7c5e16e3d869","666094c154fdc95dca3e206f","6660967fda8ceb61b53d4f5e","null","","null","","","","","","","","./tasks/HMM-beads/Images/WhiteBeadChoice.png","","","","","","","","","",""
"image-keyboard-response","175","323286","0.0-3.0-6.0-1.0-2.12","64231dd75feb7c5e16e3d869","666094c154fdc95dca3e206f","6660967fda8ceb61b53d4f5e","null","","null","","","","","","","","./tasks/HMM-beads/Images/WhiteBeadChoiceCorrect.png","","","","","","","","","",""
"image-keyboard-response","176","324055","0.0-3.0-6.0-1.0-0.13","64231dd75feb7c5e16e3d869","666094c154fdc95dca3e206f","6660967fda8ceb61b53d4f5e","766","","j","","","","","","","","./tasks/HMM-beads/Images/NewTrialWC.png","lowH","1","13","1","0","1","1","false","",""
"image-keyboard-response","177","324365","0.0-3.0-6.0-1.0-1.13","64231dd75feb7c5e16e3d869","666094c154fdc95dca3e206f","6660967fda8ceb61b53d4f5e","null","","null","","","","","","","","./tasks/HMM-beads/Images/WhiteBeadChoice.png","","","","","","","","","",""
"image-keyboard-response","178","324869","0.0-3.0-6.0-1.0-2.13","64231dd75feb7c5e16e3d869","666094c154fdc95dca3e206f","6660967fda8ceb61b53d4f5e","null","","null","","","","","","","","./tasks/HMM-beads/Images/WhiteBeadChoiceWrong.png","","","","","","","","","",""
"image-keyboard-response","179","325518","0.0-3.0-6.0-1.0-0.14","64231dd75feb7c5e16e3d869","666094c154fdc95dca3e206f","6660967fda8ceb61b53d4f5e","648","","f","","","","","","","","./tasks/HMM-beads/Images/NewTrialBC.png","lowH","1","14","1","0","0","0","true","",""
"image-keyboard-response","180","325831","0.0-3.0-6.0-1.0-1.14","64231dd75feb7c5e16e3d869","666094c154fdc95dca3e206f","6660967fda8ceb61b53d4f5e","null","","null","","","","","","","","./tasks/HMM-beads/Images/BlackBeadChoice.png","","","","","","","","","",""
"image-keyboard-response","181","326344","0.0-3.0-6.0-1.0-2.14","64231dd75feb7c5e16e3d869","666094c154fdc95dca3e206f","6660967fda8ceb61b53d4f5e","null","","null","","","","","","","","./tasks/HMM-beads/Images/BlackBeadChoiceCorrect.png","","","","","","","","","",""
"image-keyboard-response","182","326847","0.0-3.0-6.0-1.0-0.15","64231dd75feb7c5e16e3d869","666094c154fdc95dca3e206f","6660967fda8ceb61b53d4f5e","502","","f","","","","","","","","./tasks/HMM-beads/Images/NewTrialBC.png","lowH","1","15","1","1","0","0","false","",""
"image-keyboard-response","183","327164","0.0-3.0-6.0-1.0-1.15","64231dd75feb7c5e16e3d869","666094c154fdc95dca3e206f","6660967fda8ceb61b53d4f5e","null","","null","","","","","","","","./tasks/HMM-beads/Images/BlackBeadChoice.png","","","","","","","","","",""
"image-keyboard-response","184","327670","0.0-3.0-6.0-1.0-2.15","64231dd75feb7c5e16e3d869","666094c154fdc95dca3e206f","6660967fda8ceb61b53d4f5e","null","","null","","","","","","","","./tasks/HMM-beads/Images/BlackBeadChoiceWrong.png","","","","","","","","","",""
"image-keyboard-response","185","328146","0.0-3.0-6.0-1.0-0.16","64231dd75feb7c5e16e3d869","666094c154fdc95dca3e206f","6660967fda8ceb61b53d4f5e","474","","j","","","","","","","","./tasks/HMM-beads/Images/NewTrialWC.png","lowH","1","16","1","1","1","1","true","",""
"image-keyboard-response","186","328450","0.0-3.0-6.0-1.0-1.16","64231dd75feb7c5e16e3d869","666094c154fdc95dca3e206f","6660967fda8ceb61b53d4f5e","null","","null","","","","","","","","./tasks/HMM-beads/Images/WhiteBeadChoice.png","","","","","","","","","",""
"image-keyboard-response","187","328952","0.0-3.0-6.0-1.0-2.16","64231dd75feb7c5e16e3d869","666094c154fdc95dca3e206f","6660967fda8ceb61b53d4f5e","null","","null","","","","","","","","./tasks/HMM-beads/Images/WhiteBeadChoiceCorrect.png","","","","","","","","","",""
"image-keyboard-response","188","329388","0.0-3.0-6.0-1.0-0.17","64231dd75feb7c5e16e3d869","666094c154fdc95dca3e206f","6660967fda8ceb61b53d4f5e","434","","j","","","","","","","","./tasks/HMM-beads/Images/NewTrialWC.png","lowH","1","17","1","1","1","1","true","",""
"image-keyboard-response","189","329697","0.0-3.0-6.0-1.0-1.17","64231dd75feb7c5e16e3d869","666094c154fdc95dca3e206f","6660967fda8ceb61b53d4f5e","null","","null","","","","","","","","./tasks/HMM-beads/Images/WhiteBeadChoice.png","","","","","","","","","",""
"image-keyboard-response","190","330201","0.0-3.0-6.0-1.0-2.17","64231dd75feb7c5e16e3d869","666094c154fdc95dca3e206f","6660967fda8ceb61b53d4f5e","null","","null","","","","","","","","./tasks/HMM-beads/Images/WhiteBeadChoiceCorrect.png","","","","","","","","","",""
"image-keyboard-response","191","330618","0.0-3.0-6.0-1.0-0.18","64231dd75feb7c5e16e3d869","666094c154fdc95dca3e206f","6660967fda8ceb61b53d4f5e","415","","j","","","","","","","","./tasks/HMM-beads/Images/NewTrialWC.png","lowH","1","18","1","1","1","1","true","",""
"image-keyboard-response","192","330930","0.0-3.0-6.0-1.0-1.18","64231dd75feb7c5e16e3d869","666094c154fdc95dca3e206f","6660967fda8ceb61b53d4f5e","null","","null","","","","","","","","./tasks/HMM-beads/Images/WhiteBeadChoice.png","","","","","","","","","",""
"image-keyboard-response","193","331434","0.0-3.0-6.0-1.0-2.18","64231dd75feb7c5e16e3d869","666094c154fdc95dca3e206f","6660967fda8ceb61b53d4f5e","null","","null","","","","","","","","./tasks/HMM-beads/Images/WhiteBeadChoiceCorrect.png","","","","","","","","","",""
"image-keyboard-response","194","331852","0.0-3.0-6.0-1.0-0.19","64231dd75feb7c5e16e3d869","666094c154fdc95dca3e206f","6660967fda8ceb61b53d4f5e","416","","j","","","","","","","","./tasks/HMM-beads/Images/NewTrialWC.png","lowH","1","19","1","1","1","1","true","",""
"image-keyboard-response","195","332163","0.0-3.0-6.0-1.0-1.19","64231dd75feb7c5e16e3d869","666094c154fdc95dca3e206f","6660967fda8ceb61b53d4f5e","null","","null","","","","","","","","./tasks/HMM-beads/Images/WhiteBeadChoice.png","","","","","","","","","",""
"image-keyboard-response","196","332667","0.0-3.0-6.0-1.0-2.19","64231dd75feb7c5e16e3d869","666094c154fdc95dca3e206f","6660967fda8ceb61b53d4f5e","null","","null","","","","","","","","./tasks/HMM-beads/Images/WhiteBeadChoiceCorrect.png","","","","","","","","","",""
"image-keyboard-response","197","333114","0.0-3.0-6.0-1.0-0.20","64231dd75feb7c5e16e3d869","666094c154fdc95dca3e206f","6660967fda8ceb61b53d4f5e","445","","j","","","","","","","","./tasks/HMM-beads/Images/NewTrialWC.png","lowH","1","20","1","1","1","1","true","",""
"image-keyboard-response","198","333423","0.0-3.0-6.0-1.0-1.20","64231dd75feb7c5e16e3d869","666094c154fdc95dca3e206f","6660967fda8ceb61b53d4f5e","null","","null","","","","","","","","./tasks/HMM-beads/Images/WhiteBeadChoice.png","","","","","","","","","",""
"image-keyboard-response","199","333932","0.0-3.0-6.0-1.0-2.20","64231dd75feb7c5e16e3d869","666094c154fdc95dca3e206f","6660967fda8ceb61b53d4f5e","null","","null","","","","","","","","./tasks/HMM-beads/Images/WhiteBeadChoiceCorrect.png","","","","","","","","","",""
"image-keyboard-response","200","334440","0.0-3.0-6.0-1.0-0.21","64231dd75feb7c5e16e3d869","666094c154fdc95dca3e206f","6660967fda8ceb61b53d4f5e","505","","j","","","","","","","","./tasks/HMM-beads/Images/NewTrialWC.png","lowH","1","21","1","1","1","1","true","",""
"image-keyboard-response","201","334761","0.0-3.0-6.0-1.0-1.21","64231dd75feb7c5e16e3d869","666094c154fdc95dca3e206f","6660967fda8ceb61b53d4f5e","null","","null","","","","","","","","./tasks/HMM-beads/Images/WhiteBeadChoice.png","","","","","","","","","",""
"image-keyboard-response","202","335264","0.0-3.0-6.0-1.0-2.21","64231dd75feb7c5e16e3d869","666094c154fdc95dca3e206f","6660967fda8ceb61b53d4f5e","null","","null","","","","","","","","./tasks/HMM-beads/Images/WhiteBeadChoiceCorrect.png","","","","","","","","","",""
"image-keyboard-response","203","335745","0.0-3.0-6.0-1.0-0.22","64231dd75feb7c5e16e3d869","666094c154fdc95dca3e206f","6660967fda8ceb61b53d4f5e","478","","j","","","","","","","","./tasks/HMM-beads/Images/NewTrialWC.png","lowH","1","22","1","1","1","1","true","",""
"image-keyboard-response","204","336061","0.0-3.0-6.0-1.0-1.22","64231dd75feb7c5e16e3d869","666094c154fdc95dca3e206f","6660967fda8ceb61b53d4f5e","null","","null","","","","","","","","./tasks/HMM-beads/Images/WhiteBeadChoice.png","","","","","","","","","",""
"image-keyboard-response","205","336564","0.0-3.0-6.0-1.0-2.22","64231dd75feb7c5e16e3d869","666094c154fdc95dca3e206f","6660967fda8ceb61b53d4f5e","null","","null","","","","","","","","./tasks/HMM-beads/Images/WhiteBeadChoiceCorrect.png","","","","","","","","","",""
"image-keyboard-response","206","337028","0.0-3.0-6.0-1.0-0.23","64231dd75feb7c5e16e3d869","666094c154fdc95dca3e206f","6660967fda8ceb61b53d4f5e","462","","j","","","","","","","","./tasks/HMM-beads/Images/NewTrialWC.png","lowH","1","23","1","1","1","1","true","",""
"image-keyboard-response","207","337345","0.0-3.0-6.0-1.0-1.23","64231dd75feb7c5e16e3d869","666094c154fdc95dca3e206f","6660967fda8ceb61b53d4f5e","null","","null","","","","","","","","./tasks/HMM-beads/Images/WhiteBeadChoice.png","","","","","","","","","",""
"image-keyboard-response","208","337848","0.0-3.0-6.0-1.0-2.23","64231dd75feb7c5e16e3d869","666094c154fdc95dca3e206f","6660967fda8ceb61b53d4f5e","null","","null","","","","","","","","./tasks/HMM-beads/Images/WhiteBeadChoiceCorrect.png","","","","","","","","","",""
"image-keyboard-response","209","338453","0.0-3.0-6.0-1.0-0.24","64231dd75feb7c5e16e3d869","666094c154fdc95dca3e206f","6660967fda8ceb61b53d4f5e","603","","j","","","","","","","","./tasks/HMM-beads/Images/NewTrialWC.png","lowH","1","24","1","0","1","1","false","",""
"image-keyboard-response","210","338760","0.0-3.0-6.0-1.0-1.24","64231dd75feb7c5e16e3d869","666094c154fdc95dca3e206f","6660967fda8ceb61b53d4f5e","null","","null","","","","","","","","./tasks/HMM-beads/Images/WhiteBeadChoice.png","","","","","","","","","",""
"image-keyboard-response","211","339264","0.0-3.0-6.0-1.0-2.24","64231dd75feb7c5e16e3d869","666094c154fdc95dca3e206f","6660967fda8ceb61b53d4f5e","null","","null","","","","","","","","./tasks/HMM-beads/Images/WhiteBeadChoiceWrong.png","","","","","","","","","",""
"image-keyboard-response","212","339696","0.0-3.0-6.0-1.0-0.25","64231dd75feb7c5e16e3d869","666094c154fdc95dca3e206f","6660967fda8ceb61b53d4f5e","430","","f","","","","","","","","./tasks/HMM-beads/Images/NewTrialBC.png","lowH","1","25","1","1","0","0","false","",""
"image-keyboard-response","213","340008","0.0-3.0-6.0-1.0-1.25","64231dd75feb7c5e16e3d869","666094c154fdc95dca3e206f","6660967fda8ceb61b53d4f5e","null","","null","","","","","","","","./tasks/HMM-beads/Images/BlackBeadChoice.png","","","","","","","","","",""
"image-keyboard-response","214","340515","0.0-3.0-6.0-1.0-2.25","64231dd75feb7c5e16e3d869","666094c154fdc95dca3e206f","6660967fda8ceb61b53d4f5e","null","","null","","","","","","","","./tasks/HMM-beads/Images/BlackBeadChoiceWrong.png","","","","","","","","","",""
"image-keyboard-response","215","340562","0.0-3.0-6.0-1.0-0.26","64231dd75feb7c5e16e3d869","666094c154fdc95dca3e206f","6660967fda8ceb61b53d4f5e","46","","j","","","","","","","","./tasks/HMM-beads/Images/NewTrialWC.png","lowH","1","26","1","0","1","1","false","",""
"image-keyboard-response","216","340876","0.0-3.0-6.0-1.0-1.26","64231dd75feb7c5e16e3d869","666094c154fdc95dca3e206f","6660967fda8ceb61b53d4f5e","null","","null","","","","","","","","./tasks/HMM-beads/Images/WhiteBeadChoice.png","","","","","","","","","",""
"image-keyboard-response","217","341382","0.0-3.0-6.0-1.0-2.26","64231dd75feb7c5e16e3d869","666094c154fdc95dca3e206f","6660967fda8ceb61b53d4f5e","null","","null","","","","","","","","./tasks/HMM-beads/Images/WhiteBeadChoiceWrong.png","","","","","","","","","",""
"image-keyboard-response","218","341648","0.0-3.0-6.0-1.0-0.27","64231dd75feb7c5e16e3d869","666094c154fdc95dca3e206f","6660967fda8ceb61b53d4f5e","264","","f","","","","","","","","./tasks/HMM-beads/Images/NewTrialBC.png","lowH","1","27","1","1","0","0","false","",""
"image-keyboard-response","219","341959","0.0-3.0-6.0-1.0-1.27","64231dd75feb7c5e16e3d869","666094c154fdc95dca3e206f","6660967fda8ceb61b53d4f5e","null","","null","","","","","","","","./tasks/HMM-beads/Images/BlackBeadChoice.png","","","","","","","","","",""
"image-keyboard-response","220","342465","0.0-3.0-6.0-1.0-2.27","64231dd75feb7c5e16e3d869","666094c154fdc95dca3e206f","6660967fda8ceb61b53d4f5e","null","","null","","","","","","","","./tasks/HMM-beads/Images/BlackBeadChoiceWrong.png","","","","","","","","","",""
"image-keyboard-response","221","343548","0.0-3.0-6.0-1.0-0.28","64231dd75feb7c5e16e3d869","666094c154fdc95dca3e206f","6660967fda8ceb61b53d4f5e","1082","","j","","","","","","","","./tasks/HMM-beads/Images/NewTrialWC.png","lowH","1","28","1","1","1","1","true","",""
"image-keyboard-response","222","343865","0.0-3.0-6.0-1.0-1.28","64231dd75feb7c5e16e3d869","666094c154fdc95dca3e206f","6660967fda8ceb61b53d4f5e","null","","null","","","","","","","","./tasks/HMM-beads/Images/WhiteBeadChoice.png","","","","","","","","","",""
"image-keyboard-response","223","344376","0.0-3.0-6.0-1.0-2.28","64231dd75feb7c5e16e3d869","666094c154fdc95dca3e206f","6660967fda8ceb61b53d4f5e","null","","null","","","","","","","","./tasks/HMM-beads/Images/WhiteBeadChoiceCorrect.png","","","","","","","","","",""
"image-keyboard-response","224","344843","0.0-3.0-6.0-1.0-0.29","64231dd75feb7c5e16e3d869","666094c154fdc95dca3e206f","6660967fda8ceb61b53d4f5e","466","","j","","","","","","","","./tasks/HMM-beads/Images/NewTrialWC.png","lowH","1","29","1","1","1","1","true","",""
"image-keyboard-response","225","345158","0.0-3.0-6.0-1.0-1.29","64231dd75feb7c5e16e3d869","666094c154fdc95dca3e206f","6660967fda8ceb61b53d4f5e","null","","null","","","","","","","","./tasks/HMM-beads/Images/WhiteBeadChoice.png","","","","","","","","","",""
"image-keyboard-response","226","345663","0.0-3.0-6.0-1.0-2.29","64231dd75feb7c5e16e3d869","666094c154fdc95dca3e206f","6660967fda8ceb61b53d4f5e","null","","null","","","","","","","","./tasks/HMM-beads/Images/WhiteBeadChoiceCorrect.png","","","","","","","","","",""
"image-keyboard-response","227","346096","0.0-3.0-6.0-1.0-0.30","64231dd75feb7c5e16e3d869","666094c154fdc95dca3e206f","6660967fda8ceb61b53d4f5e","432","","j","","","","","","","","./tasks/HMM-beads/Images/NewTrialWC.png","lowH","1","30","1","1","1","1","true","",""
"image-keyboard-response","228","346408","0.0-3.0-6.0-1.0-1.30","64231dd75feb7c5e16e3d869","666094c154fdc95dca3e206f","6660967fda8ceb61b53d4f5e","null","","null","","","","","","","","./tasks/HMM-beads/Images/WhiteBeadChoice.png","","","","","","","","","",""
"image-keyboard-response","229","346911","0.0-3.0-6.0-1.0-2.30","64231dd75feb7c5e16e3d869","666094c154fdc95dca3e206f","6660967fda8ceb61b53d4f5e","null","","null","","","","","","","","./tasks/HMM-beads/Images/WhiteBeadChoiceCorrect.png","","","","","","","","","",""
"image-keyboard-response","230","347378","0.0-3.0-6.0-1.0-0.31","64231dd75feb7c5e16e3d869","666094c154fdc95dca3e206f","6660967fda8ceb61b53d4f5e","465","","j","","","","","","","","./tasks/HMM-beads/Images/NewTrialWC.png","lowH","1","31","1","1","1","1","true","",""
"image-keyboard-response","231","347691","0.0-3.0-6.0-1.0-1.31","64231dd75feb7c5e16e3d869","666094c154fdc95dca3e206f","6660967fda8ceb61b53d4f5e","null","","null","","","","","","","","./tasks/HMM-beads/Images/WhiteBeadChoice.png","","","","","","","","","",""
"image-keyboard-response","232","348196","0.0-3.0-6.0-1.0-2.31","64231dd75feb7c5e16e3d869","666094c154fdc95dca3e206f","6660967fda8ceb61b53d4f5e","null","","null","","","","","","","","./tasks/HMM-beads/Images/WhiteBeadChoiceCorrect.png","","","","","","","","","",""
"image-keyboard-response","233","348761","0.0-3.0-6.0-1.0-0.32","64231dd75feb7c5e16e3d869","666094c154fdc95dca3e206f","6660967fda8ceb61b53d4f5e","563","","j","","","","","","","","./tasks/HMM-beads/Images/NewTrialWC.png","lowH","1","32","1","1","1","1","true","",""
"image-keyboard-response","234","349074","0.0-3.0-6.0-1.0-1.32","64231dd75feb7c5e16e3d869","666094c154fdc95dca3e206f","6660967fda8ceb61b53d4f5e","null","","null","","","","","","","","./tasks/HMM-beads/Images/WhiteBeadChoice.png","","","","","","","","","",""
"image-keyboard-response","235","349590","0.0-3.0-6.0-1.0-2.32","64231dd75feb7c5e16e3d869","666094c154fdc95dca3e206f","6660967fda8ceb61b53d4f5e","null","","null","","","","","","","","./tasks/HMM-beads/Images/WhiteBeadChoiceCorrect.png","","","","","","","","","",""
"image-keyboard-response","236","350478","0.0-3.0-6.0-1.0-0.33","64231dd75feb7c5e16e3d869","666094c154fdc95dca3e206f","6660967fda8ceb61b53d4f5e","886","","j","","","","","","","","./tasks/HMM-beads/Images/NewTrialWC.png","lowH","1","33","1","1","1","1","true","",""
"image-keyboard-response","237","350790","0.0-3.0-6.0-1.0-1.33","64231dd75feb7c5e16e3d869","666094c154fdc95dca3e206f","6660967fda8ceb61b53d4f5e","null","","null","","","","","","","","./tasks/HMM-beads/Images/WhiteBeadChoice.png","","","","","","","","","",""
"image-keyboard-response","238","351297","0.0-3.0-6.0-1.0-2.33","64231dd75feb7c5e16e3d869","666094c154fdc95dca3e206f","6660967fda8ceb61b53d4f5e","null","","null","","","","","","","","./tasks/HMM-beads/Images/WhiteBeadChoiceCorrect.png","","","","","","","","","",""
"image-keyboard-response","239","352091","0.0-3.0-6.0-1.0-0.34","64231dd75feb7c5e16e3d869","666094c154fdc95dca3e206f","6660967fda8ceb61b53d4f5e","792","","j","","","","","","","","./tasks/HMM-beads/Images/NewTrialWC.png","lowH","1","34","1","1","1","1","true","",""
"image-keyboard-response","240","352406","0.0-3.0-6.0-1.0-1.34","64231dd75feb7c5e16e3d869","666094c154fdc95dca3e206f","6660967fda8ceb61b53d4f5e","null","","null","","","","","","","","./tasks/HMM-beads/Images/WhiteBeadChoice.png","","","","","","","","","",""
"image-keyboard-response","241","352910","0.0-3.0-6.0-1.0-2.34","64231dd75feb7c5e16e3d869","666094c154fdc95dca3e206f","6660967fda8ceb61b53d4f5e","null","","null","","","","","","","","./tasks/HMM-beads/Images/WhiteBeadChoiceCorrect.png","","","","","","","","","",""
"image-keyboard-response","242","353480","0.0-3.0-6.0-1.0-0.35","64231dd75feb7c5e16e3d869","666094c154fdc95dca3e206f","6660967fda8ceb61b53d4f5e","569","","j","","","","","","","","./tasks/HMM-beads/Images/NewTrialWC.png","lowH","1","35","1","1","1","1","true","",""
"image-keyboard-response","243","353789","0.0-3.0-6.0-1.0-1.35","64231dd75feb7c5e16e3d869","666094c154fdc95dca3e206f","6660967fda8ceb61b53d4f5e","null","","null","","","","","","","","./tasks/HMM-beads/Images/WhiteBeadChoice.png","","","","","","","","","",""
"image-keyboard-response","244","354294","0.0-3.0-6.0-1.0-2.35","64231dd75feb7c5e16e3d869","666094c154fdc95dca3e206f","6660967fda8ceb61b53d4f5e","null","","null","","","","","","","","./tasks/HMM-beads/Images/WhiteBeadChoiceCorrect.png","","","","","","","","","",""
"image-keyboard-response","245","354693","0.0-3.0-6.0-1.0-0.36","64231dd75feb7c5e16e3d869","666094c154fdc95dca3e206f","6660967fda8ceb61b53d4f5e","397","","j","","","","","","","","./tasks/HMM-beads/Images/NewTrialWC.png","lowH","1","36","1","1","1","1","true","",""
"image-keyboard-response","246","355005","0.0-3.0-6.0-1.0-1.36","64231dd75feb7c5e16e3d869","666094c154fdc95dca3e206f","6660967fda8ceb61b53d4f5e","null","","null","","","","","","","","./tasks/HMM-beads/Images/WhiteBeadChoice.png","","","","","","","","","",""
"image-keyboard-response","247","355511","0.0-3.0-6.0-1.0-2.36","64231dd75feb7c5e16e3d869","666094c154fdc95dca3e206f","6660967fda8ceb61b53d4f5e","null","","null","","","","","","","","./tasks/HMM-beads/Images/WhiteBeadChoiceCorrect.png","","","","","","","","","",""
"image-keyboard-response","248","355847","0.0-3.0-6.0-1.0-0.37","64231dd75feb7c5e16e3d869","666094c154fdc95dca3e206f","6660967fda8ceb61b53d4f5e","335","","j","","","","","","","","./tasks/HMM-beads/Images/NewTrialWC.png","lowH","1","37","1","1","1","1","true","",""
"image-keyboard-response","249","356154","0.0-3.0-6.0-1.0-1.37","64231dd75feb7c5e16e3d869","666094c154fdc95dca3e206f","6660967fda8ceb61b53d4f5e","null","","null","","","","","","","","./tasks/HMM-beads/Images/WhiteBeadChoice.png","","","","","","","","","",""
"image-keyboard-response","250","356658","0.0-3.0-6.0-1.0-2.37","64231dd75feb7c5e16e3d869","666094c154fdc95dca3e206f","6660967fda8ceb61b53d4f5e","null","","null","","","","","","","","./tasks/HMM-beads/Images/WhiteBeadChoiceCorrect.png","","","","","","","","","",""
"image-keyboard-response","251","356947","0.0-3.0-6.0-1.0-0.38","64231dd75feb7c5e16e3d869","666094c154fdc95dca3e206f","6660967fda8ceb61b53d4f5e","287","","j","","","","","","","","./tasks/HMM-beads/Images/NewTrialWC.png","lowH","1","38","1","1","1","1","true","",""
"image-keyboard-response","252","357254","0.0-3.0-6.0-1.0-1.38","64231dd75feb7c5e16e3d869","666094c154fdc95dca3e206f","6660967fda8ceb61b53d4f5e","null","","null","","","","","","","","./tasks/HMM-beads/Images/WhiteBeadChoice.png","","","","","","","","","",""
"image-keyboard-response","253","357773","0.0-3.0-6.0-1.0-2.38","64231dd75feb7c5e16e3d869","666094c154fdc95dca3e206f","6660967fda8ceb61b53d4f5e","null","","null","","","","","","","","./tasks/HMM-beads/Images/WhiteBeadChoiceCorrect.png","","","","","","","","","",""
"image-keyboard-response","254","358046","0.0-3.0-6.0-1.0-0.39","64231dd75feb7c5e16e3d869","666094c154fdc95dca3e206f","6660967fda8ceb61b53d4f5e","271","","j","","","","","","","","./tasks/HMM-beads/Images/NewTrialWC.png","lowH","1","39","1","1","1","1","true","",""
"image-keyboard-response","255","358354","0.0-3.0-6.0-1.0-1.39","64231dd75feb7c5e16e3d869","666094c154fdc95dca3e206f","6660967fda8ceb61b53d4f5e","null","","null","","","","","","","","./tasks/HMM-beads/Images/WhiteBeadChoice.png","","","","","","","","","",""
"image-keyboard-response","256","358857","0.0-3.0-6.0-1.0-2.39","64231dd75feb7c5e16e3d869","666094c154fdc95dca3e206f","6660967fda8ceb61b53d4f5e","null","","null","","","","","","","","./tasks/HMM-beads/Images/WhiteBeadChoiceCorrect.png","","","","","","","","","",""
"image-keyboard-response","257","359108","0.0-3.0-6.0-1.0-0.40","64231dd75feb7c5e16e3d869","666094c154fdc95dca3e206f","6660967fda8ceb61b53d4f5e","249","","j","","","","","","","","./tasks/HMM-beads/Images/NewTrialWC.png","lowH","1","40","1","1","1","1","true","",""
"image-keyboard-response","258","359418","0.0-3.0-6.0-1.0-1.40","64231dd75feb7c5e16e3d869","666094c154fdc95dca3e206f","6660967fda8ceb61b53d4f5e","null","","null","","","","","","","","./tasks/HMM-beads/Images/WhiteBeadChoice.png","","","","","","","","","",""
"image-keyboard-response","259","359924","0.0-3.0-6.0-1.0-2.40","64231dd75feb7c5e16e3d869","666094c154fdc95dca3e206f","6660967fda8ceb61b53d4f5e","null","","null","","","","","","","","./tasks/HMM-beads/Images/WhiteBeadChoiceCorrect.png","","","","","","","","","",""
"image-keyboard-response","260","360181","0.0-3.0-6.0-1.0-0.41","64231dd75feb7c5e16e3d869","666094c154fdc95dca3e206f","6660967fda8ceb61b53d4f5e","255","","j","","","","","","","","./tasks/HMM-beads/Images/NewTrialWC.png","lowH","1","41","1","1","1","1","true","",""
"image-keyboard-response","261","360489","0.0-3.0-6.0-1.0-1.41","64231dd75feb7c5e16e3d869","666094c154fdc95dca3e206f","6660967fda8ceb61b53d4f5e","null","","null","","","","","","","","./tasks/HMM-beads/Images/WhiteBeadChoice.png","","","","","","","","","",""
"image-keyboard-response","262","360997","0.0-3.0-6.0-1.0-2.41","64231dd75feb7c5e16e3d869","666094c154fdc95dca3e206f","6660967fda8ceb61b53d4f5e","null","","null","","","","","","","","./tasks/HMM-beads/Images/WhiteBeadChoiceCorrect.png","","","","","","","","","",""
"image-keyboard-response","263","361253","0.0-3.0-6.0-1.0-0.42","64231dd75feb7c5e16e3d869","666094c154fdc95dca3e206f","6660967fda8ceb61b53d4f5e","255","","j","","","","","","","","./tasks/HMM-beads/Images/NewTrialWC.png","lowH","1","42","1","1","1","1","true","",""
"image-keyboard-response","264","361570","0.0-3.0-6.0-1.0-1.42","64231dd75feb7c5e16e3d869","666094c154fdc95dca3e206f","6660967fda8ceb61b53d4f5e","null","","null","","","","","","","","./tasks/HMM-beads/Images/WhiteBeadChoice.png","","","","","","","","","",""
"image-keyboard-response","265","362074","0.0-3.0-6.0-1.0-2.42","64231dd75feb7c5e16e3d869","666094c154fdc95dca3e206f","6660967fda8ceb61b53d4f5e","null","","null","","","","","","","","./tasks/HMM-beads/Images/WhiteBeadChoiceCorrect.png","","","","","","","","","",""
"image-keyboard-response","266","362378","0.0-3.0-6.0-1.0-0.43","64231dd75feb7c5e16e3d869","666094c154fdc95dca3e206f","6660967fda8ceb61b53d4f5e","301","","j","","","","","","","","./tasks/HMM-beads/Images/NewTrialWC.png","lowH","1","43","1","1","1","1","true","",""
"image-keyboard-response","267","362686","0.0-3.0-6.0-1.0-1.43","64231dd75feb7c5e16e3d869","666094c154fdc95dca3e206f","6660967fda8ceb61b53d4f5e","null","","null","","","","","","","","./tasks/HMM-beads/Images/WhiteBeadChoice.png","","","","","","","","","",""
"image-keyboard-response","268","363190","0.0-3.0-6.0-1.0-2.43","64231dd75feb7c5e16e3d869","666094c154fdc95dca3e206f","6660967fda8ceb61b53d4f5e","null","","null","","","","","","","","./tasks/HMM-beads/Images/WhiteBeadChoiceCorrect.png","","","","","","","","","",""
"image-keyboard-response","269","363500","0.0-3.0-6.0-1.0-0.44","64231dd75feb7c5e16e3d869","666094c154fdc95dca3e206f","6660967fda8ceb61b53d4f5e","309","","j","","","","","","","","./tasks/HMM-beads/Images/NewTrialWC.png","lowH","1","44","1","1","1","1","true","",""
"image-keyboard-response","270","363803","0.0-3.0-6.0-1.0-1.44","64231dd75feb7c5e16e3d869","666094c154fdc95dca3e206f","6660967fda8ceb61b53d4f5e","null","","null","","","","","","","","./tasks/HMM-beads/Images/WhiteBeadChoice.png","","","","","","","","","",""
"image-keyboard-response","271","364306","0.0-3.0-6.0-1.0-2.44","64231dd75feb7c5e16e3d869","666094c154fdc95dca3e206f","6660967fda8ceb61b53d4f5e","null","","null","","","","","","","","./tasks/HMM-beads/Images/WhiteBeadChoiceCorrect.png","","","","","","","","","",""
"image-keyboard-response","272","364559","0.0-3.0-6.0-1.0-0.45","64231dd75feb7c5e16e3d869","666094c154fdc95dca3e206f","6660967fda8ceb61b53d4f5e","251","","j","","","","","","","","./tasks/HMM-beads/Images/NewTrialWC.png","lowH","1","45","1","1","1","1","true","",""
"image-keyboard-response","273","364868","0.0-3.0-6.0-1.0-1.45","64231dd75feb7c5e16e3d869","666094c154fdc95dca3e206f","6660967fda8ceb61b53d4f5e","null","","null","","","","","","","","./tasks/HMM-beads/Images/WhiteBeadChoice.png","","","","","","","","","",""
"image-keyboard-response","274","365385","0.0-3.0-6.0-1.0-2.45","64231dd75feb7c5e16e3d869","666094c154fdc95dca3e206f","6660967fda8ceb61b53d4f5e","null","","null","","","","","","","","./tasks/HMM-beads/Images/WhiteBeadChoiceCorrect.png","","","","","","","","","",""
"image-keyboard-response","275","365639","0.0-3.0-6.0-1.0-0.46","64231dd75feb7c5e16e3d869","666094c154fdc95dca3e206f","6660967fda8ceb61b53d4f5e","252","","j","","","","","","","","./tasks/HMM-beads/Images/NewTrialWC.png","lowH","1","46","1","1","1","1","true","",""
"image-keyboard-response","276","365952","0.0-3.0-6.0-1.0-1.46","64231dd75feb7c5e16e3d869","666094c154fdc95dca3e206f","6660967fda8ceb61b53d4f5e","null","","null","","","","","","","","./tasks/HMM-beads/Images/WhiteBeadChoice.png","","","","","","","","","",""
"image-keyboard-response","277","366455","0.0-3.0-6.0-1.0-2.46","64231dd75feb7c5e16e3d869","666094c154fdc95dca3e206f","6660967fda8ceb61b53d4f5e","null","","null","","","","","","","","./tasks/HMM-beads/Images/WhiteBeadChoiceCorrect.png","","","","","","","","","",""
"image-keyboard-response","278","366493","0.0-3.0-6.0-1.0-0.47","64231dd75feb7c5e16e3d869","666094c154fdc95dca3e206f","6660967fda8ceb61b53d4f5e","37","","j","","","","","","","","./tasks/HMM-beads/Images/NewTrialWC.png","lowH","1","47","1","0","1","1","false","",""
"image-keyboard-response","279","366796","0.0-3.0-6.0-1.0-1.47","64231dd75feb7c5e16e3d869","666094c154fdc95dca3e206f","6660967fda8ceb61b53d4f5e","null","","null","","","","","","","","./tasks/HMM-beads/Images/WhiteBeadChoice.png","","","","","","","","","",""
"image-keyboard-response","280","367306","0.0-3.0-6.0-1.0-2.47","64231dd75feb7c5e16e3d869","666094c154fdc95dca3e206f","6660967fda8ceb61b53d4f5e","null","","null","","","","","","","","./tasks/HMM-beads/Images/WhiteBeadChoiceWrong.png","","","","","","","","","",""
"image-keyboard-response","281","367791","0.0-3.0-6.0-1.0-0.48","64231dd75feb7c5e16e3d869","666094c154fdc95dca3e206f","6660967fda8ceb61b53d4f5e","483","","f","","","","","","","","./tasks/HMM-beads/Images/NewTrialBC.png","lowH","1","48","1","0","0","0","true","",""
"image-keyboard-response","282","368101","0.0-3.0-6.0-1.0-1.48","64231dd75feb7c5e16e3d869","666094c154fdc95dca3e206f","6660967fda8ceb61b53d4f5e","null","","null","","","","","","","","./tasks/HMM-beads/Images/BlackBeadChoice.png","","","","","","","","","",""
"image-keyboard-response","283","368604","0.0-3.0-6.0-1.0-2.48","64231dd75feb7c5e16e3d869","666094c154fdc95dca3e206f","6660967fda8ceb61b53d4f5e","null","","null","","","","","","","","./tasks/HMM-beads/Images/BlackBeadChoiceCorrect.png","","","","","","","","","",""
"image-keyboard-response","284","369252","0.0-3.0-6.0-1.0-0.49","64231dd75feb7c5e16e3d869","666094c154fdc95dca3e206f","6660967fda8ceb61b53d4f5e","645","","f","","","","","","","","./tasks/HMM-beads/Images/NewTrialBC.png","lowH","1","49","1","0","0","0","true","",""
"image-keyboard-response","285","369567","0.0-3.0-6.0-1.0-1.49","64231dd75feb7c5e16e3d869","666094c154fdc95dca3e206f","6660967fda8ceb61b53d4f5e","null","","null","","","","","","","","./tasks/HMM-beads/Images/BlackBeadChoice.png","","","","","","","","","",""
"image-keyboard-response","286","370071","0.0-3.0-6.0-1.0-2.49","64231dd75feb7c5e16e3d869","666094c154fdc95dca3e206f","6660967fda8ceb61b53d4f5e","null","","null","","","","","","","","./tasks/HMM-beads/Images/BlackBeadChoiceCorrect.png","","","","","","","","","",""
"image-keyboard-response","287","370517","0.0-3.0-6.0-1.0-0.50","64231dd75feb7c5e16e3d869","666094c154fdc95dca3e206f","6660967fda8ceb61b53d4f5e","444","","f","","","","","","","","./tasks/HMM-beads/Images/NewTrialBC.png","lowH","1","50","1","1","0","0","false","",""
"image-keyboard-response","288","370833","0.0-3.0-6.0-1.0-1.50","64231dd75feb7c5e16e3d869","666094c154fdc95dca3e206f","6660967fda8ceb61b53d4f5e","null","","null","","","","","","","","./tasks/HMM-beads/Images/BlackBeadChoice.png","","","","","","","","","",""
"image-keyboard-response","289","371337","0.0-3.0-6.0-1.0-2.50","64231dd75feb7c5e16e3d869","666094c154fdc95dca3e206f","6660967fda8ceb61b53d4f5e","null","","null","","","","","","","","./tasks/HMM-beads/Images/BlackBeadChoiceWrong.png","","","","","","","","","",""
"image-keyboard-response","290","371694","0.0-3.0-6.0-1.0-0.51","64231dd75feb7c5e16e3d869","666094c154fdc95dca3e206f","6660967fda8ceb61b53d4f5e","356","","j","","","","","","","","./tasks/HMM-beads/Images/NewTrialWC.png","lowH","1","51","1","1","1","1","true","",""
"image-keyboard-response","291","372001","0.0-3.0-6.0-1.0-1.51","64231dd75feb7c5e16e3d869","666094c154fdc95dca3e206f","6660967fda8ceb61b53d4f5e","null","","null","","","","","","","","./tasks/HMM-beads/Images/WhiteBeadChoice.png","","","","","","","","","",""
"image-keyboard-response","292","372503","0.0-3.0-6.0-1.0-2.51","64231dd75feb7c5e16e3d869","666094c154fdc95dca3e206f","6660967fda8ceb61b53d4f5e","null","","null","","","","","","","","./tasks/HMM-beads/Images/WhiteBeadChoiceCorrect.png","","","","","","","","","",""
"image-keyboard-response","293","372623","0.0-3.0-6.0-1.0-0.52","64231dd75feb7c5e16e3d869","666094c154fdc95dca3e206f","6660967fda8ceb61b53d4f5e","118","","j","","","","","","","","./tasks/HMM-beads/Images/NewTrialWC.png","lowH","1","52","1","1","1","1","true","",""
"image-keyboard-response","294","372932","0.0-3.0-6.0-1.0-1.52","64231dd75feb7c5e16e3d869","666094c154fdc95dca3e206f","6660967fda8ceb61b53d4f5e","null","","null","","","","","","","","./tasks/HMM-beads/Images/WhiteBeadChoice.png","","","","","","","","","",""
"image-keyboard-response","295","373443","0.0-3.0-6.0-1.0-2.52","64231dd75feb7c5e16e3d869","666094c154fdc95dca3e206f","6660967fda8ceb61b53d4f5e","null","","null","","","","","","","","./tasks/HMM-beads/Images/WhiteBeadChoiceCorrect.png","","","","","","","","","",""
"image-keyboard-response","296","373896","0.0-3.0-6.0-1.0-0.53","64231dd75feb7c5e16e3d869","666094c154fdc95dca3e206f","6660967fda8ceb61b53d4f5e","452","","j","","","","","","","","./tasks/HMM-beads/Images/NewTrialWC.png","lowH","1","53","1","1","1","1","true","",""
"image-keyboard-response","297","374201","0.0-3.0-6.0-1.0-1.53","64231dd75feb7c5e16e3d869","666094c154fdc95dca3e206f","6660967fda8ceb61b53d4f5e","null","","null","","","","","","","","./tasks/HMM-beads/Images/WhiteBeadChoice.png","","","","","","","","","",""
"image-keyboard-response","298","374703","0.0-3.0-6.0-1.0-2.53","64231dd75feb7c5e16e3d869","666094c154fdc95dca3e206f","6660967fda8ceb61b53d4f5e","null","","null","","","","","","","","./tasks/HMM-beads/Images/WhiteBeadChoiceCorrect.png","","","","","","","","","",""
"image-keyboard-response","299","375178","0.0-3.0-6.0-1.0-0.54","64231dd75feb7c5e16e3d869","666094c154fdc95dca3e206f","6660967fda8ceb61b53d4f5e","473","","j","","","","","","","","./tasks/HMM-beads/Images/NewTrialWC.png","lowH","1","54","1","1","1","1","true","",""
"image-keyboard-response","300","375482","0.0-3.0-6.0-1.0-1.54","64231dd75feb7c5e16e3d869","666094c154fdc95dca3e206f","6660967fda8ceb61b53d4f5e","null","","null","","","","","","","","./tasks/HMM-beads/Images/WhiteBeadChoice.png","","","","","","","","","",""
"image-keyboard-response","301","375985","0.0-3.0-6.0-1.0-2.54","64231dd75feb7c5e16e3d869","666094c154fdc95dca3e206f","6660967fda8ceb61b53d4f5e","null","","null","","","","","","","","./tasks/HMM-beads/Images/WhiteBeadChoiceCorrect.png","","","","","","","","","",""
"image-keyboard-response","302","376469","0.0-3.0-6.0-1.0-0.55","64231dd75feb7c5e16e3d869","666094c154fdc95dca3e206f","6660967fda8ceb61b53d4f5e","482","","j","","","","","","","","./tasks/HMM-beads/Images/NewTrialWC.png","lowH","1","55","1","1","1","1","true","",""
"image-keyboard-response","303","376781","0.0-3.0-6.0-1.0-1.55","64231dd75feb7c5e16e3d869","666094c154fdc95dca3e206f","6660967fda8ceb61b53d4f5e","null","","null","","","","","","","","./tasks/HMM-beads/Images/WhiteBeadChoice.png","","","","","","","","","",""
"image-keyboard-response","304","377285","0.0-3.0-6.0-1.0-2.55","64231dd75feb7c5e16e3d869","666094c154fdc95dca3e206f","6660967fda8ceb61b53d4f5e","null","","null","","","","","","","","./tasks/HMM-beads/Images/WhiteBeadChoiceCorrect.png","","","","","","","","","",""
"image-keyboard-response","305","377816","0.0-3.0-6.0-1.0-0.56","64231dd75feb7c5e16e3d869","666094c154fdc95dca3e206f","6660967fda8ceb61b53d4f5e","529","","j","","","","","","","","./tasks/HMM-beads/Images/NewTrialWC.png","lowH","1","56","1","1","1","1","true","",""
"image-keyboard-response","306","378131","0.0-3.0-6.0-1.0-1.56","64231dd75feb7c5e16e3d869","666094c154fdc95dca3e206f","6660967fda8ceb61b53d4f5e","null","","null","","","","","","","","./tasks/HMM-beads/Images/WhiteBeadChoice.png","","","","","","","","","",""
"image-keyboard-response","307","378636","0.0-3.0-6.0-1.0-2.56","64231dd75feb7c5e16e3d869","666094c154fdc95dca3e206f","6660967fda8ceb61b53d4f5e","null","","null","","","","","","","","./tasks/HMM-beads/Images/WhiteBeadChoiceCorrect.png","","","","","","","","","",""
"image-keyboard-response","308","379022","0.0-3.0-6.0-1.0-0.57","64231dd75feb7c5e16e3d869","666094c154fdc95dca3e206f","6660967fda8ceb61b53d4f5e","384","","j","","","","","","","","./tasks/HMM-beads/Images/NewTrialWC.png","lowH","1","57","1","1","1","1","true","",""
"image-keyboard-response","309","379330","0.0-3.0-6.0-1.0-1.57","64231dd75feb7c5e16e3d869","666094c154fdc95dca3e206f","6660967fda8ceb61b53d4f5e","null","","null","","","","","","","","./tasks/HMM-beads/Images/WhiteBeadChoice.png","","","","","","","","","",""
"image-keyboard-response","310","379833","0.0-3.0-6.0-1.0-2.57","64231dd75feb7c5e16e3d869","666094c154fdc95dca3e206f","6660967fda8ceb61b53d4f5e","null","","null","","","","","","","","./tasks/HMM-beads/Images/WhiteBeadChoiceCorrect.png","","","","","","","","","",""
"image-keyboard-response","311","380397","0.0-3.0-6.0-1.0-0.58","64231dd75feb7c5e16e3d869","666094c154fdc95dca3e206f","6660967fda8ceb61b53d4f5e","562","","j","","","","","","","","./tasks/HMM-beads/Images/NewTrialWC.png","lowH","1","58","1","1","1","1","true","",""
"image-keyboard-response","312","380713","0.0-3.0-6.0-1.0-1.58","64231dd75feb7c5e16e3d869","666094c154fdc95dca3e206f","6660967fda8ceb61b53d4f5e","null","","null","","","","","","","","./tasks/HMM-beads/Images/WhiteBeadChoice.png","","","","","","","","","",""
"image-keyboard-response","313","381217","0.0-3.0-6.0-1.0-2.58","64231dd75feb7c5e16e3d869","666094c154fdc95dca3e206f","6660967fda8ceb61b53d4f5e","null","","null","","","","","","","","./tasks/HMM-beads/Images/WhiteBeadChoiceCorrect.png","","","","","","","","","",""
"image-keyboard-response","314","381598","0.0-3.0-6.0-1.0-0.59","64231dd75feb7c5e16e3d869","666094c154fdc95dca3e206f","6660967fda8ceb61b53d4f5e","380","","j","","","","","","","","./tasks/HMM-beads/Images/NewTrialWC.png","lowH","1","59","1","0","1","1","false","",""
"image-keyboard-response","315","381913","0.0-3.0-6.0-1.0-1.59","64231dd75feb7c5e16e3d869","666094c154fdc95dca3e206f","6660967fda8ceb61b53d4f5e","null","","null","","","","","","","","./tasks/HMM-beads/Images/WhiteBeadChoice.png","","","","","","","","","",""
"image-keyboard-response","316","382418","0.0-3.0-6.0-1.0-2.59","64231dd75feb7c5e16e3d869","666094c154fdc95dca3e206f","6660967fda8ceb61b53d4f5e","null","","null","","","","","","","","./tasks/HMM-beads/Images/WhiteBeadChoiceWrong.png","","","","","","","","","",""
"image-keyboard-response","317","383143","0.0-3.0-6.0-1.0-0.60","64231dd75feb7c5e16e3d869","666094c154fdc95dca3e206f","6660967fda8ceb61b53d4f5e","723","","f","","","","","","","","./tasks/HMM-beads/Images/NewTrialBC.png","lowH","1","60","1","1","0","0","false","",""
"image-keyboard-response","318","383449","0.0-3.0-6.0-1.0-1.60","64231dd75feb7c5e16e3d869","666094c154fdc95dca3e206f","6660967fda8ceb61b53d4f5e","null","","null","","","","","","","","./tasks/HMM-beads/Images/BlackBeadChoice.png","","","","","","","","","",""
"image-keyboard-response","319","383954","0.0-3.0-6.0-1.0-2.60","64231dd75feb7c5e16e3d869","666094c154fdc95dca3e206f","6660967fda8ceb61b53d4f5e","null","","null","","","","","","","","./tasks/HMM-beads/Images/BlackBeadChoiceWrong.png","","","","","","","","","",""
"image-keyboard-response","320","384583","0.0-3.0-6.0-1.0-0.61","64231dd75feb7c5e16e3d869","666094c154fdc95dca3e206f","6660967fda8ceb61b53d4f5e","627","","j","","","","","","","","./tasks/HMM-beads/Images/NewTrialWC.png","lowH","1","61","1","1","1","1","true","",""
"image-keyboard-response","321","384895","0.0-3.0-6.0-1.0-1.61","64231dd75feb7c5e16e3d869","666094c154fdc95dca3e206f","6660967fda8ceb61b53d4f5e","null","","null","","","","","","","","./tasks/HMM-beads/Images/WhiteBeadChoice.png","","","","","","","","","",""
"image-keyboard-response","322","385398","0.0-3.0-6.0-1.0-2.61","64231dd75feb7c5e16e3d869","666094c154fdc95dca3e206f","6660967fda8ceb61b53d4f5e","null","","null","","","","","","","","./tasks/HMM-beads/Images/WhiteBeadChoiceCorrect.png","","","","","","","","","",""
"image-keyboard-response","323","385746","0.0-3.0-6.0-1.0-0.62","64231dd75feb7c5e16e3d869","666094c154fdc95dca3e206f","6660967fda8ceb61b53d4f5e","346","","j","","","","","","","","./tasks/HMM-beads/Images/NewTrialWC.png","lowH","1","62","1","0","1","1","false","",""
"image-keyboard-response","324","386061","0.0-3.0-6.0-1.0-1.62","64231dd75feb7c5e16e3d869","666094c154fdc95dca3e206f","6660967fda8ceb61b53d4f5e","null","","null","","","","","","","","./tasks/HMM-beads/Images/WhiteBeadChoice.png","","","","","","","","","",""
"image-keyboard-response","325","386565","0.0-3.0-6.0-1.0-2.62","64231dd75feb7c5e16e3d869","666094c154fdc95dca3e206f","6660967fda8ceb61b53d4f5e","null","","null","","","","","","","","./tasks/HMM-beads/Images/WhiteBeadChoiceWrong.png","","","","","","","","","",""
"image-keyboard-response","326","386801","0.0-3.0-6.0-1.0-0.63","64231dd75feb7c5e16e3d869","666094c154fdc95dca3e206f","6660967fda8ceb61b53d4f5e","234","","f","","","","","","","","./tasks/HMM-beads/Images/NewTrialBC.png","lowH","1","63","1","1","0","0","false","",""
"image-keyboard-response","327","387111","0.0-3.0-6.0-1.0-1.63","64231dd75feb7c5e16e3d869","666094c154fdc95dca3e206f","6660967fda8ceb61b53d4f5e","null","","null","","","","","","","","./tasks/HMM-beads/Images/BlackBeadChoice.png","","","","","","","","","",""
"image-keyboard-response","328","387614","0.0-3.0-6.0-1.0-2.63","64231dd75feb7c5e16e3d869","666094c154fdc95dca3e206f","6660967fda8ceb61b53d4f5e","null","","null","","","","","","","","./tasks/HMM-beads/Images/BlackBeadChoiceWrong.png","","","","","","","","","",""
"image-keyboard-response","329","387918","0.0-3.0-6.0-1.0-0.64","64231dd75feb7c5e16e3d869","666094c154fdc95dca3e206f","6660967fda8ceb61b53d4f5e","303","","j","","","","","","","","./tasks/HMM-beads/Images/NewTrialWC.png","lowH","1","64","1","1","1","1","true","",""
"image-keyboard-response","330","388226","0.0-3.0-6.0-1.0-1.64","64231dd75feb7c5e16e3d869","666094c154fdc95dca3e206f","6660967fda8ceb61b53d4f5e","null","","null","","","","","","","","./tasks/HMM-beads/Images/WhiteBeadChoice.png","","","","","","","","","",""
"image-keyboard-response","331","388740","0.0-3.0-6.0-1.0-2.64","64231dd75feb7c5e16e3d869","666094c154fdc95dca3e206f","6660967fda8ceb61b53d4f5e","null","","null","","","","","","","","./tasks/HMM-beads/Images/WhiteBeadChoiceCorrect.png","","","","","","","","","",""
"image-keyboard-response","332","388761","0.0-3.0-6.0-1.0-0.65","64231dd75feb7c5e16e3d869","666094c154fdc95dca3e206f","6660967fda8ceb61b53d4f5e","19","","j","","","","","","","","./tasks/HMM-beads/Images/NewTrialWC.png","lowH","1","65","1","1","1","1","true","",""
"image-keyboard-response","333","389077","0.0-3.0-6.0-1.0-1.65","64231dd75feb7c5e16e3d869","666094c154fdc95dca3e206f","6660967fda8ceb61b53d4f5e","null","","null","","","","","","","","./tasks/HMM-beads/Images/WhiteBeadChoice.png","","","","","","","","","",""
"image-keyboard-response","334","389584","0.0-3.0-6.0-1.0-2.65","64231dd75feb7c5e16e3d869","666094c154fdc95dca3e206f","6660967fda8ceb61b53d4f5e","null","","null","","","","","","","","./tasks/HMM-beads/Images/WhiteBeadChoiceCorrect.png","","","","","","","","","",""
"image-keyboard-response","335","389586","0.0-3.0-6.0-1.0-0.66","64231dd75feb7c5e16e3d869","666094c154fdc95dca3e206f","6660967fda8ceb61b53d4f5e","0","","j","","","","","","","","./tasks/HMM-beads/Images/NewTrialWC.png","lowH","1","66","1","1","1","1","true","",""
"image-keyboard-response","336","389893","0.0-3.0-6.0-1.0-1.66","64231dd75feb7c5e16e3d869","666094c154fdc95dca3e206f","6660967fda8ceb61b53d4f5e","null","","null","","","","","","","","./tasks/HMM-beads/Images/WhiteBeadChoice.png","","","","","","","","","",""
"image-keyboard-response","337","390399","0.0-3.0-6.0-1.0-2.66","64231dd75feb7c5e16e3d869","666094c154fdc95dca3e206f","6660967fda8ceb61b53d4f5e","null","","null","","","","","","","","./tasks/HMM-beads/Images/WhiteBeadChoiceCorrect.png","","","","","","","","","",""
"image-keyboard-response","338","390882","0.0-3.0-6.0-1.0-0.67","64231dd75feb7c5e16e3d869","666094c154fdc95dca3e206f","6660967fda8ceb61b53d4f5e","481","","j","","","","","","","","./tasks/HMM-beads/Images/NewTrialWC.png","lowH","1","67","1","0","1","1","false","",""
"image-keyboard-response","339","391193","0.0-3.0-6.0-1.0-1.67","64231dd75feb7c5e16e3d869","666094c154fdc95dca3e206f","6660967fda8ceb61b53d4f5e","null","","null","","","","","","","","./tasks/HMM-beads/Images/WhiteBeadChoice.png","","","","","","","","","",""
"image-keyboard-response","340","391697","0.0-3.0-6.0-1.0-2.67","64231dd75feb7c5e16e3d869","666094c154fdc95dca3e206f","6660967fda8ceb61b53d4f5e","null","","null","","","","","","","","./tasks/HMM-beads/Images/WhiteBeadChoiceWrong.png","","","","","","","","","",""
"image-keyboard-response","341","392163","0.0-3.0-6.0-1.0-0.68","64231dd75feb7c5e16e3d869","666094c154fdc95dca3e206f","6660967fda8ceb61b53d4f5e","465","","f","","","","","","","","./tasks/HMM-beads/Images/NewTrialBC.png","lowH","1","68","1","1","0","0","false","",""
"image-keyboard-response","342","392476","0.0-3.0-6.0-1.0-1.68","64231dd75feb7c5e16e3d869","666094c154fdc95dca3e206f","6660967fda8ceb61b53d4f5e","null","","null","","","","","","","","./tasks/HMM-beads/Images/BlackBeadChoice.png","","","","","","","","","",""
"image-keyboard-response","343","392993","0.0-3.0-6.0-1.0-2.68","64231dd75feb7c5e16e3d869","666094c154fdc95dca3e206f","6660967fda8ceb61b53d4f5e","null","","null","","","","","","","","./tasks/HMM-beads/Images/BlackBeadChoiceWrong.png","","","","","","","","","",""
"image-keyboard-response","344","393024","0.0-3.0-6.0-1.0-0.69","64231dd75feb7c5e16e3d869","666094c154fdc95dca3e206f","6660967fda8ceb61b53d4f5e","29","","j","","","","","","","","./tasks/HMM-beads/Images/NewTrialWC.png","lowH","1","69","0","1","1","1","true","",""
"image-keyboard-response","345","393326","0.0-3.0-6.0-1.0-1.69","64231dd75feb7c5e16e3d869","666094c154fdc95dca3e206f","6660967fda8ceb61b53d4f5e","null","","null","","","","","","","","./tasks/HMM-beads/Images/WhiteBeadChoice.png","","","","","","","","","",""
"image-keyboard-response","346","393829","0.0-3.0-6.0-1.0-2.69","64231dd75feb7c5e16e3d869","666094c154fdc95dca3e206f","6660967fda8ceb61b53d4f5e","null","","null","","","","","","","","./tasks/HMM-beads/Images/WhiteBeadChoiceCorrect.png","","","","","","","","","",""
"image-keyboard-response","347","393981","0.0-3.0-6.0-1.0-0.70","64231dd75feb7c5e16e3d869","666094c154fdc95dca3e206f","6660967fda8ceb61b53d4f5e","151","","j","","","","","","","","./tasks/HMM-beads/Images/NewTrialWC.png","lowH","1","70","0","1","1","1","true","",""
"image-keyboard-response","348","394292","0.0-3.0-6.0-1.0-1.70","64231dd75feb7c5e16e3d869","666094c154fdc95dca3e206f","6660967fda8ceb61b53d4f5e","null","","null","","","","","","","","./tasks/HMM-beads/Images/WhiteBeadChoice.png","","","","","","","","","",""
"image-keyboard-response","349","394798","0.0-3.0-6.0-1.0-2.70","64231dd75feb7c5e16e3d869","666094c154fdc95dca3e206f","6660967fda8ceb61b53d4f5e","null","","null","","","","","","","","./tasks/HMM-beads/Images/WhiteBeadChoiceCorrect.png","","","","","","","","","",""
"image-keyboard-response","350","395216","0.0-3.0-6.0-1.0-0.71","64231dd75feb7c5e16e3d869","666094c154fdc95dca3e206f","6660967fda8ceb61b53d4f5e","417","","j","","","","","","","","./tasks/HMM-beads/Images/NewTrialWC.png","lowH","1","71","0","0","1","1","false","",""
"image-keyboard-response","351","395525","0.0-3.0-6.0-1.0-1.71","64231dd75feb7c5e16e3d869","666094c154fdc95dca3e206f","6660967fda8ceb61b53d4f5e","null","","null","","","","","","","","./tasks/HMM-beads/Images/WhiteBeadChoice.png","","","","","","","","","",""
"image-keyboard-response","352","396029","0.0-3.0-6.0-1.0-2.71","64231dd75feb7c5e16e3d869","666094c154fdc95dca3e206f","6660967fda8ceb61b53d4f5e","null","","null","","","","","","","","./tasks/HMM-beads/Images/WhiteBeadChoiceWrong.png","","","","","","","","","",""
"image-keyboard-response","353","396520","0.0-3.0-6.0-1.0-0.72","64231dd75feb7c5e16e3d869","666094c154fdc95dca3e206f","6660967fda8ceb61b53d4f5e","489","","j","","","","","","","","./tasks/HMM-beads/Images/NewTrialBC.png","lowH","1","72","0","0","0","1","false","",""
"image-keyboard-response","354","396825","0.0-3.0-6.0-1.0-1.72","64231dd75feb7c5e16e3d869","666094c154fdc95dca3e206f","6660967fda8ceb61b53d4f5e","null","","null","","","","","","","","./tasks/HMM-beads/Images/WhiteBeadChoice.png","","","","","","","","","",""
"image-keyboard-response","355","397336","0.0-3.0-6.0-1.0-2.72","64231dd75feb7c5e16e3d869","666094c154fdc95dca3e206f","6660967fda8ceb61b53d4f5e","null","","null","","","","","","","","./tasks/HMM-beads/Images/WhiteBeadChoiceWrong.png","","","","","","","","","",""
"image-keyboard-response","356","397511","0.0-3.0-6.0-1.0-0.73","64231dd75feb7c5e16e3d869","666094c154fdc95dca3e206f","6660967fda8ceb61b53d4f5e","174","","f","","","","","","","","./tasks/HMM-beads/Images/NewTrialBC.png","lowH","1","73","0","1","0","0","false","",""
"image-keyboard-response","357","397816","0.0-3.0-6.0-1.0-1.73","64231dd75feb7c5e16e3d869","666094c154fdc95dca3e206f","6660967fda8ceb61b53d4f5e","null","","null","","","","","","","","./tasks/HMM-beads/Images/BlackBeadChoice.png","","","","","","","","","",""
"image-keyboard-response","358","398328","0.0-3.0-6.0-1.0-2.73","64231dd75feb7c5e16e3d869","666094c154fdc95dca3e206f","6660967fda8ceb61b53d4f5e","null","","null","","","","","","","","./tasks/HMM-beads/Images/BlackBeadChoiceWrong.png","","","","","","","","","",""
"image-keyboard-response","359","398591","0.0-3.0-6.0-1.0-0.74","64231dd75feb7c5e16e3d869","666094c154fdc95dca3e206f","6660967fda8ceb61b53d4f5e","262","","j","","","","","","","","./tasks/HMM-beads/Images/NewTrialWC.png","lowH","1","74","0","0","1","1","false","",""
"image-keyboard-response","360","398907","0.0-3.0-6.0-1.0-1.74","64231dd75feb7c5e16e3d869","666094c154fdc95dca3e206f","6660967fda8ceb61b53d4f5e","null","","null","","","","","","","","./tasks/HMM-beads/Images/WhiteBeadChoice.png","","","","","","","","","",""
"image-keyboard-response","361","399410","0.0-3.0-6.0-1.0-2.74","64231dd75feb7c5e16e3d869","666094c154fdc95dca3e206f","6660967fda8ceb61b53d4f5e","null","","null","","","","","","","","./tasks/HMM-beads/Images/WhiteBeadChoiceWrong.png","","","","","","","","","",""
"image-keyboard-response","362","399840","0.0-3.0-6.0-1.0-0.75","64231dd75feb7c5e16e3d869","666094c154fdc95dca3e206f","6660967fda8ceb61b53d4f5e","428","","f","","","","","","","","./tasks/HMM-beads/Images/NewTrialBC.png","lowH","1","75","0","1","0","0","false","",""
"image-keyboard-response","363","400157","0.0-3.0-6.0-1.0-1.75","64231dd75feb7c5e16e3d869","666094c154fdc95dca3e206f","6660967fda8ceb61b53d4f5e","null","","null","","","","","","","","./tasks/HMM-beads/Images/BlackBeadChoice.png","","","","","","","","","",""
"image-keyboard-response","364","400661","0.0-3.0-6.0-1.0-2.75","64231dd75feb7c5e16e3d869","666094c154fdc95dca3e206f","6660967fda8ceb61b53d4f5e","null","","null","","","","","","","","./tasks/HMM-beads/Images/BlackBeadChoiceWrong.png","","","","","","","","","",""
"image-keyboard-response","365","401137","0.0-3.0-6.0-1.0-0.76","64231dd75feb7c5e16e3d869","666094c154fdc95dca3e206f","6660967fda8ceb61b53d4f5e","475","","j","","","","","","","","./tasks/HMM-beads/Images/NewTrialWC.png","lowH","1","76","0","1","1","1","true","",""
"image-keyboard-response","366","401440","0.0-3.0-6.0-1.0-1.76","64231dd75feb7c5e16e3d869","666094c154fdc95dca3e206f","6660967fda8ceb61b53d4f5e","null","","null","","","","","","","","./tasks/HMM-beads/Images/WhiteBeadChoice.png","","","","","","","","","",""
"image-keyboard-response","367","401943","0.0-3.0-6.0-1.0-2.76","64231dd75feb7c5e16e3d869","666094c154fdc95dca3e206f","6660967fda8ceb61b53d4f5e","null","","null","","","","","","","","./tasks/HMM-beads/Images/WhiteBeadChoiceCorrect.png","","","","","","","","","",""
"image-keyboard-response","368","402052","0.0-3.0-6.0-1.0-0.77","64231dd75feb7c5e16e3d869","666094c154fdc95dca3e206f","6660967fda8ceb61b53d4f5e","107","","j","","","","","","","","./tasks/HMM-beads/Images/NewTrialWC.png","lowH","1","77","0","0","1","1","false","",""
"image-keyboard-response","369","402357","0.0-3.0-6.0-1.0-1.77","64231dd75feb7c5e16e3d869","666094c154fdc95dca3e206f","6660967fda8ceb61b53d4f5e","null","","null","","","","","","","","./tasks/HMM-beads/Images/WhiteBeadChoice.png","","","","","","","","","",""
"image-keyboard-response","370","402862","0.0-3.0-6.0-1.0-2.77","64231dd75feb7c5e16e3d869","666094c154fdc95dca3e206f","6660967fda8ceb61b53d4f5e","null","","null","","","","","","","","./tasks/HMM-beads/Images/WhiteBeadChoiceWrong.png","","","","","","","","","",""
"image-keyboard-response","371","403618","0.0-3.0-6.0-1.0-0.78","64231dd75feb7c5e16e3d869","666094c154fdc95dca3e206f","6660967fda8ceb61b53d4f5e","754","","f","","","","","","","","./tasks/HMM-beads/Images/NewTrialBC.png","lowH","1","78","0","0","0","0","true","",""
"image-keyboard-response","372","403925","0.0-3.0-6.0-1.0-1.78","64231dd75feb7c5e16e3d869","666094c154fdc95dca3e206f","6660967fda8ceb61b53d4f5e","null","","null","","","","","","","","./tasks/HMM-beads/Images/BlackBeadChoice.png","","","","","","","","","",""
"image-keyboard-response","373","404442","0.0-3.0-6.0-1.0-2.78","64231dd75feb7c5e16e3d869","666094c154fdc95dca3e206f","6660967fda8ceb61b53d4f5e","null","","null","","","","","","","","./tasks/HMM-beads/Images/BlackBeadChoiceCorrect.png","","","","","","","","","",""
"image-keyboard-response","374","405482","0.0-3.0-6.0-1.0-0.79","64231dd75feb7c5e16e3d869","666094c154fdc95dca3e206f","6660967fda8ceb61b53d4f5e","1038","","f","","","","","","","","./tasks/HMM-beads/Images/NewTrialBC.png","lowH","1","79","0","0","0","0","true","",""
