"trial_type","trial_index","time_elapsed","internal_node_id","subject_id","study_id","session_id","rt","url","response","question_order","view_history","success","timeout","failed_images","failed_audio","failed_video","stimulus","block","block_rep","trial_number","jar","bead","previous_bead","choice","correct","lowH_score","total_bonus"
"pavlovia","0","1235","0.0-0.0","61083fda9ef8f465fed35586","6662009ae78f21dd82fcd179","666203af427a871210871256","","","","","","","","","","","","","","","","","","","","",""
"external-html","1","19101","0.0-1.0-0.0","61083fda9ef8f465fed35586","6662009ae78f21dd82fcd179","666203af427a871210871256","17753","new_consent.html","","","","","","","","","","","","","","","","","","",""
"survey-multi-choice","2","23746","0.0-1.0-1.0","61083fda9ef8f465fed35586","6662009ae78f21dd82fcd179","666203af427a871210871256","4641","","{""Q0"":""Female"",""Q1"":""Asian""}","[0,1]","","","","","","","","","","","","","","","","",""
"survey-text","3","26314","0.0-1.0-2.0","61083fda9ef8f465fed35586","6662009ae78f21dd82fcd179","666203af427a871210871256","2564","","{""Q0"":""27""}","","","","","","","","","","","","","","","","","",""
"instructions","4","27756","0.0-2.0","61083fda9ef8f465fed35586","6662009ae78f21dd82fcd179","666203af427a871210871256","1341","","","","[{""page_index"":0,""viewing_time"":1341}]","","","","","","","","","","","","","","","",""
"preload","5","30424","0.0-3.0-0.0","61083fda9ef8f465fed35586","6662009ae78f21dd82fcd179","666203af427a871210871256","","","","","","true","false","[]","[]","[]","","","","","","","","","","",""
"instructions","6","94165","0.0-3.0-1.0","61083fda9ef8f465fed35586","6662009ae78f21dd82fcd179","666203af427a871210871256","63742","","","","[{""page_index"":0,""viewing_time"":8266},{""page_index"":1,""viewing_time"":2869},{""page_index"":2,""viewing_time"":3466},{""page_index"":3,""viewing_time"":1920},{""page_index"":4,""viewing_time"":9909},{""page_index"":5,""viewing_time"":10810},{""page_index"":6,""viewing_time"":4047},{""page_index"":7,""viewing_time"":8980},{""page_index"":8,""viewing_time"":5066},{""page_index"":9,""viewing_time"":3525},{""page_index"":10,""viewing_time"":3363},{""page_index"":11,""viewing_time"":1521}]","","","","","","","","","","","","","","","",""
"html-button-response","7","97548","0.0-3.0-2.0-0.0-0.0","61083fda9ef8f465fed35586","6662009ae78f21dd82fcd179","666203af427a871210871256","3381","","1","","","","","","","","<div align=center>Your goal is to predict…?<br><br></div>","","","","","","","","","",""
"html-button-response","8","101122","0.0-3.0-2.0-1.0-0.0","61083fda9ef8f465fed35586","6662009ae78f21dd82fcd179","666203af427a871210871256","2439","","2","","","","","","","","<div align=center>In the jar with mostly white beads, there are ___% white beads and ___% black beads?<br><br></div>","","","","","","","","","",""
"html-button-response","9","112363","0.0-3.0-2.0-2.0-0.0","61083fda9ef8f465fed35586","6662009ae78f21dd82fcd179","666203af427a871210871256","9536","","0","","","","","","","","<div align=center>When there is a 1% probability that the jars will switch, the next bead will most likely be drawn from the…<br><br></div>","","","","","","","","","",""
"html-button-response","10","116788","0.0-3.0-2.0-3.0-0.0","61083fda9ef8f465fed35586","6662009ae78f21dd82fcd179","666203af427a871210871256","3327","","1","","","","","","","","<div align=center>When there is a 99% probability that the jars will switch, the next bead will most likely be drawn from the…<br><br></div>","","","","","","","","","",""
"instructions","11","120393","0.0-3.0-3.0","61083fda9ef8f465fed35586","6662009ae78f21dd82fcd179","666203af427a871210871256","2460","","","","[{""page_index"":0,""viewing_time"":2460}]","","","","","","","","","","","","","","","",""
"html-keyboard-response","12","122437","0.0-3.0-4.0-0.0","61083fda9ef8f465fed35586","6662009ae78f21dd82fcd179","666203af427a871210871256","2043",""," ","","","","","","","","<div align=center>In this practice block, there will be a <b>1% chance</b> that the jar on the next trial will be different from the jar on the current trial.<br><br></div>","","","","","","","","","",""
"image-keyboard-response","13","129082","0.0-3.0-4.0-1.0-0.0","61083fda9ef8f465fed35586","6662009ae78f21dd82fcd179","666203af427a871210871256","6642","","j","","","","","","","","./tasks/HMM-beads/Images/NoChoice.png","practice","0","0","0","0","9","1","false","",""
"image-keyboard-response","14","129386","0.0-3.0-4.0-1.0-1.0","61083fda9ef8f465fed35586","6662009ae78f21dd82fcd179","666203af427a871210871256","null","","null","","","","","","","","./tasks/HMM-beads/Images/WhiteBeadChoice.png","","","","","","","","","",""
"image-keyboard-response","15","129888","0.0-3.0-4.0-1.0-2.0","61083fda9ef8f465fed35586","6662009ae78f21dd82fcd179","666203af427a871210871256","null","","null","","","","","","","","./tasks/HMM-beads/Images/WhiteBeadChoiceWrong.png","","","","","","","","","",""
"image-keyboard-response","16","132696","0.0-3.0-4.0-1.0-0.1","61083fda9ef8f465fed35586","6662009ae78f21dd82fcd179","666203af427a871210871256","2807","","j","","","","","","","","./tasks/HMM-beads/Images/NewTrialBC.png","practice","0","1","0","0","0","1","false","",""
"image-keyboard-response","17","133000","0.0-3.0-4.0-1.0-1.1","61083fda9ef8f465fed35586","6662009ae78f21dd82fcd179","666203af427a871210871256","null","","null","","","","","","","","./tasks/HMM-beads/Images/WhiteBeadChoice.png","","","","","","","","","",""
"image-keyboard-response","18","133503","0.0-3.0-4.0-1.0-2.1","61083fda9ef8f465fed35586","6662009ae78f21dd82fcd179","666203af427a871210871256","null","","null","","","","","","","","./tasks/HMM-beads/Images/WhiteBeadChoiceWrong.png","","","","","","","","","",""
"image-keyboard-response","19","136056","0.0-3.0-4.0-1.0-0.2","61083fda9ef8f465fed35586","6662009ae78f21dd82fcd179","666203af427a871210871256","2553","","j","","","","","","","","./tasks/HMM-beads/Images/NewTrialBC.png","practice","0","2","0","1","0","1","true","",""
"image-keyboard-response","20","136359","0.0-3.0-4.0-1.0-1.2","61083fda9ef8f465fed35586","6662009ae78f21dd82fcd179","666203af427a871210871256","null","","null","","","","","","","","./tasks/HMM-beads/Images/WhiteBeadChoice.png","","","","","","","","","",""
"image-keyboard-response","21","136862","0.0-3.0-4.0-1.0-2.2","61083fda9ef8f465fed35586","6662009ae78f21dd82fcd179","666203af427a871210871256","null","","null","","","","","","","","./tasks/HMM-beads/Images/WhiteBeadChoiceCorrect.png","","","","","","","","","",""
"image-keyboard-response","22","138198","0.0-3.0-4.0-1.0-0.3","61083fda9ef8f465fed35586","6662009ae78f21dd82fcd179","666203af427a871210871256","1335","","f","","","","","","","","./tasks/HMM-beads/Images/NewTrialWC.png","practice","0","3","0","0","1","0","true","",""
"image-keyboard-response","23","138501","0.0-3.0-4.0-1.0-1.3","61083fda9ef8f465fed35586","6662009ae78f21dd82fcd179","666203af427a871210871256","null","","null","","","","","","","","./tasks/HMM-beads/Images/BlackBeadChoice.png","","","","","","","","","",""
"image-keyboard-response","24","139008","0.0-3.0-4.0-1.0-2.3","61083fda9ef8f465fed35586","6662009ae78f21dd82fcd179","666203af427a871210871256","null","","null","","","","","","","","./tasks/HMM-beads/Images/BlackBeadChoiceCorrect.png","","","","","","","","","",""
"image-keyboard-response","25","141385","0.0-3.0-4.0-1.0-0.4","61083fda9ef8f465fed35586","6662009ae78f21dd82fcd179","666203af427a871210871256","2376","","j","","","","","","","","./tasks/HMM-beads/Images/NewTrialBC.png","practice","0","4","0","0","0","1","false","",""
"image-keyboard-response","26","141688","0.0-3.0-4.0-1.0-1.4","61083fda9ef8f465fed35586","6662009ae78f21dd82fcd179","666203af427a871210871256","null","","null","","","","","","","","./tasks/HMM-beads/Images/WhiteBeadChoice.png","","","","","","","","","",""
"image-keyboard-response","27","142192","0.0-3.0-4.0-1.0-2.4","61083fda9ef8f465fed35586","6662009ae78f21dd82fcd179","666203af427a871210871256","null","","null","","","","","","","","./tasks/HMM-beads/Images/WhiteBeadChoiceWrong.png","","","","","","","","","",""
"image-keyboard-response","28","143600","0.0-3.0-4.0-1.0-0.5","61083fda9ef8f465fed35586","6662009ae78f21dd82fcd179","666203af427a871210871256","1403","","f","","","","","","","","./tasks/HMM-beads/Images/NewTrialBC.png","practice","0","5","0","1","0","0","false","",""
"image-keyboard-response","29","143901","0.0-3.0-4.0-1.0-1.5","61083fda9ef8f465fed35586","6662009ae78f21dd82fcd179","666203af427a871210871256","null","","null","","","","","","","","./tasks/HMM-beads/Images/BlackBeadChoice.png","","","","","","","","","",""
"image-keyboard-response","30","144409","0.0-3.0-4.0-1.0-2.5","61083fda9ef8f465fed35586","6662009ae78f21dd82fcd179","666203af427a871210871256","null","","null","","","","","","","","./tasks/HMM-beads/Images/BlackBeadChoiceWrong.png","","","","","","","","","",""
"image-keyboard-response","31","145686","0.0-3.0-4.0-1.0-0.6","61083fda9ef8f465fed35586","6662009ae78f21dd82fcd179","666203af427a871210871256","1275","","j","","","","","","","","./tasks/HMM-beads/Images/NewTrialWC.png","practice","0","6","0","0","1","1","false","",""
"image-keyboard-response","32","145989","0.0-3.0-4.0-1.0-1.6","61083fda9ef8f465fed35586","6662009ae78f21dd82fcd179","666203af427a871210871256","null","","null","","","","","","","","./tasks/HMM-beads/Images/WhiteBeadChoice.png","","","","","","","","","",""
"image-keyboard-response","33","146495","0.0-3.0-4.0-1.0-2.6","61083fda9ef8f465fed35586","6662009ae78f21dd82fcd179","666203af427a871210871256","null","","null","","","","","","","","./tasks/HMM-beads/Images/WhiteBeadChoiceWrong.png","","","","","","","","","",""
"image-keyboard-response","34","147573","0.0-3.0-4.0-1.0-0.7","61083fda9ef8f465fed35586","6662009ae78f21dd82fcd179","666203af427a871210871256","1073","","j","","","","","","","","./tasks/HMM-beads/Images/NewTrialBC.png","practice","0","7","0","0","0","1","false","",""
"image-keyboard-response","35","147874","0.0-3.0-4.0-1.0-1.7","61083fda9ef8f465fed35586","6662009ae78f21dd82fcd179","666203af427a871210871256","null","","null","","","","","","","","./tasks/HMM-beads/Images/WhiteBeadChoice.png","","","","","","","","","",""
"image-keyboard-response","36","148378","0.0-3.0-4.0-1.0-2.7","61083fda9ef8f465fed35586","6662009ae78f21dd82fcd179","666203af427a871210871256","null","","null","","","","","","","","./tasks/HMM-beads/Images/WhiteBeadChoiceWrong.png","","","","","","","","","",""
"image-keyboard-response","37","151087","0.0-3.0-4.0-1.0-0.8","61083fda9ef8f465fed35586","6662009ae78f21dd82fcd179","666203af427a871210871256","2706","","f","","","","","","","","./tasks/HMM-beads/Images/NewTrialBC.png","practice","0","8","0","0","0","0","true","",""
"image-keyboard-response","38","151393","0.0-3.0-4.0-1.0-1.8","61083fda9ef8f465fed35586","6662009ae78f21dd82fcd179","666203af427a871210871256","null","","null","","","","","","","","./tasks/HMM-beads/Images/BlackBeadChoice.png","","","","","","","","","",""
"image-keyboard-response","39","151895","0.0-3.0-4.0-1.0-2.8","61083fda9ef8f465fed35586","6662009ae78f21dd82fcd179","666203af427a871210871256","null","","null","","","","","","","","./tasks/HMM-beads/Images/BlackBeadChoiceCorrect.png","","","","","","","","","",""
"image-keyboard-response","40","152396","0.0-3.0-4.0-1.0-0.9","61083fda9ef8f465fed35586","6662009ae78f21dd82fcd179","666203af427a871210871256","498","","f","","","","","","","","./tasks/HMM-beads/Images/NewTrialBC.png","practice","0","9","0","1","0","0","false","",""
"image-keyboard-response","41","152698","0.0-3.0-4.0-1.0-1.9","61083fda9ef8f465fed35586","6662009ae78f21dd82fcd179","666203af427a871210871256","null","","null","","","","","","","","./tasks/HMM-beads/Images/BlackBeadChoice.png","","","","","","","","","",""
"image-keyboard-response","42","153201","0.0-3.0-4.0-1.0-2.9","61083fda9ef8f465fed35586","6662009ae78f21dd82fcd179","666203af427a871210871256","null","","null","","","","","","","","./tasks/HMM-beads/Images/BlackBeadChoiceWrong.png","","","","","","","","","",""
"image-keyboard-response","43","154596","0.0-3.0-4.0-1.0-0.10","61083fda9ef8f465fed35586","6662009ae78f21dd82fcd179","666203af427a871210871256","1394","","j","","","","","","","","./tasks/HMM-beads/Images/NewTrialWC.png","practice","0","10","0","0","1","1","false","",""
"image-keyboard-response","44","154901","0.0-3.0-4.0-1.0-1.10","61083fda9ef8f465fed35586","6662009ae78f21dd82fcd179","666203af427a871210871256","null","","null","","","","","","","","./tasks/HMM-beads/Images/WhiteBeadChoice.png","","","","","","","","","",""
"image-keyboard-response","45","155406","0.0-3.0-4.0-1.0-2.10","61083fda9ef8f465fed35586","6662009ae78f21dd82fcd179","666203af427a871210871256","null","","null","","","","","","","","./tasks/HMM-beads/Images/WhiteBeadChoiceWrong.png","","","","","","","","","",""
"image-keyboard-response","46","158028","0.0-3.0-4.0-1.0-0.11","61083fda9ef8f465fed35586","6662009ae78f21dd82fcd179","666203af427a871210871256","2620","","j","","","","","","","","./tasks/HMM-beads/Images/NewTrialBC.png","practice","0","11","0","1","0","1","true","",""
"image-keyboard-response","47","158330","0.0-3.0-4.0-1.0-1.11","61083fda9ef8f465fed35586","6662009ae78f21dd82fcd179","666203af427a871210871256","null","","null","","","","","","","","./tasks/HMM-beads/Images/WhiteBeadChoice.png","","","","","","","","","",""
"image-keyboard-response","48","158834","0.0-3.0-4.0-1.0-2.11","61083fda9ef8f465fed35586","6662009ae78f21dd82fcd179","666203af427a871210871256","null","","null","","","","","","","","./tasks/HMM-beads/Images/WhiteBeadChoiceCorrect.png","","","","","","","","","",""
"image-keyboard-response","49","159613","0.0-3.0-4.0-1.0-0.12","61083fda9ef8f465fed35586","6662009ae78f21dd82fcd179","666203af427a871210871256","775","","f","","","","","","","","./tasks/HMM-beads/Images/NewTrialWC.png","practice","0","12","0","0","1","0","true","",""
"image-keyboard-response","50","159916","0.0-3.0-4.0-1.0-1.12","61083fda9ef8f465fed35586","6662009ae78f21dd82fcd179","666203af427a871210871256","null","","null","","","","","","","","./tasks/HMM-beads/Images/BlackBeadChoice.png","","","","","","","","","",""
"image-keyboard-response","51","160418","0.0-3.0-4.0-1.0-2.12","61083fda9ef8f465fed35586","6662009ae78f21dd82fcd179","666203af427a871210871256","null","","null","","","","","","","","./tasks/HMM-beads/Images/BlackBeadChoiceCorrect.png","","","","","","","","","",""
"image-keyboard-response","52","162081","0.0-3.0-4.0-1.0-0.13","61083fda9ef8f465fed35586","6662009ae78f21dd82fcd179","666203af427a871210871256","1662","","j","","","","","","","","./tasks/HMM-beads/Images/NewTrialBC.png","practice","0","13","0","0","0","1","false","",""
"image-keyboard-response","53","162384","0.0-3.0-4.0-1.0-1.13","61083fda9ef8f465fed35586","6662009ae78f21dd82fcd179","666203af427a871210871256","null","","null","","","","","","","","./tasks/HMM-beads/Images/WhiteBeadChoice.png","","","","","","","","","",""
"image-keyboard-response","54","162886","0.0-3.0-4.0-1.0-2.13","61083fda9ef8f465fed35586","6662009ae78f21dd82fcd179","666203af427a871210871256","null","","null","","","","","","","","./tasks/HMM-beads/Images/WhiteBeadChoiceWrong.png","","","","","","","","","",""
"image-keyboard-response","55","164128","0.0-3.0-4.0-1.0-0.14","61083fda9ef8f465fed35586","6662009ae78f21dd82fcd179","666203af427a871210871256","1241","","f","","","","","","","","./tasks/HMM-beads/Images/NewTrialBC.png","practice","0","14","0","0","0","0","true","",""
"image-keyboard-response","56","164431","0.0-3.0-4.0-1.0-1.14","61083fda9ef8f465fed35586","6662009ae78f21dd82fcd179","666203af427a871210871256","null","","null","","","","","","","","./tasks/HMM-beads/Images/BlackBeadChoice.png","","","","","","","","","",""
"image-keyboard-response","57","164935","0.0-3.0-4.0-1.0-2.14","61083fda9ef8f465fed35586","6662009ae78f21dd82fcd179","666203af427a871210871256","null","","null","","","","","","","","./tasks/HMM-beads/Images/BlackBeadChoiceCorrect.png","","","","","","","","","",""
"image-keyboard-response","58","167410","0.0-3.0-4.0-1.0-0.15","61083fda9ef8f465fed35586","6662009ae78f21dd82fcd179","666203af427a871210871256","2474","","j","","","","","","","","./tasks/HMM-beads/Images/NewTrialBC.png","practice","0","15","0","0","0","1","false","",""
"image-keyboard-response","59","167715","0.0-3.0-4.0-1.0-1.15","61083fda9ef8f465fed35586","6662009ae78f21dd82fcd179","666203af427a871210871256","null","","null","","","","","","","","./tasks/HMM-beads/Images/WhiteBeadChoice.png","","","","","","","","","",""
"image-keyboard-response","60","168218","0.0-3.0-4.0-1.0-2.15","61083fda9ef8f465fed35586","6662009ae78f21dd82fcd179","666203af427a871210871256","null","","null","","","","","","","","./tasks/HMM-beads/Images/WhiteBeadChoiceWrong.png","","","","","","","","","",""
"image-keyboard-response","61","168741","0.0-3.0-4.0-1.0-0.16","61083fda9ef8f465fed35586","6662009ae78f21dd82fcd179","666203af427a871210871256","519","","f","","","","","","","","./tasks/HMM-beads/Images/NewTrialBC.png","practice","0","16","0","0","0","0","true","",""
"image-keyboard-response","62","169043","0.0-3.0-4.0-1.0-1.16","61083fda9ef8f465fed35586","6662009ae78f21dd82fcd179","666203af427a871210871256","null","","null","","","","","","","","./tasks/HMM-beads/Images/BlackBeadChoice.png","","","","","","","","","",""
"image-keyboard-response","63","169545","0.0-3.0-4.0-1.0-2.16","61083fda9ef8f465fed35586","6662009ae78f21dd82fcd179","666203af427a871210871256","null","","null","","","","","","","","./tasks/HMM-beads/Images/BlackBeadChoiceCorrect.png","","","","","","","","","",""
"image-keyboard-response","64","170833","0.0-3.0-4.0-1.0-0.17","61083fda9ef8f465fed35586","6662009ae78f21dd82fcd179","666203af427a871210871256","1286","","j","","","","","","","","./tasks/HMM-beads/Images/NewTrialBC.png","practice","0","17","0","0","0","1","false","",""
"image-keyboard-response","65","171134","0.0-3.0-4.0-1.0-1.17","61083fda9ef8f465fed35586","6662009ae78f21dd82fcd179","666203af427a871210871256","null","","null","","","","","","","","./tasks/HMM-beads/Images/WhiteBeadChoice.png","","","","","","","","","",""
"image-keyboard-response","66","171636","0.0-3.0-4.0-1.0-2.17","61083fda9ef8f465fed35586","6662009ae78f21dd82fcd179","666203af427a871210871256","null","","null","","","","","","","","./tasks/HMM-beads/Images/WhiteBeadChoiceWrong.png","","","","","","","","","",""
"image-keyboard-response","67","172340","0.0-3.0-4.0-1.0-0.18","61083fda9ef8f465fed35586","6662009ae78f21dd82fcd179","666203af427a871210871256","703","","f","","","","","","","","./tasks/HMM-beads/Images/NewTrialBC.png","practice","0","18","0","1","0","0","false","",""
"image-keyboard-response","68","172643","0.0-3.0-4.0-1.0-1.18","61083fda9ef8f465fed35586","6662009ae78f21dd82fcd179","666203af427a871210871256","null","","null","","","","","","","","./tasks/HMM-beads/Images/BlackBeadChoice.png","","","","","","","","","",""
"image-keyboard-response","69","173151","0.0-3.0-4.0-1.0-2.18","61083fda9ef8f465fed35586","6662009ae78f21dd82fcd179","666203af427a871210871256","null","","null","","","","","","","","./tasks/HMM-beads/Images/BlackBeadChoiceWrong.png","","","","","","","","","",""
"image-keyboard-response","70","174455","0.0-3.0-4.0-1.0-0.19","61083fda9ef8f465fed35586","6662009ae78f21dd82fcd179","666203af427a871210871256","1303","","j","","","","","","","","./tasks/HMM-beads/Images/NewTrialWC.png","practice","0","19","0","0","1","1","false","",""
"image-keyboard-response","71","174757","0.0-3.0-4.0-1.0-1.19","61083fda9ef8f465fed35586","6662009ae78f21dd82fcd179","666203af427a871210871256","null","","null","","","","","","","","./tasks/HMM-beads/Images/WhiteBeadChoice.png","","","","","","","","","",""
"image-keyboard-response","72","175258","0.0-3.0-4.0-1.0-2.19","61083fda9ef8f465fed35586","6662009ae78f21dd82fcd179","666203af427a871210871256","null","","null","","","","","","","","./tasks/HMM-beads/Images/WhiteBeadChoiceWrong.png","","","","","","","","","",""
"image-keyboard-response","73","176104","0.0-3.0-4.0-1.0-0.20","61083fda9ef8f465fed35586","6662009ae78f21dd82fcd179","666203af427a871210871256","844","","f","","","","","","","","./tasks/HMM-beads/Images/NewTrialBC.png","practice","0","20","0","0","0","0","true","",""
"image-keyboard-response","74","176407","0.0-3.0-4.0-1.0-1.20","61083fda9ef8f465fed35586","6662009ae78f21dd82fcd179","666203af427a871210871256","null","","null","","","","","","","","./tasks/HMM-beads/Images/BlackBeadChoice.png","","","","","","","","","",""
"image-keyboard-response","75","176908","0.0-3.0-4.0-1.0-2.20","61083fda9ef8f465fed35586","6662009ae78f21dd82fcd179","666203af427a871210871256","null","","null","","","","","","","","./tasks/HMM-beads/Images/BlackBeadChoiceCorrect.png","","","","","","","","","",""
"image-keyboard-response","76","178916","0.0-3.0-4.0-1.0-0.21","61083fda9ef8f465fed35586","6662009ae78f21dd82fcd179","666203af427a871210871256","2006","","j","","","","","","","","./tasks/HMM-beads/Images/NewTrialBC.png","practice","0","21","0","1","0","1","true","",""
"image-keyboard-response","77","179219","0.0-3.0-4.0-1.0-1.21","61083fda9ef8f465fed35586","6662009ae78f21dd82fcd179","666203af427a871210871256","null","","null","","","","","","","","./tasks/HMM-beads/Images/WhiteBeadChoice.png","","","","","","","","","",""
"image-keyboard-response","78","179724","0.0-3.0-4.0-1.0-2.21","61083fda9ef8f465fed35586","6662009ae78f21dd82fcd179","666203af427a871210871256","null","","null","","","","","","","","./tasks/HMM-beads/Images/WhiteBeadChoiceCorrect.png","","","","","","","","","",""
"image-keyboard-response","79","180183","0.0-3.0-4.0-1.0-0.22","61083fda9ef8f465fed35586","6662009ae78f21dd82fcd179","666203af427a871210871256","458","","f","","","","","","","","./tasks/HMM-beads/Images/NewTrialWC.png","practice","0","22","1","1","1","0","false","",""
"image-keyboard-response","80","180485","0.0-3.0-4.0-1.0-1.22","61083fda9ef8f465fed35586","6662009ae78f21dd82fcd179","666203af427a871210871256","null","","null","","","","","","","","./tasks/HMM-beads/Images/BlackBeadChoice.png","","","","","","","","","",""
"image-keyboard-response","81","180992","0.0-3.0-4.0-1.0-2.22","61083fda9ef8f465fed35586","6662009ae78f21dd82fcd179","666203af427a871210871256","null","","null","","","","","","","","./tasks/HMM-beads/Images/BlackBeadChoiceWrong.png","","","","","","","","","",""
"image-keyboard-response","82","181462","0.0-3.0-4.0-1.0-0.23","61083fda9ef8f465fed35586","6662009ae78f21dd82fcd179","666203af427a871210871256","469","","j","","","","","","","","./tasks/HMM-beads/Images/NewTrialWC.png","practice","0","23","1","0","1","1","false","",""
"image-keyboard-response","83","181765","0.0-3.0-4.0-1.0-1.23","61083fda9ef8f465fed35586","6662009ae78f21dd82fcd179","666203af427a871210871256","null","","null","","","","","","","","./tasks/HMM-beads/Images/WhiteBeadChoice.png","","","","","","","","","",""
"image-keyboard-response","84","182270","0.0-3.0-4.0-1.0-2.23","61083fda9ef8f465fed35586","6662009ae78f21dd82fcd179","666203af427a871210871256","null","","null","","","","","","","","./tasks/HMM-beads/Images/WhiteBeadChoiceWrong.png","","","","","","","","","",""
"image-keyboard-response","85","182710","0.0-3.0-4.0-1.0-0.24","61083fda9ef8f465fed35586","6662009ae78f21dd82fcd179","666203af427a871210871256","437","","f","","","","","","","","./tasks/HMM-beads/Images/NewTrialBC.png","practice","0","24","1","1","0","0","false","",""
"image-keyboard-response","86","183012","0.0-3.0-4.0-1.0-1.24","61083fda9ef8f465fed35586","6662009ae78f21dd82fcd179","666203af427a871210871256","null","","null","","","","","","","","./tasks/HMM-beads/Images/BlackBeadChoice.png","","","","","","","","","",""
"image-keyboard-response","87","183517","0.0-3.0-4.0-1.0-2.24","61083fda9ef8f465fed35586","6662009ae78f21dd82fcd179","666203af427a871210871256","null","","null","","","","","","","","./tasks/HMM-beads/Images/BlackBeadChoiceWrong.png","","","","","","","","","",""
"image-keyboard-response","88","185184","0.0-3.0-4.0-1.0-0.25","61083fda9ef8f465fed35586","6662009ae78f21dd82fcd179","666203af427a871210871256","1665","","j","","","","","","","","./tasks/HMM-beads/Images/NewTrialWC.png","practice","0","25","1","1","1","1","true","",""
"image-keyboard-response","89","185486","0.0-3.0-4.0-1.0-1.25","61083fda9ef8f465fed35586","6662009ae78f21dd82fcd179","666203af427a871210871256","null","","null","","","","","","","","./tasks/HMM-beads/Images/WhiteBeadChoice.png","","","","","","","","","",""
"image-keyboard-response","90","185987","0.0-3.0-4.0-1.0-2.25","61083fda9ef8f465fed35586","6662009ae78f21dd82fcd179","666203af427a871210871256","null","","null","","","","","","","","./tasks/HMM-beads/Images/WhiteBeadChoiceCorrect.png","","","","","","","","","",""
"image-keyboard-response","91","187286","0.0-3.0-4.0-1.0-0.26","61083fda9ef8f465fed35586","6662009ae78f21dd82fcd179","666203af427a871210871256","1297","","f","","","","","","","","./tasks/HMM-beads/Images/NewTrialWC.png","practice","0","26","1","1","1","0","false","",""
"image-keyboard-response","92","187589","0.0-3.0-4.0-1.0-1.26","61083fda9ef8f465fed35586","6662009ae78f21dd82fcd179","666203af427a871210871256","null","","null","","","","","","","","./tasks/HMM-beads/Images/BlackBeadChoice.png","","","","","","","","","",""
"image-keyboard-response","93","188093","0.0-3.0-4.0-1.0-2.26","61083fda9ef8f465fed35586","6662009ae78f21dd82fcd179","666203af427a871210871256","null","","null","","","","","","","","./tasks/HMM-beads/Images/BlackBeadChoiceWrong.png","","","","","","","","","",""
"image-keyboard-response","94","190177","0.0-3.0-4.0-1.0-0.27","61083fda9ef8f465fed35586","6662009ae78f21dd82fcd179","666203af427a871210871256","2084","","j","","","","","","","","./tasks/HMM-beads/Images/NewTrialWC.png","practice","0","27","1","1","1","1","true","",""
"image-keyboard-response","95","190480","0.0-3.0-4.0-1.0-1.27","61083fda9ef8f465fed35586","6662009ae78f21dd82fcd179","666203af427a871210871256","null","","null","","","","","","","","./tasks/HMM-beads/Images/WhiteBeadChoice.png","","","","","","","","","",""
"image-keyboard-response","96","190983","0.0-3.0-4.0-1.0-2.27","61083fda9ef8f465fed35586","6662009ae78f21dd82fcd179","666203af427a871210871256","null","","null","","","","","","","","./tasks/HMM-beads/Images/WhiteBeadChoiceCorrect.png","","","","","","","","","",""
"image-keyboard-response","97","192300","0.0-3.0-4.0-1.0-0.28","61083fda9ef8f465fed35586","6662009ae78f21dd82fcd179","666203af427a871210871256","1316","","f","","","","","","","","./tasks/HMM-beads/Images/NewTrialWC.png","practice","0","28","1","0","1","0","true","",""
"image-keyboard-response","98","192602","0.0-3.0-4.0-1.0-1.28","61083fda9ef8f465fed35586","6662009ae78f21dd82fcd179","666203af427a871210871256","null","","null","","","","","","","","./tasks/HMM-beads/Images/BlackBeadChoice.png","","","","","","","","","",""
"image-keyboard-response","99","193106","0.0-3.0-4.0-1.0-2.28","61083fda9ef8f465fed35586","6662009ae78f21dd82fcd179","666203af427a871210871256","null","","null","","","","","","","","./tasks/HMM-beads/Images/BlackBeadChoiceCorrect.png","","","","","","","","","",""
"image-keyboard-response","100","193835","0.0-3.0-4.0-1.0-0.29","61083fda9ef8f465fed35586","6662009ae78f21dd82fcd179","666203af427a871210871256","728","","j","","","","","","","","./tasks/HMM-beads/Images/NewTrialBC.png","practice","0","29","1","1","0","1","true","",""
"image-keyboard-response","101","194137","0.0-3.0-4.0-1.0-1.29","61083fda9ef8f465fed35586","6662009ae78f21dd82fcd179","666203af427a871210871256","null","","null","","","","","","","","./tasks/HMM-beads/Images/WhiteBeadChoice.png","","","","","","","","","",""
"image-keyboard-response","102","194641","0.0-3.0-4.0-1.0-2.29","61083fda9ef8f465fed35586","6662009ae78f21dd82fcd179","666203af427a871210871256","null","","null","","","","","","","","./tasks/HMM-beads/Images/WhiteBeadChoiceCorrect.png","","","","","","","","","",""
"image-keyboard-response","103","195235","0.0-3.0-4.0-1.0-0.30","61083fda9ef8f465fed35586","6662009ae78f21dd82fcd179","666203af427a871210871256","592","","f","","","","","","","","./tasks/HMM-beads/Images/NewTrialWC.png","practice","0","30","1","0","1","0","true","",""
"image-keyboard-response","104","195539","0.0-3.0-4.0-1.0-1.30","61083fda9ef8f465fed35586","6662009ae78f21dd82fcd179","666203af427a871210871256","null","","null","","","","","","","","./tasks/HMM-beads/Images/BlackBeadChoice.png","","","","","","","","","",""
"image-keyboard-response","105","196042","0.0-3.0-4.0-1.0-2.30","61083fda9ef8f465fed35586","6662009ae78f21dd82fcd179","666203af427a871210871256","null","","null","","","","","","","","./tasks/HMM-beads/Images/BlackBeadChoiceCorrect.png","","","","","","","","","",""
"image-keyboard-response","106","196799","0.0-3.0-4.0-1.0-0.31","61083fda9ef8f465fed35586","6662009ae78f21dd82fcd179","666203af427a871210871256","756","","j","","","","","","","","./tasks/HMM-beads/Images/NewTrialBC.png","practice","0","31","1","1","0","1","true","",""
"image-keyboard-response","107","197101","0.0-3.0-4.0-1.0-1.31","61083fda9ef8f465fed35586","6662009ae78f21dd82fcd179","666203af427a871210871256","null","","null","","","","","","","","./tasks/HMM-beads/Images/WhiteBeadChoice.png","","","","","","","","","",""
"image-keyboard-response","108","197603","0.0-3.0-4.0-1.0-2.31","61083fda9ef8f465fed35586","6662009ae78f21dd82fcd179","666203af427a871210871256","null","","null","","","","","","","","./tasks/HMM-beads/Images/WhiteBeadChoiceCorrect.png","","","","","","","","","",""
"image-keyboard-response","109","198031","0.0-3.0-4.0-1.0-0.32","61083fda9ef8f465fed35586","6662009ae78f21dd82fcd179","666203af427a871210871256","427","","f","","","","","","","","./tasks/HMM-beads/Images/NewTrialWC.png","practice","0","32","1","1","1","0","false","",""
"image-keyboard-response","110","198335","0.0-3.0-4.0-1.0-1.32","61083fda9ef8f465fed35586","6662009ae78f21dd82fcd179","666203af427a871210871256","null","","null","","","","","","","","./tasks/HMM-beads/Images/BlackBeadChoice.png","","","","","","","","","",""
"image-keyboard-response","111","198837","0.0-3.0-4.0-1.0-2.32","61083fda9ef8f465fed35586","6662009ae78f21dd82fcd179","666203af427a871210871256","null","","null","","","","","","","","./tasks/HMM-beads/Images/BlackBeadChoiceWrong.png","","","","","","","","","",""
"image-keyboard-response","112","199383","0.0-3.0-4.0-1.0-0.33","61083fda9ef8f465fed35586","6662009ae78f21dd82fcd179","666203af427a871210871256","545","","j","","","","","","","","./tasks/HMM-beads/Images/NewTrialWC.png","practice","0","33","1","1","1","1","true","",""
"image-keyboard-response","113","199683","0.0-3.0-4.0-1.0-1.33","61083fda9ef8f465fed35586","6662009ae78f21dd82fcd179","666203af427a871210871256","null","","null","","","","","","","","./tasks/HMM-beads/Images/WhiteBeadChoice.png","","","","","","","","","",""
"image-keyboard-response","114","200187","0.0-3.0-4.0-1.0-2.33","61083fda9ef8f465fed35586","6662009ae78f21dd82fcd179","666203af427a871210871256","null","","null","","","","","","","","./tasks/HMM-beads/Images/WhiteBeadChoiceCorrect.png","","","","","","","","","",""
"image-keyboard-response","115","200641","0.0-3.0-4.0-1.0-0.34","61083fda9ef8f465fed35586","6662009ae78f21dd82fcd179","666203af427a871210871256","454","","f","","","","","","","","./tasks/HMM-beads/Images/NewTrialWC.png","practice","0","34","1","1","1","0","false","",""
"image-keyboard-response","116","200943","0.0-3.0-4.0-1.0-1.34","61083fda9ef8f465fed35586","6662009ae78f21dd82fcd179","666203af427a871210871256","null","","null","","","","","","","","./tasks/HMM-beads/Images/BlackBeadChoice.png","","","","","","","","","",""
"image-keyboard-response","117","201445","0.0-3.0-4.0-1.0-2.34","61083fda9ef8f465fed35586","6662009ae78f21dd82fcd179","666203af427a871210871256","null","","null","","","","","","","","./tasks/HMM-beads/Images/BlackBeadChoiceWrong.png","","","","","","","","","",""
"image-keyboard-response","118","201928","0.0-3.0-4.0-1.0-0.35","61083fda9ef8f465fed35586","6662009ae78f21dd82fcd179","666203af427a871210871256","483","","j","","","","","","","","./tasks/HMM-beads/Images/NewTrialWC.png","practice","0","35","1","1","1","1","true","",""
"image-keyboard-response","119","202231","0.0-3.0-4.0-1.0-1.35","61083fda9ef8f465fed35586","6662009ae78f21dd82fcd179","666203af427a871210871256","null","","null","","","","","","","","./tasks/HMM-beads/Images/WhiteBeadChoice.png","","","","","","","","","",""
"image-keyboard-response","120","202734","0.0-3.0-4.0-1.0-2.35","61083fda9ef8f465fed35586","6662009ae78f21dd82fcd179","666203af427a871210871256","null","","null","","","","","","","","./tasks/HMM-beads/Images/WhiteBeadChoiceCorrect.png","","","","","","","","","",""
"image-keyboard-response","121","203228","0.0-3.0-4.0-1.0-0.36","61083fda9ef8f465fed35586","6662009ae78f21dd82fcd179","666203af427a871210871256","494","","f","","","","","","","","./tasks/HMM-beads/Images/NewTrialWC.png","practice","0","36","1","0","1","0","true","",""
"image-keyboard-response","122","203531","0.0-3.0-4.0-1.0-1.36","61083fda9ef8f465fed35586","6662009ae78f21dd82fcd179","666203af427a871210871256","null","","null","","","","","","","","./tasks/HMM-beads/Images/BlackBeadChoice.png","","","","","","","","","",""
"image-keyboard-response","123","204034","0.0-3.0-4.0-1.0-2.36","61083fda9ef8f465fed35586","6662009ae78f21dd82fcd179","666203af427a871210871256","null","","null","","","","","","","","./tasks/HMM-beads/Images/BlackBeadChoiceCorrect.png","","","","","","","","","",""
"image-keyboard-response","124","204682","0.0-3.0-4.0-1.0-0.37","61083fda9ef8f465fed35586","6662009ae78f21dd82fcd179","666203af427a871210871256","647","","j","","","","","","","","./tasks/HMM-beads/Images/NewTrialBC.png","practice","0","37","1","1","0","1","true","",""
"image-keyboard-response","125","204984","0.0-3.0-4.0-1.0-1.37","61083fda9ef8f465fed35586","6662009ae78f21dd82fcd179","666203af427a871210871256","null","","null","","","","","","","","./tasks/HMM-beads/Images/WhiteBeadChoice.png","","","","","","","","","",""
"image-keyboard-response","126","205486","0.0-3.0-4.0-1.0-2.37","61083fda9ef8f465fed35586","6662009ae78f21dd82fcd179","666203af427a871210871256","null","","null","","","","","","","","./tasks/HMM-beads/Images/WhiteBeadChoiceCorrect.png","","","","","","","","","",""
"image-keyboard-response","127","205890","0.0-3.0-4.0-1.0-0.38","61083fda9ef8f465fed35586","6662009ae78f21dd82fcd179","666203af427a871210871256","403","","f","","","","","","","","./tasks/HMM-beads/Images/NewTrialWC.png","practice","0","38","1","1","1","0","false","",""
"image-keyboard-response","128","206192","0.0-3.0-4.0-1.0-1.38","61083fda9ef8f465fed35586","6662009ae78f21dd82fcd179","666203af427a871210871256","null","","null","","","","","","","","./tasks/HMM-beads/Images/BlackBeadChoice.png","","","","","","","","","",""
"image-keyboard-response","129","206694","0.0-3.0-4.0-1.0-2.38","61083fda9ef8f465fed35586","6662009ae78f21dd82fcd179","666203af427a871210871256","null","","null","","","","","","","","./tasks/HMM-beads/Images/BlackBeadChoiceWrong.png","","","","","","","","","",""
"image-keyboard-response","130","207273","0.0-3.0-4.0-1.0-0.39","61083fda9ef8f465fed35586","6662009ae78f21dd82fcd179","666203af427a871210871256","578","","j","","","","","","","","./tasks/HMM-beads/Images/NewTrialWC.png","practice","0","39","1","1","1","1","true","",""
"image-keyboard-response","131","207575","0.0-3.0-4.0-1.0-1.39","61083fda9ef8f465fed35586","6662009ae78f21dd82fcd179","666203af427a871210871256","null","","null","","","","","","","","./tasks/HMM-beads/Images/WhiteBeadChoice.png","","","","","","","","","",""
"image-keyboard-response","132","208076","0.0-3.0-4.0-1.0-2.39","61083fda9ef8f465fed35586","6662009ae78f21dd82fcd179","666203af427a871210871256","null","","null","","","","","","","","./tasks/HMM-beads/Images/WhiteBeadChoiceCorrect.png","","","","","","","","","",""
"html-keyboard-response","133","210867","0.0-3.0-4.0-2.0","61083fda9ef8f465fed35586","6662009ae78f21dd82fcd179","666203af427a871210871256","2789",""," ","","","","","","","","","","","","","","","","","",""
"instructions","134","227387","0.0-3.0-5.0","61083fda9ef8f465fed35586","6662009ae78f21dd82fcd179","666203af427a871210871256","16520","","","","[{""page_index"":0,""viewing_time"":11836},{""page_index"":1,""viewing_time"":4683}]","","","","","","","","","","","","","","","",""
"html-keyboard-response","135","237456","0.0-3.0-6.0-0.0","61083fda9ef8f465fed35586","6662009ae78f21dd82fcd179","666203af427a871210871256","10068",""," ","","","","","","","","<div align=center>In this block, there will be a <b>1% chance</b> that the jar on the next trial will be different from the jar on the current trial.<br><br></div>","","","","","","","","","",""
"image-keyboard-response","136","240066","0.0-3.0-6.0-1.0-0.0","61083fda9ef8f465fed35586","6662009ae78f21dd82fcd179","666203af427a871210871256","2609","","j","","","","","","","","./tasks/HMM-beads/Images/NoChoice.png","lowH","1","0","1","0","9","1","false","",""
"image-keyboard-response","137","240367","0.0-3.0-6.0-1.0-1.0","61083fda9ef8f465fed35586","6662009ae78f21dd82fcd179","666203af427a871210871256","null","","null","","","","","","","","./tasks/HMM-beads/Images/WhiteBeadChoice.png","","","","","","","","","",""
"image-keyboard-response","138","240869","0.0-3.0-6.0-1.0-2.0","61083fda9ef8f465fed35586","6662009ae78f21dd82fcd179","666203af427a871210871256","null","","null","","","","","","","","./tasks/HMM-beads/Images/WhiteBeadChoiceWrong.png","","","","","","","","","",""
"image-keyboard-response","139","246183","0.0-3.0-6.0-1.0-0.1","61083fda9ef8f465fed35586","6662009ae78f21dd82fcd179","666203af427a871210871256","5313","","f","","","","","","","","./tasks/HMM-beads/Images/NewTrialBC.png","lowH","1","1","1","1","0","0","false","",""
"image-keyboard-response","140","246488","0.0-3.0-6.0-1.0-1.1","61083fda9ef8f465fed35586","6662009ae78f21dd82fcd179","666203af427a871210871256","null","","null","","","","","","","","./tasks/HMM-beads/Images/BlackBeadChoice.png","","","","","","","","","",""
"image-keyboard-response","141","246992","0.0-3.0-6.0-1.0-2.1","61083fda9ef8f465fed35586","6662009ae78f21dd82fcd179","666203af427a871210871256","null","","null","","","","","","","","./tasks/HMM-beads/Images/BlackBeadChoiceWrong.png","","","","","","","","","",""
"image-keyboard-response","142","249232","0.0-3.0-6.0-1.0-0.2","61083fda9ef8f465fed35586","6662009ae78f21dd82fcd179","666203af427a871210871256","2234","","j","","","","","","","","./tasks/HMM-beads/Images/NewTrialWC.png","lowH","1","2","1","1","1","1","true","",""
"image-keyboard-response","143","249534","0.0-3.0-6.0-1.0-1.2","61083fda9ef8f465fed35586","6662009ae78f21dd82fcd179","666203af427a871210871256","null","","null","","","","","","","","./tasks/HMM-beads/Images/WhiteBeadChoice.png","","","","","","","","","",""
"image-keyboard-response","144","250037","0.0-3.0-6.0-1.0-2.2","61083fda9ef8f465fed35586","6662009ae78f21dd82fcd179","666203af427a871210871256","null","","null","","","","","","","","./tasks/HMM-beads/Images/WhiteBeadChoiceCorrect.png","","","","","","","","","",""
"image-keyboard-response","145","250807","0.0-3.0-6.0-1.0-0.3","61083fda9ef8f465fed35586","6662009ae78f21dd82fcd179","666203af427a871210871256","769","","j","","","","","","","","./tasks/HMM-beads/Images/NewTrialWC.png","lowH","1","3","1","1","1","1","true","",""
"image-keyboard-response","146","251109","0.0-3.0-6.0-1.0-1.3","61083fda9ef8f465fed35586","6662009ae78f21dd82fcd179","666203af427a871210871256","null","","null","","","","","","","","./tasks/HMM-beads/Images/WhiteBeadChoice.png","","","","","","","","","",""
"image-keyboard-response","147","251614","0.0-3.0-6.0-1.0-2.3","61083fda9ef8f465fed35586","6662009ae78f21dd82fcd179","666203af427a871210871256","null","","null","","","","","","","","./tasks/HMM-beads/Images/WhiteBeadChoiceCorrect.png","","","","","","","","","",""
"image-keyboard-response","148","252138","0.0-3.0-6.0-1.0-0.4","61083fda9ef8f465fed35586","6662009ae78f21dd82fcd179","666203af427a871210871256","523","","j","","","","","","","","./tasks/HMM-beads/Images/NewTrialWC.png","lowH","1","4","1","1","1","1","true","",""
"image-keyboard-response","149","252439","0.0-3.0-6.0-1.0-1.4","61083fda9ef8f465fed35586","6662009ae78f21dd82fcd179","666203af427a871210871256","null","","null","","","","","","","","./tasks/HMM-beads/Images/WhiteBeadChoice.png","","","","","","","","","",""
"image-keyboard-response","150","252945","0.0-3.0-6.0-1.0-2.4","61083fda9ef8f465fed35586","6662009ae78f21dd82fcd179","666203af427a871210871256","null","","null","","","","","","","","./tasks/HMM-beads/Images/WhiteBeadChoiceCorrect.png","","","","","","","","","",""
"image-keyboard-response","151","253604","0.0-3.0-6.0-1.0-0.5","61083fda9ef8f465fed35586","6662009ae78f21dd82fcd179","666203af427a871210871256","654","","j","","","","","","","","./tasks/HMM-beads/Images/NewTrialWC.png","lowH","1","5","1","1","1","1","true","",""
"image-keyboard-response","152","253906","0.0-3.0-6.0-1.0-1.5","61083fda9ef8f465fed35586","6662009ae78f21dd82fcd179","666203af427a871210871256","null","","null","","","","","","","","./tasks/HMM-beads/Images/WhiteBeadChoice.png","","","","","","","","","",""
"image-keyboard-response","153","254408","0.0-3.0-6.0-1.0-2.5","61083fda9ef8f465fed35586","6662009ae78f21dd82fcd179","666203af427a871210871256","null","","null","","","","","","","","./tasks/HMM-beads/Images/WhiteBeadChoiceCorrect.png","","","","","","","","","",""
"image-keyboard-response","154","254888","0.0-3.0-6.0-1.0-0.6","61083fda9ef8f465fed35586","6662009ae78f21dd82fcd179","666203af427a871210871256","479","","j","","","","","","","","./tasks/HMM-beads/Images/NewTrialWC.png","lowH","1","6","1","0","1","1","false","",""
"image-keyboard-response","155","255189","0.0-3.0-6.0-1.0-1.6","61083fda9ef8f465fed35586","6662009ae78f21dd82fcd179","666203af427a871210871256","null","","null","","","","","","","","./tasks/HMM-beads/Images/WhiteBeadChoice.png","","","","","","","","","",""
"image-keyboard-response","156","255690","0.0-3.0-6.0-1.0-2.6","61083fda9ef8f465fed35586","6662009ae78f21dd82fcd179","666203af427a871210871256","null","","null","","","","","","","","./tasks/HMM-beads/Images/WhiteBeadChoiceWrong.png","","","","","","","","","",""
"image-keyboard-response","157","256242","0.0-3.0-6.0-1.0-0.7","61083fda9ef8f465fed35586","6662009ae78f21dd82fcd179","666203af427a871210871256","550","","j","","","","","","","","./tasks/HMM-beads/Images/NewTrialBC.png","lowH","1","7","1","1","0","1","true","",""
"image-keyboard-response","158","256548","0.0-3.0-6.0-1.0-1.7","61083fda9ef8f465fed35586","6662009ae78f21dd82fcd179","666203af427a871210871256","null","","null","","","","","","","","./tasks/HMM-beads/Images/WhiteBeadChoice.png","","","","","","","","","",""
"image-keyboard-response","159","257050","0.0-3.0-6.0-1.0-2.7","61083fda9ef8f465fed35586","6662009ae78f21dd82fcd179","666203af427a871210871256","null","","null","","","","","","","","./tasks/HMM-beads/Images/WhiteBeadChoiceCorrect.png","","","","","","","","","",""
"image-keyboard-response","160","257390","0.0-3.0-6.0-1.0-0.8","61083fda9ef8f465fed35586","6662009ae78f21dd82fcd179","666203af427a871210871256","339","","j","","","","","","","","./tasks/HMM-beads/Images/NewTrialWC.png","lowH","1","8","1","1","1","1","true","",""
"image-keyboard-response","161","257693","0.0-3.0-6.0-1.0-1.8","61083fda9ef8f465fed35586","6662009ae78f21dd82fcd179","666203af427a871210871256","null","","null","","","","","","","","./tasks/HMM-beads/Images/WhiteBeadChoice.png","","","","","","","","","",""
"image-keyboard-response","162","258196","0.0-3.0-6.0-1.0-2.8","61083fda9ef8f465fed35586","6662009ae78f21dd82fcd179","666203af427a871210871256","null","","null","","","","","","","","./tasks/HMM-beads/Images/WhiteBeadChoiceCorrect.png","","","","","","","","","",""
"image-keyboard-response","163","258566","0.0-3.0-6.0-1.0-0.9","61083fda9ef8f465fed35586","6662009ae78f21dd82fcd179","666203af427a871210871256","369","","j","","","","","","","","./tasks/HMM-beads/Images/NewTrialWC.png","lowH","1","9","1","1","1","1","true","",""
"image-keyboard-response","164","258871","0.0-3.0-6.0-1.0-1.9","61083fda9ef8f465fed35586","6662009ae78f21dd82fcd179","666203af427a871210871256","null","","null","","","","","","","","./tasks/HMM-beads/Images/WhiteBeadChoice.png","","","","","","","","","",""
"image-keyboard-response","165","259373","0.0-3.0-6.0-1.0-2.9","61083fda9ef8f465fed35586","6662009ae78f21dd82fcd179","666203af427a871210871256","null","","null","","","","","","","","./tasks/HMM-beads/Images/WhiteBeadChoiceCorrect.png","","","","","","","","","",""
"image-keyboard-response","166","259762","0.0-3.0-6.0-1.0-0.10","61083fda9ef8f465fed35586","6662009ae78f21dd82fcd179","666203af427a871210871256","388","","j","","","","","","","","./tasks/HMM-beads/Images/NewTrialWC.png","lowH","1","10","1","1","1","1","true","",""
"image-keyboard-response","167","260064","0.0-3.0-6.0-1.0-1.10","61083fda9ef8f465fed35586","6662009ae78f21dd82fcd179","666203af427a871210871256","null","","null","","","","","","","","./tasks/HMM-beads/Images/WhiteBeadChoice.png","","","","","","","","","",""
"image-keyboard-response","168","260566","0.0-3.0-6.0-1.0-2.10","61083fda9ef8f465fed35586","6662009ae78f21dd82fcd179","666203af427a871210871256","null","","null","","","","","","","","./tasks/HMM-beads/Images/WhiteBeadChoiceCorrect.png","","","","","","","","","",""
"image-keyboard-response","169","260927","0.0-3.0-6.0-1.0-0.11","61083fda9ef8f465fed35586","6662009ae78f21dd82fcd179","666203af427a871210871256","361","","j","","","","","","","","./tasks/HMM-beads/Images/NewTrialWC.png","lowH","1","11","1","1","1","1","true","",""
"image-keyboard-response","170","261229","0.0-3.0-6.0-1.0-1.11","61083fda9ef8f465fed35586","6662009ae78f21dd82fcd179","666203af427a871210871256","null","","null","","","","","","","","./tasks/HMM-beads/Images/WhiteBeadChoice.png","","","","","","","","","",""
"image-keyboard-response","171","261732","0.0-3.0-6.0-1.0-2.11","61083fda9ef8f465fed35586","6662009ae78f21dd82fcd179","666203af427a871210871256","null","","null","","","","","","","","./tasks/HMM-beads/Images/WhiteBeadChoiceCorrect.png","","","","","","","","","",""
"image-keyboard-response","172","262101","0.0-3.0-6.0-1.0-0.12","61083fda9ef8f465fed35586","6662009ae78f21dd82fcd179","666203af427a871210871256","368","","j","","","","","","","","./tasks/HMM-beads/Images/NewTrialWC.png","lowH","1","12","1","1","1","1","true","",""
"image-keyboard-response","173","262403","0.0-3.0-6.0-1.0-1.12","61083fda9ef8f465fed35586","6662009ae78f21dd82fcd179","666203af427a871210871256","null","","null","","","","","","","","./tasks/HMM-beads/Images/WhiteBeadChoice.png","","","","","","","","","",""
"image-keyboard-response","174","262907","0.0-3.0-6.0-1.0-2.12","61083fda9ef8f465fed35586","6662009ae78f21dd82fcd179","666203af427a871210871256","null","","null","","","","","","","","./tasks/HMM-beads/Images/WhiteBeadChoiceCorrect.png","","","","","","","","","",""
"image-keyboard-response","175","263269","0.0-3.0-6.0-1.0-0.13","61083fda9ef8f465fed35586","6662009ae78f21dd82fcd179","666203af427a871210871256","355","","j","","","","","","","","./tasks/HMM-beads/Images/NewTrialWC.png","lowH","1","13","1","0","1","1","false","",""
"image-keyboard-response","176","263571","0.0-3.0-6.0-1.0-1.13","61083fda9ef8f465fed35586","6662009ae78f21dd82fcd179","666203af427a871210871256","null","","null","","","","","","","","./tasks/HMM-beads/Images/WhiteBeadChoice.png","","","","","","","","","",""
"image-keyboard-response","177","264072","0.0-3.0-6.0-1.0-2.13","61083fda9ef8f465fed35586","6662009ae78f21dd82fcd179","666203af427a871210871256","null","","null","","","","","","","","./tasks/HMM-beads/Images/WhiteBeadChoiceWrong.png","","","","","","","","","",""
"image-keyboard-response","178","264742","0.0-3.0-6.0-1.0-0.14","61083fda9ef8f465fed35586","6662009ae78f21dd82fcd179","666203af427a871210871256","668","","j","","","","","","","","./tasks/HMM-beads/Images/NewTrialBC.png","lowH","1","14","1","0","0","1","false","",""
"image-keyboard-response","179","265046","0.0-3.0-6.0-1.0-1.14","61083fda9ef8f465fed35586","6662009ae78f21dd82fcd179","666203af427a871210871256","null","","null","","","","","","","","./tasks/HMM-beads/Images/WhiteBeadChoice.png","","","","","","","","","",""
"image-keyboard-response","180","265547","0.0-3.0-6.0-1.0-2.14","61083fda9ef8f465fed35586","6662009ae78f21dd82fcd179","666203af427a871210871256","null","","null","","","","","","","","./tasks/HMM-beads/Images/WhiteBeadChoiceWrong.png","","","","","","","","","",""
"image-keyboard-response","181","265997","0.0-3.0-6.0-1.0-0.15","61083fda9ef8f465fed35586","6662009ae78f21dd82fcd179","666203af427a871210871256","450","","j","","","","","","","","./tasks/HMM-beads/Images/NewTrialBC.png","lowH","1","15","1","1","0","1","true","",""
"image-keyboard-response","182","266299","0.0-3.0-6.0-1.0-1.15","61083fda9ef8f465fed35586","6662009ae78f21dd82fcd179","666203af427a871210871256","null","","null","","","","","","","","./tasks/HMM-beads/Images/WhiteBeadChoice.png","","","","","","","","","",""
"image-keyboard-response","183","266801","0.0-3.0-6.0-1.0-2.15","61083fda9ef8f465fed35586","6662009ae78f21dd82fcd179","666203af427a871210871256","null","","null","","","","","","","","./tasks/HMM-beads/Images/WhiteBeadChoiceCorrect.png","","","","","","","","","",""
"image-keyboard-response","184","267200","0.0-3.0-6.0-1.0-0.16","61083fda9ef8f465fed35586","6662009ae78f21dd82fcd179","666203af427a871210871256","399","","j","","","","","","","","./tasks/HMM-beads/Images/NewTrialWC.png","lowH","1","16","1","1","1","1","true","",""
"image-keyboard-response","185","267502","0.0-3.0-6.0-1.0-1.16","61083fda9ef8f465fed35586","6662009ae78f21dd82fcd179","666203af427a871210871256","null","","null","","","","","","","","./tasks/HMM-beads/Images/WhiteBeadChoice.png","","","","","","","","","",""
"image-keyboard-response","186","268005","0.0-3.0-6.0-1.0-2.16","61083fda9ef8f465fed35586","6662009ae78f21dd82fcd179","666203af427a871210871256","null","","null","","","","","","","","./tasks/HMM-beads/Images/WhiteBeadChoiceCorrect.png","","","","","","","","","",""
"image-keyboard-response","187","268447","0.0-3.0-6.0-1.0-0.17","61083fda9ef8f465fed35586","6662009ae78f21dd82fcd179","666203af427a871210871256","441","","j","","","","","","","","./tasks/HMM-beads/Images/NewTrialWC.png","lowH","1","17","1","1","1","1","true","",""
"image-keyboard-response","188","268748","0.0-3.0-6.0-1.0-1.17","61083fda9ef8f465fed35586","6662009ae78f21dd82fcd179","666203af427a871210871256","null","","null","","","","","","","","./tasks/HMM-beads/Images/WhiteBeadChoice.png","","","","","","","","","",""
"image-keyboard-response","189","269249","0.0-3.0-6.0-1.0-2.17","61083fda9ef8f465fed35586","6662009ae78f21dd82fcd179","666203af427a871210871256","null","","null","","","","","","","","./tasks/HMM-beads/Images/WhiteBeadChoiceCorrect.png","","","","","","","","","",""
"image-keyboard-response","190","269633","0.0-3.0-6.0-1.0-0.18","61083fda9ef8f465fed35586","6662009ae78f21dd82fcd179","666203af427a871210871256","383","","j","","","","","","","","./tasks/HMM-beads/Images/NewTrialWC.png","lowH","1","18","1","1","1","1","true","",""
"image-keyboard-response","191","269937","0.0-3.0-6.0-1.0-1.18","61083fda9ef8f465fed35586","6662009ae78f21dd82fcd179","666203af427a871210871256","null","","null","","","","","","","","./tasks/HMM-beads/Images/WhiteBeadChoice.png","","","","","","","","","",""
"image-keyboard-response","192","270440","0.0-3.0-6.0-1.0-2.18","61083fda9ef8f465fed35586","6662009ae78f21dd82fcd179","666203af427a871210871256","null","","null","","","","","","","","./tasks/HMM-beads/Images/WhiteBeadChoiceCorrect.png","","","","","","","","","",""
"image-keyboard-response","193","270849","0.0-3.0-6.0-1.0-0.19","61083fda9ef8f465fed35586","6662009ae78f21dd82fcd179","666203af427a871210871256","407","","j","","","","","","","","./tasks/HMM-beads/Images/NewTrialWC.png","lowH","1","19","1","1","1","1","true","",""
"image-keyboard-response","194","271150","0.0-3.0-6.0-1.0-1.19","61083fda9ef8f465fed35586","6662009ae78f21dd82fcd179","666203af427a871210871256","null","","null","","","","","","","","./tasks/HMM-beads/Images/WhiteBeadChoice.png","","","","","","","","","",""
"image-keyboard-response","195","271656","0.0-3.0-6.0-1.0-2.19","61083fda9ef8f465fed35586","6662009ae78f21dd82fcd179","666203af427a871210871256","null","","null","","","","","","","","./tasks/HMM-beads/Images/WhiteBeadChoiceCorrect.png","","","","","","","","","",""
"image-keyboard-response","196","272015","0.0-3.0-6.0-1.0-0.20","61083fda9ef8f465fed35586","6662009ae78f21dd82fcd179","666203af427a871210871256","358","","j","","","","","","","","./tasks/HMM-beads/Images/NewTrialWC.png","lowH","1","20","1","1","1","1","true","",""
"image-keyboard-response","197","272319","0.0-3.0-6.0-1.0-1.20","61083fda9ef8f465fed35586","6662009ae78f21dd82fcd179","666203af427a871210871256","null","","null","","","","","","","","./tasks/HMM-beads/Images/WhiteBeadChoice.png","","","","","","","","","",""
"image-keyboard-response","198","272823","0.0-3.0-6.0-1.0-2.20","61083fda9ef8f465fed35586","6662009ae78f21dd82fcd179","666203af427a871210871256","null","","null","","","","","","","","./tasks/HMM-beads/Images/WhiteBeadChoiceCorrect.png","","","","","","","","","",""
"image-keyboard-response","199","273139","0.0-3.0-6.0-1.0-0.21","61083fda9ef8f465fed35586","6662009ae78f21dd82fcd179","666203af427a871210871256","315","","j","","","","","","","","./tasks/HMM-beads/Images/NewTrialWC.png","lowH","1","21","1","1","1","1","true","",""
"image-keyboard-response","200","273440","0.0-3.0-6.0-1.0-1.21","61083fda9ef8f465fed35586","6662009ae78f21dd82fcd179","666203af427a871210871256","null","","null","","","","","","","","./tasks/HMM-beads/Images/WhiteBeadChoice.png","","","","","","","","","",""
"image-keyboard-response","201","273947","0.0-3.0-6.0-1.0-2.21","61083fda9ef8f465fed35586","6662009ae78f21dd82fcd179","666203af427a871210871256","null","","null","","","","","","","","./tasks/HMM-beads/Images/WhiteBeadChoiceCorrect.png","","","","","","","","","",""
"image-keyboard-response","202","274329","0.0-3.0-6.0-1.0-0.22","61083fda9ef8f465fed35586","6662009ae78f21dd82fcd179","666203af427a871210871256","381","","j","","","","","","","","./tasks/HMM-beads/Images/NewTrialWC.png","lowH","1","22","1","1","1","1","true","",""
"image-keyboard-response","203","274632","0.0-3.0-6.0-1.0-1.22","61083fda9ef8f465fed35586","6662009ae78f21dd82fcd179","666203af427a871210871256","null","","null","","","","","","","","./tasks/HMM-beads/Images/WhiteBeadChoice.png","","","","","","","","","",""
"image-keyboard-response","204","275135","0.0-3.0-6.0-1.0-2.22","61083fda9ef8f465fed35586","6662009ae78f21dd82fcd179","666203af427a871210871256","null","","null","","","","","","","","./tasks/HMM-beads/Images/WhiteBeadChoiceCorrect.png","","","","","","","","","",""
"image-keyboard-response","205","275523","0.0-3.0-6.0-1.0-0.23","61083fda9ef8f465fed35586","6662009ae78f21dd82fcd179","666203af427a871210871256","387","","j","","","","","","","","./tasks/HMM-beads/Images/NewTrialWC.png","lowH","1","23","1","1","1","1","true","",""
"image-keyboard-response","206","275825","0.0-3.0-6.0-1.0-1.23","61083fda9ef8f465fed35586","6662009ae78f21dd82fcd179","666203af427a871210871256","null","","null","","","","","","","","./tasks/HMM-beads/Images/WhiteBeadChoice.png","","","","","","","","","",""
"image-keyboard-response","207","276326","0.0-3.0-6.0-1.0-2.23","61083fda9ef8f465fed35586","6662009ae78f21dd82fcd179","666203af427a871210871256","null","","null","","","","","","","","./tasks/HMM-beads/Images/WhiteBeadChoiceCorrect.png","","","","","","","","","",""
"image-keyboard-response","208","276821","0.0-3.0-6.0-1.0-0.24","61083fda9ef8f465fed35586","6662009ae78f21dd82fcd179","666203af427a871210871256","495","","j","","","","","","","","./tasks/HMM-beads/Images/NewTrialWC.png","lowH","1","24","1","0","1","1","false","",""
"image-keyboard-response","209","277122","0.0-3.0-6.0-1.0-1.24","61083fda9ef8f465fed35586","6662009ae78f21dd82fcd179","666203af427a871210871256","null","","null","","","","","","","","./tasks/HMM-beads/Images/WhiteBeadChoice.png","","","","","","","","","",""
"image-keyboard-response","210","277623","0.0-3.0-6.0-1.0-2.24","61083fda9ef8f465fed35586","6662009ae78f21dd82fcd179","666203af427a871210871256","null","","null","","","","","","","","./tasks/HMM-beads/Images/WhiteBeadChoiceWrong.png","","","","","","","","","",""
"image-keyboard-response","211","277994","0.0-3.0-6.0-1.0-0.25","61083fda9ef8f465fed35586","6662009ae78f21dd82fcd179","666203af427a871210871256","369","","j","","","","","","","","./tasks/HMM-beads/Images/NewTrialBC.png","lowH","1","25","1","1","0","1","true","",""
"image-keyboard-response","212","278296","0.0-3.0-6.0-1.0-1.25","61083fda9ef8f465fed35586","6662009ae78f21dd82fcd179","666203af427a871210871256","null","","null","","","","","","","","./tasks/HMM-beads/Images/WhiteBeadChoice.png","","","","","","","","","",""
"image-keyboard-response","213","278798","0.0-3.0-6.0-1.0-2.25","61083fda9ef8f465fed35586","6662009ae78f21dd82fcd179","666203af427a871210871256","null","","null","","","","","","","","./tasks/HMM-beads/Images/WhiteBeadChoiceCorrect.png","","","","","","","","","",""
"image-keyboard-response","214","279160","0.0-3.0-6.0-1.0-0.26","61083fda9ef8f465fed35586","6662009ae78f21dd82fcd179","666203af427a871210871256","362","","j","","","","","","","","./tasks/HMM-beads/Images/NewTrialWC.png","lowH","1","26","1","0","1","1","false","",""
"image-keyboard-response","215","279463","0.0-3.0-6.0-1.0-1.26","61083fda9ef8f465fed35586","6662009ae78f21dd82fcd179","666203af427a871210871256","null","","null","","","","","","","","./tasks/HMM-beads/Images/WhiteBeadChoice.png","","","","","","","","","",""
"image-keyboard-response","216","279969","0.0-3.0-6.0-1.0-2.26","61083fda9ef8f465fed35586","6662009ae78f21dd82fcd179","666203af427a871210871256","null","","null","","","","","","","","./tasks/HMM-beads/Images/WhiteBeadChoiceWrong.png","","","","","","","","","",""
"image-keyboard-response","217","280362","0.0-3.0-6.0-1.0-0.27","61083fda9ef8f465fed35586","6662009ae78f21dd82fcd179","666203af427a871210871256","391","","j","","","","","","","","./tasks/HMM-beads/Images/NewTrialBC.png","lowH","1","27","1","1","0","1","true","",""
"image-keyboard-response","218","280664","0.0-3.0-6.0-1.0-1.27","61083fda9ef8f465fed35586","6662009ae78f21dd82fcd179","666203af427a871210871256","null","","null","","","","","","","","./tasks/HMM-beads/Images/WhiteBeadChoice.png","","","","","","","","","",""
"image-keyboard-response","219","281165","0.0-3.0-6.0-1.0-2.27","61083fda9ef8f465fed35586","6662009ae78f21dd82fcd179","666203af427a871210871256","null","","null","","","","","","","","./tasks/HMM-beads/Images/WhiteBeadChoiceCorrect.png","","","","","","","","","",""
"image-keyboard-response","220","281562","0.0-3.0-6.0-1.0-0.28","61083fda9ef8f465fed35586","6662009ae78f21dd82fcd179","666203af427a871210871256","397","","j","","","","","","","","./tasks/HMM-beads/Images/NewTrialWC.png","lowH","1","28","1","1","1","1","true","",""
"image-keyboard-response","221","281863","0.0-3.0-6.0-1.0-1.28","61083fda9ef8f465fed35586","6662009ae78f21dd82fcd179","666203af427a871210871256","null","","null","","","","","","","","./tasks/HMM-beads/Images/WhiteBeadChoice.png","","","","","","","","","",""
"image-keyboard-response","222","282366","0.0-3.0-6.0-1.0-2.28","61083fda9ef8f465fed35586","6662009ae78f21dd82fcd179","666203af427a871210871256","null","","null","","","","","","","","./tasks/HMM-beads/Images/WhiteBeadChoiceCorrect.png","","","","","","","","","",""
"image-keyboard-response","223","282743","0.0-3.0-6.0-1.0-0.29","61083fda9ef8f465fed35586","6662009ae78f21dd82fcd179","666203af427a871210871256","376","","j","","","","","","","","./tasks/HMM-beads/Images/NewTrialWC.png","lowH","1","29","1","1","1","1","true","",""
"image-keyboard-response","224","283045","0.0-3.0-6.0-1.0-1.29","61083fda9ef8f465fed35586","6662009ae78f21dd82fcd179","666203af427a871210871256","null","","null","","","","","","","","./tasks/HMM-beads/Images/WhiteBeadChoice.png","","","","","","","","","",""
"image-keyboard-response","225","283546","0.0-3.0-6.0-1.0-2.29","61083fda9ef8f465fed35586","6662009ae78f21dd82fcd179","666203af427a871210871256","null","","null","","","","","","","","./tasks/HMM-beads/Images/WhiteBeadChoiceCorrect.png","","","","","","","","","",""
"image-keyboard-response","226","283877","0.0-3.0-6.0-1.0-0.30","61083fda9ef8f465fed35586","6662009ae78f21dd82fcd179","666203af427a871210871256","331","","j","","","","","","","","./tasks/HMM-beads/Images/NewTrialWC.png","lowH","1","30","1","1","1","1","true","",""
"image-keyboard-response","227","284179","0.0-3.0-6.0-1.0-1.30","61083fda9ef8f465fed35586","6662009ae78f21dd82fcd179","666203af427a871210871256","null","","null","","","","","","","","./tasks/HMM-beads/Images/WhiteBeadChoice.png","","","","","","","","","",""
"image-keyboard-response","228","284682","0.0-3.0-6.0-1.0-2.30","61083fda9ef8f465fed35586","6662009ae78f21dd82fcd179","666203af427a871210871256","null","","null","","","","","","","","./tasks/HMM-beads/Images/WhiteBeadChoiceCorrect.png","","","","","","","","","",""
"image-keyboard-response","229","285014","0.0-3.0-6.0-1.0-0.31","61083fda9ef8f465fed35586","6662009ae78f21dd82fcd179","666203af427a871210871256","331","","j","","","","","","","","./tasks/HMM-beads/Images/NewTrialWC.png","lowH","1","31","1","1","1","1","true","",""
"image-keyboard-response","230","285317","0.0-3.0-6.0-1.0-1.31","61083fda9ef8f465fed35586","6662009ae78f21dd82fcd179","666203af427a871210871256","null","","null","","","","","","","","./tasks/HMM-beads/Images/WhiteBeadChoice.png","","","","","","","","","",""
"image-keyboard-response","231","285820","0.0-3.0-6.0-1.0-2.31","61083fda9ef8f465fed35586","6662009ae78f21dd82fcd179","666203af427a871210871256","null","","null","","","","","","","","./tasks/HMM-beads/Images/WhiteBeadChoiceCorrect.png","","","","","","","","","",""
"image-keyboard-response","232","286104","0.0-3.0-6.0-1.0-0.32","61083fda9ef8f465fed35586","6662009ae78f21dd82fcd179","666203af427a871210871256","282","","j","","","","","","","","./tasks/HMM-beads/Images/NewTrialWC.png","lowH","1","32","1","1","1","1","true","",""
"image-keyboard-response","233","286406","0.0-3.0-6.0-1.0-1.32","61083fda9ef8f465fed35586","6662009ae78f21dd82fcd179","666203af427a871210871256","null","","null","","","","","","","","./tasks/HMM-beads/Images/WhiteBeadChoice.png","","","","","","","","","",""
"image-keyboard-response","234","286907","0.0-3.0-6.0-1.0-2.32","61083fda9ef8f465fed35586","6662009ae78f21dd82fcd179","666203af427a871210871256","null","","null","","","","","","","","./tasks/HMM-beads/Images/WhiteBeadChoiceCorrect.png","","","","","","","","","",""
"image-keyboard-response","235","287311","0.0-3.0-6.0-1.0-0.33","61083fda9ef8f465fed35586","6662009ae78f21dd82fcd179","666203af427a871210871256","404","","j","","","","","","","","./tasks/HMM-beads/Images/NewTrialWC.png","lowH","1","33","1","1","1","1","true","",""
"image-keyboard-response","236","287614","0.0-3.0-6.0-1.0-1.33","61083fda9ef8f465fed35586","6662009ae78f21dd82fcd179","666203af427a871210871256","null","","null","","","","","","","","./tasks/HMM-beads/Images/WhiteBeadChoice.png","","","","","","","","","",""
"image-keyboard-response","237","288115","0.0-3.0-6.0-1.0-2.33","61083fda9ef8f465fed35586","6662009ae78f21dd82fcd179","666203af427a871210871256","null","","null","","","","","","","","./tasks/HMM-beads/Images/WhiteBeadChoiceCorrect.png","","","","","","","","","",""
"image-keyboard-response","238","288512","0.0-3.0-6.0-1.0-0.34","61083fda9ef8f465fed35586","6662009ae78f21dd82fcd179","666203af427a871210871256","396","","j","","","","","","","","./tasks/HMM-beads/Images/NewTrialWC.png","lowH","1","34","1","1","1","1","true","",""
"image-keyboard-response","239","288814","0.0-3.0-6.0-1.0-1.34","61083fda9ef8f465fed35586","6662009ae78f21dd82fcd179","666203af427a871210871256","null","","null","","","","","","","","./tasks/HMM-beads/Images/WhiteBeadChoice.png","","","","","","","","","",""
"image-keyboard-response","240","289314","0.0-3.0-6.0-1.0-2.34","61083fda9ef8f465fed35586","6662009ae78f21dd82fcd179","666203af427a871210871256","null","","null","","","","","","","","./tasks/HMM-beads/Images/WhiteBeadChoiceCorrect.png","","","","","","","","","",""
"image-keyboard-response","241","289700","0.0-3.0-6.0-1.0-0.35","61083fda9ef8f465fed35586","6662009ae78f21dd82fcd179","666203af427a871210871256","386","","j","","","","","","","","./tasks/HMM-beads/Images/NewTrialWC.png","lowH","1","35","1","1","1","1","true","",""
"image-keyboard-response","242","290005","0.0-3.0-6.0-1.0-1.35","61083fda9ef8f465fed35586","6662009ae78f21dd82fcd179","666203af427a871210871256","null","","null","","","","","","","","./tasks/HMM-beads/Images/WhiteBeadChoice.png","","","","","","","","","",""
"image-keyboard-response","243","290508","0.0-3.0-6.0-1.0-2.35","61083fda9ef8f465fed35586","6662009ae78f21dd82fcd179","666203af427a871210871256","null","","null","","","","","","","","./tasks/HMM-beads/Images/WhiteBeadChoiceCorrect.png","","","","","","","","","",""
"image-keyboard-response","244","290809","0.0-3.0-6.0-1.0-0.36","61083fda9ef8f465fed35586","6662009ae78f21dd82fcd179","666203af427a871210871256","297","","j","","","","","","","","./tasks/HMM-beads/Images/NewTrialWC.png","lowH","1","36","1","1","1","1","true","",""
"image-keyboard-response","245","291110","0.0-3.0-6.0-1.0-1.36","61083fda9ef8f465fed35586","6662009ae78f21dd82fcd179","666203af427a871210871256","null","","null","","","","","","","","./tasks/HMM-beads/Images/WhiteBeadChoice.png","","","","","","","","","",""
"image-keyboard-response","246","291614","0.0-3.0-6.0-1.0-2.36","61083fda9ef8f465fed35586","6662009ae78f21dd82fcd179","666203af427a871210871256","null","","null","","","","","","","","./tasks/HMM-beads/Images/WhiteBeadChoiceCorrect.png","","","","","","","","","",""
"image-keyboard-response","247","292011","0.0-3.0-6.0-1.0-0.37","61083fda9ef8f465fed35586","6662009ae78f21dd82fcd179","666203af427a871210871256","397","","j","","","","","","","","./tasks/HMM-beads/Images/NewTrialWC.png","lowH","1","37","1","1","1","1","true","",""
"image-keyboard-response","248","292314","0.0-3.0-6.0-1.0-1.37","61083fda9ef8f465fed35586","6662009ae78f21dd82fcd179","666203af427a871210871256","null","","null","","","","","","","","./tasks/HMM-beads/Images/WhiteBeadChoice.png","","","","","","","","","",""
"image-keyboard-response","249","292816","0.0-3.0-6.0-1.0-2.37","61083fda9ef8f465fed35586","6662009ae78f21dd82fcd179","666203af427a871210871256","null","","null","","","","","","","","./tasks/HMM-beads/Images/WhiteBeadChoiceCorrect.png","","","","","","","","","",""
"image-keyboard-response","250","293154","0.0-3.0-6.0-1.0-0.38","61083fda9ef8f465fed35586","6662009ae78f21dd82fcd179","666203af427a871210871256","338","","j","","","","","","","","./tasks/HMM-beads/Images/NewTrialWC.png","lowH","1","38","1","1","1","1","true","",""
"image-keyboard-response","251","293456","0.0-3.0-6.0-1.0-1.38","61083fda9ef8f465fed35586","6662009ae78f21dd82fcd179","666203af427a871210871256","null","","null","","","","","","","","./tasks/HMM-beads/Images/WhiteBeadChoice.png","","","","","","","","","",""
"image-keyboard-response","252","293957","0.0-3.0-6.0-1.0-2.38","61083fda9ef8f465fed35586","6662009ae78f21dd82fcd179","666203af427a871210871256","null","","null","","","","","","","","./tasks/HMM-beads/Images/WhiteBeadChoiceCorrect.png","","","","","","","","","",""
"image-keyboard-response","253","294382","0.0-3.0-6.0-1.0-0.39","61083fda9ef8f465fed35586","6662009ae78f21dd82fcd179","666203af427a871210871256","424","","j","","","","","","","","./tasks/HMM-beads/Images/NewTrialWC.png","lowH","1","39","1","1","1","1","true","",""
"image-keyboard-response","254","294684","0.0-3.0-6.0-1.0-1.39","61083fda9ef8f465fed35586","6662009ae78f21dd82fcd179","666203af427a871210871256","null","","null","","","","","","","","./tasks/HMM-beads/Images/WhiteBeadChoice.png","","","","","","","","","",""
"image-keyboard-response","255","295188","0.0-3.0-6.0-1.0-2.39","61083fda9ef8f465fed35586","6662009ae78f21dd82fcd179","666203af427a871210871256","null","","null","","","","","","","","./tasks/HMM-beads/Images/WhiteBeadChoiceCorrect.png","","","","","","","","","",""
"image-keyboard-response","256","295500","0.0-3.0-6.0-1.0-0.40","61083fda9ef8f465fed35586","6662009ae78f21dd82fcd179","666203af427a871210871256","311","","j","","","","","","","","./tasks/HMM-beads/Images/NewTrialWC.png","lowH","1","40","1","1","1","1","true","",""
"image-keyboard-response","257","295802","0.0-3.0-6.0-1.0-1.40","61083fda9ef8f465fed35586","6662009ae78f21dd82fcd179","666203af427a871210871256","null","","null","","","","","","","","./tasks/HMM-beads/Images/WhiteBeadChoice.png","","","","","","","","","",""
"image-keyboard-response","258","296303","0.0-3.0-6.0-1.0-2.40","61083fda9ef8f465fed35586","6662009ae78f21dd82fcd179","666203af427a871210871256","null","","null","","","","","","","","./tasks/HMM-beads/Images/WhiteBeadChoiceCorrect.png","","","","","","","","","",""
"image-keyboard-response","259","296727","0.0-3.0-6.0-1.0-0.41","61083fda9ef8f465fed35586","6662009ae78f21dd82fcd179","666203af427a871210871256","424","","j","","","","","","","","./tasks/HMM-beads/Images/NewTrialWC.png","lowH","1","41","1","1","1","1","true","",""
"image-keyboard-response","260","297029","0.0-3.0-6.0-1.0-1.41","61083fda9ef8f465fed35586","6662009ae78f21dd82fcd179","666203af427a871210871256","null","","null","","","","","","","","./tasks/HMM-beads/Images/WhiteBeadChoice.png","","","","","","","","","",""
"image-keyboard-response","261","297531","0.0-3.0-6.0-1.0-2.41","61083fda9ef8f465fed35586","6662009ae78f21dd82fcd179","666203af427a871210871256","null","","null","","","","","","","","./tasks/HMM-beads/Images/WhiteBeadChoiceCorrect.png","","","","","","","","","",""
"image-keyboard-response","262","297823","0.0-3.0-6.0-1.0-0.42","61083fda9ef8f465fed35586","6662009ae78f21dd82fcd179","666203af427a871210871256","290","","j","","","","","","","","./tasks/HMM-beads/Images/NewTrialWC.png","lowH","1","42","1","1","1","1","true","",""
"image-keyboard-response","263","298125","0.0-3.0-6.0-1.0-1.42","61083fda9ef8f465fed35586","6662009ae78f21dd82fcd179","666203af427a871210871256","null","","null","","","","","","","","./tasks/HMM-beads/Images/WhiteBeadChoice.png","","","","","","","","","",""
"image-keyboard-response","264","298630","0.0-3.0-6.0-1.0-2.42","61083fda9ef8f465fed35586","6662009ae78f21dd82fcd179","666203af427a871210871256","null","","null","","","","","","","","./tasks/HMM-beads/Images/WhiteBeadChoiceCorrect.png","","","","","","","","","",""
"image-keyboard-response","265","298964","0.0-3.0-6.0-1.0-0.43","61083fda9ef8f465fed35586","6662009ae78f21dd82fcd179","666203af427a871210871256","328","","j","","","","","","","","./tasks/HMM-beads/Images/NewTrialWC.png","lowH","1","43","1","1","1","1","true","",""
"image-keyboard-response","266","299266","0.0-3.0-6.0-1.0-1.43","61083fda9ef8f465fed35586","6662009ae78f21dd82fcd179","666203af427a871210871256","null","","null","","","","","","","","./tasks/HMM-beads/Images/WhiteBeadChoice.png","","","","","","","","","",""
"image-keyboard-response","267","299768","0.0-3.0-6.0-1.0-2.43","61083fda9ef8f465fed35586","6662009ae78f21dd82fcd179","666203af427a871210871256","null","","null","","","","","","","","./tasks/HMM-beads/Images/WhiteBeadChoiceCorrect.png","","","","","","","","","",""
"image-keyboard-response","268","300149","0.0-3.0-6.0-1.0-0.44","61083fda9ef8f465fed35586","6662009ae78f21dd82fcd179","666203af427a871210871256","380","","j","","","","","","","","./tasks/HMM-beads/Images/NewTrialWC.png","lowH","1","44","1","1","1","1","true","",""
"image-keyboard-response","269","300452","0.0-3.0-6.0-1.0-1.44","61083fda9ef8f465fed35586","6662009ae78f21dd82fcd179","666203af427a871210871256","null","","null","","","","","","","","./tasks/HMM-beads/Images/WhiteBeadChoice.png","","","","","","","","","",""
"image-keyboard-response","270","300955","0.0-3.0-6.0-1.0-2.44","61083fda9ef8f465fed35586","6662009ae78f21dd82fcd179","666203af427a871210871256","null","","null","","","","","","","","./tasks/HMM-beads/Images/WhiteBeadChoiceCorrect.png","","","","","","","","","",""
"image-keyboard-response","271","301248","0.0-3.0-6.0-1.0-0.45","61083fda9ef8f465fed35586","6662009ae78f21dd82fcd179","666203af427a871210871256","292","","j","","","","","","","","./tasks/HMM-beads/Images/NewTrialWC.png","lowH","1","45","1","1","1","1","true","",""
"image-keyboard-response","272","301550","0.0-3.0-6.0-1.0-1.45","61083fda9ef8f465fed35586","6662009ae78f21dd82fcd179","666203af427a871210871256","null","","null","","","","","","","","./tasks/HMM-beads/Images/WhiteBeadChoice.png","","","","","","","","","",""
"image-keyboard-response","273","302053","0.0-3.0-6.0-1.0-2.45","61083fda9ef8f465fed35586","6662009ae78f21dd82fcd179","666203af427a871210871256","null","","null","","","","","","","","./tasks/HMM-beads/Images/WhiteBeadChoiceCorrect.png","","","","","","","","","",""
"image-keyboard-response","274","302453","0.0-3.0-6.0-1.0-0.46","61083fda9ef8f465fed35586","6662009ae78f21dd82fcd179","666203af427a871210871256","398","","j","","","","","","","","./tasks/HMM-beads/Images/NewTrialWC.png","lowH","1","46","1","1","1","1","true","",""
"image-keyboard-response","275","302756","0.0-3.0-6.0-1.0-1.46","61083fda9ef8f465fed35586","6662009ae78f21dd82fcd179","666203af427a871210871256","null","","null","","","","","","","","./tasks/HMM-beads/Images/WhiteBeadChoice.png","","","","","","","","","",""
"image-keyboard-response","276","303257","0.0-3.0-6.0-1.0-2.46","61083fda9ef8f465fed35586","6662009ae78f21dd82fcd179","666203af427a871210871256","null","","null","","","","","","","","./tasks/HMM-beads/Images/WhiteBeadChoiceCorrect.png","","","","","","","","","",""
"image-keyboard-response","277","303599","0.0-3.0-6.0-1.0-0.47","61083fda9ef8f465fed35586","6662009ae78f21dd82fcd179","666203af427a871210871256","340","","j","","","","","","","","./tasks/HMM-beads/Images/NewTrialWC.png","lowH","1","47","1","0","1","1","false","",""
"image-keyboard-response","278","303902","0.0-3.0-6.0-1.0-1.47","61083fda9ef8f465fed35586","6662009ae78f21dd82fcd179","666203af427a871210871256","null","","null","","","","","","","","./tasks/HMM-beads/Images/WhiteBeadChoice.png","","","","","","","","","",""
"image-keyboard-response","279","304404","0.0-3.0-6.0-1.0-2.47","61083fda9ef8f465fed35586","6662009ae78f21dd82fcd179","666203af427a871210871256","null","","null","","","","","","","","./tasks/HMM-beads/Images/WhiteBeadChoiceWrong.png","","","","","","","","","",""
"image-keyboard-response","280","304806","0.0-3.0-6.0-1.0-0.48","61083fda9ef8f465fed35586","6662009ae78f21dd82fcd179","666203af427a871210871256","401","","j","","","","","","","","./tasks/HMM-beads/Images/NewTrialBC.png","lowH","1","48","1","0","0","1","false","",""
"image-keyboard-response","281","305110","0.0-3.0-6.0-1.0-1.48","61083fda9ef8f465fed35586","6662009ae78f21dd82fcd179","666203af427a871210871256","null","","null","","","","","","","","./tasks/HMM-beads/Images/WhiteBeadChoice.png","","","","","","","","","",""
"image-keyboard-response","282","305613","0.0-3.0-6.0-1.0-2.48","61083fda9ef8f465fed35586","6662009ae78f21dd82fcd179","666203af427a871210871256","null","","null","","","","","","","","./tasks/HMM-beads/Images/WhiteBeadChoiceWrong.png","","","","","","","","","",""
"image-keyboard-response","283","306017","0.0-3.0-6.0-1.0-0.49","61083fda9ef8f465fed35586","6662009ae78f21dd82fcd179","666203af427a871210871256","399","","j","","","","","","","","./tasks/HMM-beads/Images/NewTrialBC.png","lowH","1","49","1","0","0","1","false","",""
"image-keyboard-response","284","306320","0.0-3.0-6.0-1.0-1.49","61083fda9ef8f465fed35586","6662009ae78f21dd82fcd179","666203af427a871210871256","null","","null","","","","","","","","./tasks/HMM-beads/Images/WhiteBeadChoice.png","","","","","","","","","",""
"image-keyboard-response","285","306823","0.0-3.0-6.0-1.0-2.49","61083fda9ef8f465fed35586","6662009ae78f21dd82fcd179","666203af427a871210871256","null","","null","","","","","","","","./tasks/HMM-beads/Images/WhiteBeadChoiceWrong.png","","","","","","","","","",""
"image-keyboard-response","286","307199","0.0-3.0-6.0-1.0-0.50","61083fda9ef8f465fed35586","6662009ae78f21dd82fcd179","666203af427a871210871256","375","","j","","","","","","","","./tasks/HMM-beads/Images/NewTrialBC.png","lowH","1","50","1","1","0","1","true","",""
"image-keyboard-response","287","307502","0.0-3.0-6.0-1.0-1.50","61083fda9ef8f465fed35586","6662009ae78f21dd82fcd179","666203af427a871210871256","null","","null","","","","","","","","./tasks/HMM-beads/Images/WhiteBeadChoice.png","","","","","","","","","",""
"image-keyboard-response","288","308005","0.0-3.0-6.0-1.0-2.50","61083fda9ef8f465fed35586","6662009ae78f21dd82fcd179","666203af427a871210871256","null","","null","","","","","","","","./tasks/HMM-beads/Images/WhiteBeadChoiceCorrect.png","","","","","","","","","",""
"image-keyboard-response","289","308395","0.0-3.0-6.0-1.0-0.51","61083fda9ef8f465fed35586","6662009ae78f21dd82fcd179","666203af427a871210871256","390","","j","","","","","","","","./tasks/HMM-beads/Images/NewTrialWC.png","lowH","1","51","1","1","1","1","true","",""
"image-keyboard-response","290","308697","0.0-3.0-6.0-1.0-1.51","61083fda9ef8f465fed35586","6662009ae78f21dd82fcd179","666203af427a871210871256","null","","null","","","","","","","","./tasks/HMM-beads/Images/WhiteBeadChoice.png","","","","","","","","","",""
"image-keyboard-response","291","309200","0.0-3.0-6.0-1.0-2.51","61083fda9ef8f465fed35586","6662009ae78f21dd82fcd179","666203af427a871210871256","null","","null","","","","","","","","./tasks/HMM-beads/Images/WhiteBeadChoiceCorrect.png","","","","","","","","","",""
"image-keyboard-response","292","309621","0.0-3.0-6.0-1.0-0.52","61083fda9ef8f465fed35586","6662009ae78f21dd82fcd179","666203af427a871210871256","420","","j","","","","","","","","./tasks/HMM-beads/Images/NewTrialWC.png","lowH","1","52","1","1","1","1","true","",""
"image-keyboard-response","293","309922","0.0-3.0-6.0-1.0-1.52","61083fda9ef8f465fed35586","6662009ae78f21dd82fcd179","666203af427a871210871256","null","","null","","","","","","","","./tasks/HMM-beads/Images/WhiteBeadChoice.png","","","","","","","","","",""
"image-keyboard-response","294","310423","0.0-3.0-6.0-1.0-2.52","61083fda9ef8f465fed35586","6662009ae78f21dd82fcd179","666203af427a871210871256","null","","null","","","","","","","","./tasks/HMM-beads/Images/WhiteBeadChoiceCorrect.png","","","","","","","","","",""
"image-keyboard-response","295","310796","0.0-3.0-6.0-1.0-0.53","61083fda9ef8f465fed35586","6662009ae78f21dd82fcd179","666203af427a871210871256","372","","j","","","","","","","","./tasks/HMM-beads/Images/NewTrialWC.png","lowH","1","53","1","1","1","1","true","",""
"image-keyboard-response","296","311098","0.0-3.0-6.0-1.0-1.53","61083fda9ef8f465fed35586","6662009ae78f21dd82fcd179","666203af427a871210871256","null","","null","","","","","","","","./tasks/HMM-beads/Images/WhiteBeadChoice.png","","","","","","","","","",""
"image-keyboard-response","297","311600","0.0-3.0-6.0-1.0-2.53","61083fda9ef8f465fed35586","6662009ae78f21dd82fcd179","666203af427a871210871256","null","","null","","","","","","","","./tasks/HMM-beads/Images/WhiteBeadChoiceCorrect.png","","","","","","","","","",""
"image-keyboard-response","298","311935","0.0-3.0-6.0-1.0-0.54","61083fda9ef8f465fed35586","6662009ae78f21dd82fcd179","666203af427a871210871256","328","","j","","","","","","","","./tasks/HMM-beads/Images/NewTrialWC.png","lowH","1","54","1","1","1","1","true","",""
"image-keyboard-response","299","312237","0.0-3.0-6.0-1.0-1.54","61083fda9ef8f465fed35586","6662009ae78f21dd82fcd179","666203af427a871210871256","null","","null","","","","","","","","./tasks/HMM-beads/Images/WhiteBeadChoice.png","","","","","","","","","",""
"image-keyboard-response","300","312740","0.0-3.0-6.0-1.0-2.54","61083fda9ef8f465fed35586","6662009ae78f21dd82fcd179","666203af427a871210871256","null","","null","","","","","","","","./tasks/HMM-beads/Images/WhiteBeadChoiceCorrect.png","","","","","","","","","",""
"image-keyboard-response","301","313232","0.0-3.0-6.0-1.0-0.55","61083fda9ef8f465fed35586","6662009ae78f21dd82fcd179","666203af427a871210871256","491","","j","","","","","","","","./tasks/HMM-beads/Images/NewTrialWC.png","lowH","1","55","1","1","1","1","true","",""
"image-keyboard-response","302","313537","0.0-3.0-6.0-1.0-1.55","61083fda9ef8f465fed35586","6662009ae78f21dd82fcd179","666203af427a871210871256","null","","null","","","","","","","","./tasks/HMM-beads/Images/WhiteBeadChoice.png","","","","","","","","","",""
"image-keyboard-response","303","314039","0.0-3.0-6.0-1.0-2.55","61083fda9ef8f465fed35586","6662009ae78f21dd82fcd179","666203af427a871210871256","null","","null","","","","","","","","./tasks/HMM-beads/Images/WhiteBeadChoiceCorrect.png","","","","","","","","","",""
"image-keyboard-response","304","314371","0.0-3.0-6.0-1.0-0.56","61083fda9ef8f465fed35586","6662009ae78f21dd82fcd179","666203af427a871210871256","332","","j","","","","","","","","./tasks/HMM-beads/Images/NewTrialWC.png","lowH","1","56","1","1","1","1","true","",""
"image-keyboard-response","305","314672","0.0-3.0-6.0-1.0-1.56","61083fda9ef8f465fed35586","6662009ae78f21dd82fcd179","666203af427a871210871256","null","","null","","","","","","","","./tasks/HMM-beads/Images/WhiteBeadChoice.png","","","","","","","","","",""
"image-keyboard-response","306","315174","0.0-3.0-6.0-1.0-2.56","61083fda9ef8f465fed35586","6662009ae78f21dd82fcd179","666203af427a871210871256","null","","null","","","","","","","","./tasks/HMM-beads/Images/WhiteBeadChoiceCorrect.png","","","","","","","","","",""
"image-keyboard-response","307","315545","0.0-3.0-6.0-1.0-0.57","61083fda9ef8f465fed35586","6662009ae78f21dd82fcd179","666203af427a871210871256","371","","j","","","","","","","","./tasks/HMM-beads/Images/NewTrialWC.png","lowH","1","57","1","1","1","1","true","",""
"image-keyboard-response","308","315847","0.0-3.0-6.0-1.0-1.57","61083fda9ef8f465fed35586","6662009ae78f21dd82fcd179","666203af427a871210871256","null","","null","","","","","","","","./tasks/HMM-beads/Images/WhiteBeadChoice.png","","","","","","","","","",""
"image-keyboard-response","309","316353","0.0-3.0-6.0-1.0-2.57","61083fda9ef8f465fed35586","6662009ae78f21dd82fcd179","666203af427a871210871256","null","","null","","","","","","","","./tasks/HMM-beads/Images/WhiteBeadChoiceCorrect.png","","","","","","","","","",""
"image-keyboard-response","310","316686","0.0-3.0-6.0-1.0-0.58","61083fda9ef8f465fed35586","6662009ae78f21dd82fcd179","666203af427a871210871256","333","","j","","","","","","","","./tasks/HMM-beads/Images/NewTrialWC.png","lowH","1","58","1","1","1","1","true","",""
"image-keyboard-response","311","316990","0.0-3.0-6.0-1.0-1.58","61083fda9ef8f465fed35586","6662009ae78f21dd82fcd179","666203af427a871210871256","null","","null","","","","","","","","./tasks/HMM-beads/Images/WhiteBeadChoice.png","","","","","","","","","",""
"image-keyboard-response","312","317492","0.0-3.0-6.0-1.0-2.58","61083fda9ef8f465fed35586","6662009ae78f21dd82fcd179","666203af427a871210871256","null","","null","","","","","","","","./tasks/HMM-beads/Images/WhiteBeadChoiceCorrect.png","","","","","","","","","",""
"image-keyboard-response","313","317872","0.0-3.0-6.0-1.0-0.59","61083fda9ef8f465fed35586","6662009ae78f21dd82fcd179","666203af427a871210871256","376","","j","","","","","","","","./tasks/HMM-beads/Images/NewTrialWC.png","lowH","1","59","1","0","1","1","false","",""
"image-keyboard-response","314","318175","0.0-3.0-6.0-1.0-1.59","61083fda9ef8f465fed35586","6662009ae78f21dd82fcd179","666203af427a871210871256","null","","null","","","","","","","","./tasks/HMM-beads/Images/WhiteBeadChoice.png","","","","","","","","","",""
"image-keyboard-response","315","318680","0.0-3.0-6.0-1.0-2.59","61083fda9ef8f465fed35586","6662009ae78f21dd82fcd179","666203af427a871210871256","null","","null","","","","","","","","./tasks/HMM-beads/Images/WhiteBeadChoiceWrong.png","","","","","","","","","",""
"image-keyboard-response","316","318991","0.0-3.0-6.0-1.0-0.60","61083fda9ef8f465fed35586","6662009ae78f21dd82fcd179","666203af427a871210871256","311","","j","","","","","","","","./tasks/HMM-beads/Images/NewTrialBC.png","lowH","1","60","1","1","0","1","true","",""
"image-keyboard-response","317","319294","0.0-3.0-6.0-1.0-1.60","61083fda9ef8f465fed35586","6662009ae78f21dd82fcd179","666203af427a871210871256","null","","null","","","","","","","","./tasks/HMM-beads/Images/WhiteBeadChoice.png","","","","","","","","","",""
"image-keyboard-response","318","319797","0.0-3.0-6.0-1.0-2.60","61083fda9ef8f465fed35586","6662009ae78f21dd82fcd179","666203af427a871210871256","null","","null","","","","","","","","./tasks/HMM-beads/Images/WhiteBeadChoiceCorrect.png","","","","","","","","","",""
"image-keyboard-response","319","320123","0.0-3.0-6.0-1.0-0.61","61083fda9ef8f465fed35586","6662009ae78f21dd82fcd179","666203af427a871210871256","326","","j","","","","","","","","./tasks/HMM-beads/Images/NewTrialWC.png","lowH","1","61","1","1","1","1","true","",""
"image-keyboard-response","320","320425","0.0-3.0-6.0-1.0-1.61","61083fda9ef8f465fed35586","6662009ae78f21dd82fcd179","666203af427a871210871256","null","","null","","","","","","","","./tasks/HMM-beads/Images/WhiteBeadChoice.png","","","","","","","","","",""
"image-keyboard-response","321","320928","0.0-3.0-6.0-1.0-2.61","61083fda9ef8f465fed35586","6662009ae78f21dd82fcd179","666203af427a871210871256","null","","null","","","","","","","","./tasks/HMM-beads/Images/WhiteBeadChoiceCorrect.png","","","","","","","","","",""
"image-keyboard-response","322","321353","0.0-3.0-6.0-1.0-0.62","61083fda9ef8f465fed35586","6662009ae78f21dd82fcd179","666203af427a871210871256","425","","j","","","","","","","","./tasks/HMM-beads/Images/NewTrialWC.png","lowH","1","62","1","0","1","1","false","",""
"image-keyboard-response","323","321656","0.0-3.0-6.0-1.0-1.62","61083fda9ef8f465fed35586","6662009ae78f21dd82fcd179","666203af427a871210871256","null","","null","","","","","","","","./tasks/HMM-beads/Images/WhiteBeadChoice.png","","","","","","","","","",""
"image-keyboard-response","324","322161","0.0-3.0-6.0-1.0-2.62","61083fda9ef8f465fed35586","6662009ae78f21dd82fcd179","666203af427a871210871256","null","","null","","","","","","","","./tasks/HMM-beads/Images/WhiteBeadChoiceWrong.png","","","","","","","","","",""
"image-keyboard-response","325","322464","0.0-3.0-6.0-1.0-0.63","61083fda9ef8f465fed35586","6662009ae78f21dd82fcd179","666203af427a871210871256","301","","j","","","","","","","","./tasks/HMM-beads/Images/NewTrialBC.png","lowH","1","63","1","1","0","1","true","",""
"image-keyboard-response","326","322765","0.0-3.0-6.0-1.0-1.63","61083fda9ef8f465fed35586","6662009ae78f21dd82fcd179","666203af427a871210871256","null","","null","","","","","","","","./tasks/HMM-beads/Images/WhiteBeadChoice.png","","","","","","","","","",""
"image-keyboard-response","327","323266","0.0-3.0-6.0-1.0-2.63","61083fda9ef8f465fed35586","6662009ae78f21dd82fcd179","666203af427a871210871256","null","","null","","","","","","","","./tasks/HMM-beads/Images/WhiteBeadChoiceCorrect.png","","","","","","","","","",""
"image-keyboard-response","328","323655","0.0-3.0-6.0-1.0-0.64","61083fda9ef8f465fed35586","6662009ae78f21dd82fcd179","666203af427a871210871256","387","","j","","","","","","","","./tasks/HMM-beads/Images/NewTrialWC.png","lowH","1","64","1","1","1","1","true","",""
"image-keyboard-response","329","323956","0.0-3.0-6.0-1.0-1.64","61083fda9ef8f465fed35586","6662009ae78f21dd82fcd179","666203af427a871210871256","null","","null","","","","","","","","./tasks/HMM-beads/Images/WhiteBeadChoice.png","","","","","","","","","",""
"image-keyboard-response","330","324458","0.0-3.0-6.0-1.0-2.64","61083fda9ef8f465fed35586","6662009ae78f21dd82fcd179","666203af427a871210871256","null","","null","","","","","","","","./tasks/HMM-beads/Images/WhiteBeadChoiceCorrect.png","","","","","","","","","",""
"image-keyboard-response","331","324763","0.0-3.0-6.0-1.0-0.65","61083fda9ef8f465fed35586","6662009ae78f21dd82fcd179","666203af427a871210871256","304","","j","","","","","","","","./tasks/HMM-beads/Images/NewTrialWC.png","lowH","1","65","1","1","1","1","true","",""
"image-keyboard-response","332","325065","0.0-3.0-6.0-1.0-1.65","61083fda9ef8f465fed35586","6662009ae78f21dd82fcd179","666203af427a871210871256","null","","null","","","","","","","","./tasks/HMM-beads/Images/WhiteBeadChoice.png","","","","","","","","","",""
"image-keyboard-response","333","325567","0.0-3.0-6.0-1.0-2.65","61083fda9ef8f465fed35586","6662009ae78f21dd82fcd179","666203af427a871210871256","null","","null","","","","","","","","./tasks/HMM-beads/Images/WhiteBeadChoiceCorrect.png","","","","","","","","","",""
"image-keyboard-response","334","325969","0.0-3.0-6.0-1.0-0.66","61083fda9ef8f465fed35586","6662009ae78f21dd82fcd179","666203af427a871210871256","399","","j","","","","","","","","./tasks/HMM-beads/Images/NewTrialWC.png","lowH","1","66","1","1","1","1","true","",""
"image-keyboard-response","335","326271","0.0-3.0-6.0-1.0-1.66","61083fda9ef8f465fed35586","6662009ae78f21dd82fcd179","666203af427a871210871256","null","","null","","","","","","","","./tasks/HMM-beads/Images/WhiteBeadChoice.png","","","","","","","","","",""
"image-keyboard-response","336","326774","0.0-3.0-6.0-1.0-2.66","61083fda9ef8f465fed35586","6662009ae78f21dd82fcd179","666203af427a871210871256","null","","null","","","","","","","","./tasks/HMM-beads/Images/WhiteBeadChoiceCorrect.png","","","","","","","","","",""
"image-keyboard-response","337","327123","0.0-3.0-6.0-1.0-0.67","61083fda9ef8f465fed35586","6662009ae78f21dd82fcd179","666203af427a871210871256","349","","j","","","","","","","","./tasks/HMM-beads/Images/NewTrialWC.png","lowH","1","67","1","0","1","1","false","",""
"image-keyboard-response","338","327424","0.0-3.0-6.0-1.0-1.67","61083fda9ef8f465fed35586","6662009ae78f21dd82fcd179","666203af427a871210871256","null","","null","","","","","","","","./tasks/HMM-beads/Images/WhiteBeadChoice.png","","","","","","","","","",""
"image-keyboard-response","339","327927","0.0-3.0-6.0-1.0-2.67","61083fda9ef8f465fed35586","6662009ae78f21dd82fcd179","666203af427a871210871256","null","","null","","","","","","","","./tasks/HMM-beads/Images/WhiteBeadChoiceWrong.png","","","","","","","","","",""
"image-keyboard-response","340","328314","0.0-3.0-6.0-1.0-0.68","61083fda9ef8f465fed35586","6662009ae78f21dd82fcd179","666203af427a871210871256","386","","j","","","","","","","","./tasks/HMM-beads/Images/NewTrialBC.png","lowH","1","68","1","1","0","1","true","",""
"image-keyboard-response","341","328615","0.0-3.0-6.0-1.0-1.68","61083fda9ef8f465fed35586","6662009ae78f21dd82fcd179","666203af427a871210871256","null","","null","","","","","","","","./tasks/HMM-beads/Images/WhiteBeadChoice.png","","","","","","","","","",""
"image-keyboard-response","342","329117","0.0-3.0-6.0-1.0-2.68","61083fda9ef8f465fed35586","6662009ae78f21dd82fcd179","666203af427a871210871256","null","","null","","","","","","","","./tasks/HMM-beads/Images/WhiteBeadChoiceCorrect.png","","","","","","","","","",""
"image-keyboard-response","343","329537","0.0-3.0-6.0-1.0-0.69","61083fda9ef8f465fed35586","6662009ae78f21dd82fcd179","666203af427a871210871256","419","","j","","","","","","","","./tasks/HMM-beads/Images/NewTrialWC.png","lowH","1","69","0","1","1","1","true","",""
"image-keyboard-response","344","329839","0.0-3.0-6.0-1.0-1.69","61083fda9ef8f465fed35586","6662009ae78f21dd82fcd179","666203af427a871210871256","null","","null","","","","","","","","./tasks/HMM-beads/Images/WhiteBeadChoice.png","","","","","","","","","",""
"image-keyboard-response","345","330340","0.0-3.0-6.0-1.0-2.69","61083fda9ef8f465fed35586","6662009ae78f21dd82fcd179","666203af427a871210871256","null","","null","","","","","","","","./tasks/HMM-beads/Images/WhiteBeadChoiceCorrect.png","","","","","","","","","",""
"image-keyboard-response","346","330775","0.0-3.0-6.0-1.0-0.70","61083fda9ef8f465fed35586","6662009ae78f21dd82fcd179","666203af427a871210871256","434","","j","","","","","","","","./tasks/HMM-beads/Images/NewTrialWC.png","lowH","1","70","0","1","1","1","true","",""
"image-keyboard-response","347","331079","0.0-3.0-6.0-1.0-1.70","61083fda9ef8f465fed35586","6662009ae78f21dd82fcd179","666203af427a871210871256","null","","null","","","","","","","","./tasks/HMM-beads/Images/WhiteBeadChoice.png","","","","","","","","","",""
"image-keyboard-response","348","331583","0.0-3.0-6.0-1.0-2.70","61083fda9ef8f465fed35586","6662009ae78f21dd82fcd179","666203af427a871210871256","null","","null","","","","","","","","./tasks/HMM-beads/Images/WhiteBeadChoiceCorrect.png","","","","","","","","","",""
"image-keyboard-response","349","331932","0.0-3.0-6.0-1.0-0.71","61083fda9ef8f465fed35586","6662009ae78f21dd82fcd179","666203af427a871210871256","348","","j","","","","","","","","./tasks/HMM-beads/Images/NewTrialWC.png","lowH","1","71","0","0","1","1","false","",""
"image-keyboard-response","350","332235","0.0-3.0-6.0-1.0-1.71","61083fda9ef8f465fed35586","6662009ae78f21dd82fcd179","666203af427a871210871256","null","","null","","","","","","","","./tasks/HMM-beads/Images/WhiteBeadChoice.png","","","","","","","","","",""
"image-keyboard-response","351","332737","0.0-3.0-6.0-1.0-2.71","61083fda9ef8f465fed35586","6662009ae78f21dd82fcd179","666203af427a871210871256","null","","null","","","","","","","","./tasks/HMM-beads/Images/WhiteBeadChoiceWrong.png","","","","","","","","","",""
"image-keyboard-response","352","333096","0.0-3.0-6.0-1.0-0.72","61083fda9ef8f465fed35586","6662009ae78f21dd82fcd179","666203af427a871210871256","359","","j","","","","","","","","./tasks/HMM-beads/Images/NewTrialBC.png","lowH","1","72","0","0","0","1","false","",""
"image-keyboard-response","353","333398","0.0-3.0-6.0-1.0-1.72","61083fda9ef8f465fed35586","6662009ae78f21dd82fcd179","666203af427a871210871256","null","","null","","","","","","","","./tasks/HMM-beads/Images/WhiteBeadChoice.png","","","","","","","","","",""
"image-keyboard-response","354","333900","0.0-3.0-6.0-1.0-2.72","61083fda9ef8f465fed35586","6662009ae78f21dd82fcd179","666203af427a871210871256","null","","null","","","","","","","","./tasks/HMM-beads/Images/WhiteBeadChoiceWrong.png","","","","","","","","","",""
"image-keyboard-response","355","334170","0.0-3.0-6.0-1.0-0.73","61083fda9ef8f465fed35586","6662009ae78f21dd82fcd179","666203af427a871210871256","268","","j","","","","","","","","./tasks/HMM-beads/Images/NewTrialBC.png","lowH","1","73","0","1","0","1","true","",""
"image-keyboard-response","356","334472","0.0-3.0-6.0-1.0-1.73","61083fda9ef8f465fed35586","6662009ae78f21dd82fcd179","666203af427a871210871256","null","","null","","","","","","","","./tasks/HMM-beads/Images/WhiteBeadChoice.png","","","","","","","","","",""
"image-keyboard-response","357","334973","0.0-3.0-6.0-1.0-2.73","61083fda9ef8f465fed35586","6662009ae78f21dd82fcd179","666203af427a871210871256","null","","null","","","","","","","","./tasks/HMM-beads/Images/WhiteBeadChoiceCorrect.png","","","","","","","","","",""
"image-keyboard-response","358","335392","0.0-3.0-6.0-1.0-0.74","61083fda9ef8f465fed35586","6662009ae78f21dd82fcd179","666203af427a871210871256","419","","j","","","","","","","","./tasks/HMM-beads/Images/NewTrialWC.png","lowH","1","74","0","0","1","1","false","",""
"image-keyboard-response","359","335695","0.0-3.0-6.0-1.0-1.74","61083fda9ef8f465fed35586","6662009ae78f21dd82fcd179","666203af427a871210871256","null","","null","","","","","","","","./tasks/HMM-beads/Images/WhiteBeadChoice.png","","","","","","","","","",""
"image-keyboard-response","360","336197","0.0-3.0-6.0-1.0-2.74","61083fda9ef8f465fed35586","6662009ae78f21dd82fcd179","666203af427a871210871256","null","","null","","","","","","","","./tasks/HMM-beads/Images/WhiteBeadChoiceWrong.png","","","","","","","","","",""
"image-keyboard-response","361","336608","0.0-3.0-6.0-1.0-0.75","61083fda9ef8f465fed35586","6662009ae78f21dd82fcd179","666203af427a871210871256","411","","j","","","","","","","","./tasks/HMM-beads/Images/NewTrialBC.png","lowH","1","75","0","1","0","1","true","",""
"image-keyboard-response","362","336911","0.0-3.0-6.0-1.0-1.75","61083fda9ef8f465fed35586","6662009ae78f21dd82fcd179","666203af427a871210871256","null","","null","","","","","","","","./tasks/HMM-beads/Images/WhiteBeadChoice.png","","","","","","","","","",""
"image-keyboard-response","363","337414","0.0-3.0-6.0-1.0-2.75","61083fda9ef8f465fed35586","6662009ae78f21dd82fcd179","666203af427a871210871256","null","","null","","","","","","","","./tasks/HMM-beads/Images/WhiteBeadChoiceCorrect.png","","","","","","","","","",""
"image-keyboard-response","364","337829","0.0-3.0-6.0-1.0-0.76","61083fda9ef8f465fed35586","6662009ae78f21dd82fcd179","666203af427a871210871256","412","","j","","","","","","","","./tasks/HMM-beads/Images/NewTrialWC.png","lowH","1","76","0","1","1","1","true","",""
"image-keyboard-response","365","338131","0.0-3.0-6.0-1.0-1.76","61083fda9ef8f465fed35586","6662009ae78f21dd82fcd179","666203af427a871210871256","null","","null","","","","","","","","./tasks/HMM-beads/Images/WhiteBeadChoice.png","","","","","","","","","",""
"image-keyboard-response","366","338632","0.0-3.0-6.0-1.0-2.76","61083fda9ef8f465fed35586","6662009ae78f21dd82fcd179","666203af427a871210871256","null","","null","","","","","","","","./tasks/HMM-beads/Images/WhiteBeadChoiceCorrect.png","","","","","","","","","",""
"image-keyboard-response","367","338969","0.0-3.0-6.0-1.0-0.77","61083fda9ef8f465fed35586","6662009ae78f21dd82fcd179","666203af427a871210871256","334","","j","","","","","","","","./tasks/HMM-beads/Images/NewTrialWC.png","lowH","1","77","0","0","1","1","false","",""
"image-keyboard-response","368","339272","0.0-3.0-6.0-1.0-1.77","61083fda9ef8f465fed35586","6662009ae78f21dd82fcd179","666203af427a871210871256","null","","null","","","","","","","","./tasks/HMM-beads/Images/WhiteBeadChoice.png","","","","","","","","","",""
"image-keyboard-response","369","339774","0.0-3.0-6.0-1.0-2.77","61083fda9ef8f465fed35586","6662009ae78f21dd82fcd179","666203af427a871210871256","null","","null","","","","","","","","./tasks/HMM-beads/Images/WhiteBeadChoiceWrong.png","","","","","","","","","",""
"image-keyboard-response","370","340122","0.0-3.0-6.0-1.0-0.78","61083fda9ef8f465fed35586","6662009ae78f21dd82fcd179","666203af427a871210871256","347","","j","","","","","","","","./tasks/HMM-beads/Images/NewTrialBC.png","lowH","1","78","0","0","0","1","false","",""
"image-keyboard-response","371","340424","0.0-3.0-6.0-1.0-1.78","61083fda9ef8f465fed35586","6662009ae78f21dd82fcd179","666203af427a871210871256","null","","null","","","","","","","","./tasks/HMM-beads/Images/WhiteBeadChoice.png","","","","","","","","","",""
"image-keyboard-response","372","340927","0.0-3.0-6.0-1.0-2.78","61083fda9ef8f465fed35586","6662009ae78f21dd82fcd179","666203af427a871210871256","null","","null","","","","","","","","./tasks/HMM-beads/Images/WhiteBeadChoiceWrong.png","","","","","","","","","",""
"image-keyboard-response","373","341449","0.0-3.0-6.0-1.0-0.79","61083fda9ef8f465fed35586","6662009ae78f21dd82fcd179","666203af427a871210871256","521","","f","","","","","","","","./tasks/HMM-beads/Images/NewTrialBC.png","lowH","1","79","0","0","0","0","true","",""
"image-keyboard-response","374","341750","0.0-3.0-6.0-1.0-1.79","61083fda9ef8f465fed35586","6662009ae78f21dd82fcd179","666203af427a871210871256","null","","null","","","","","","","","./tasks/HMM-beads/Images/BlackBeadChoice.png","","","","","","","","","",""
