"trial_type","trial_index","time_elapsed","internal_node_id","subject_id","study_id","session_id","rt","url","response","question_order","view_history","success","timeout","failed_images","failed_audio","failed_video","stimulus","block","block_rep","trial_number","jar","bead","previous_bead","choice","correct","lowH_score","total_bonus"
"pavlovia","0","983","0.0-0.0","5fc44569444cef8809245f94","6662009ae78f21dd82fcd179","666209e1e4bde838531ff5fa","","","","","","","","","","","","","","","","","","","","",""
"external-html","1","5224","0.0-1.0-0.0","5fc44569444cef8809245f94","6662009ae78f21dd82fcd179","666209e1e4bde838531ff5fa","4137","new_consent.html","","","","","","","","","","","","","","","","","","",""
"survey-multi-choice","2","8672","0.0-1.0-1.0","5fc44569444cef8809245f94","6662009ae78f21dd82fcd179","666209e1e4bde838531ff5fa","3447","","{""Q0"":""Male"",""Q1"":""White""}","[0,1]","","","","","","","","","","","","","","","","",""
"survey-text","3","11756","0.0-1.0-2.0","5fc44569444cef8809245f94","6662009ae78f21dd82fcd179","666209e1e4bde838531ff5fa","3082","","{""Q0"":""41""}","","","","","","","","","","","","","","","","","",""
"instructions","4","13291","0.0-2.0","5fc44569444cef8809245f94","6662009ae78f21dd82fcd179","666209e1e4bde838531ff5fa","1424","","","","[{""page_index"":0,""viewing_time"":1424}]","","","","","","","","","","","","","","","",""
"preload","5","14323","0.0-3.0-0.0","5fc44569444cef8809245f94","6662009ae78f21dd82fcd179","666209e1e4bde838531ff5fa","","","","","","true","false","[]","[]","[]","","","","","","","","","","",""
"instructions","6","88862","0.0-3.0-1.0","5fc44569444cef8809245f94","6662009ae78f21dd82fcd179","666209e1e4bde838531ff5fa","74540","","","","[{""page_index"":0,""viewing_time"":14214},{""page_index"":1,""viewing_time"":5377},{""page_index"":2,""viewing_time"":3272},{""page_index"":3,""viewing_time"":1120},{""page_index"":4,""viewing_time"":15872},{""page_index"":5,""viewing_time"":7656},{""page_index"":6,""viewing_time"":3193},{""page_index"":7,""viewing_time"":8296},{""page_index"":8,""viewing_time"":3489},{""page_index"":9,""viewing_time"":4525},{""page_index"":10,""viewing_time"":6178},{""page_index"":11,""viewing_time"":1349}]","","","","","","","","","","","","","","","",""
"html-button-response","7","91662","0.0-3.0-2.0-0.0-0.0","5fc44569444cef8809245f94","6662009ae78f21dd82fcd179","666209e1e4bde838531ff5fa","2799","","1","","","","","","","","<div align=center>Your goal is to predict…?<br><br></div>","","","","","","","","","",""
"html-button-response","8","96839","0.0-3.0-2.0-1.0-0.0","5fc44569444cef8809245f94","6662009ae78f21dd82fcd179","666209e1e4bde838531ff5fa","3734","","2","","","","","","","","<div align=center>In the jar with mostly white beads, there are ___% white beads and ___% black beads?<br><br></div>","","","","","","","","","",""
"html-button-response","9","105583","0.0-3.0-2.0-2.0-0.0","5fc44569444cef8809245f94","6662009ae78f21dd82fcd179","666209e1e4bde838531ff5fa","7579","","1","","","","","","","","<div align=center>When there is a 1% probability that the jars will switch, the next bead will most likely be drawn from the…<br><br></div>","","","","","","","","","",""
"html-button-response","10","107842","0.0-3.0-2.0-2.1-0.1","5fc44569444cef8809245f94","6662009ae78f21dd82fcd179","666209e1e4bde838531ff5fa","939","","0","","","","","","","","<div align=center>When there is a 1% probability that the jars will switch, the next bead will most likely be drawn from the…<br><br></div>","","","","","","","","","",""
"html-button-response","11","111550","0.0-3.0-2.0-3.0-0.0","5fc44569444cef8809245f94","6662009ae78f21dd82fcd179","666209e1e4bde838531ff5fa","2624","","1","","","","","","","","<div align=center>When there is a 99% probability that the jars will switch, the next bead will most likely be drawn from the…<br><br></div>","","","","","","","","","",""
"instructions","12","126453","0.0-3.0-3.0","5fc44569444cef8809245f94","6662009ae78f21dd82fcd179","666209e1e4bde838531ff5fa","13743","","","","[{""page_index"":0,""viewing_time"":13743}]","","","","","","","","","","","","","","","",""
"html-keyboard-response","13","130632","0.0-3.0-4.0-0.0","5fc44569444cef8809245f94","6662009ae78f21dd82fcd179","666209e1e4bde838531ff5fa","4178",""," ","","","","","","","","<div align=center>In this practice block, there will be a <b>1% chance</b> that the jar on the next trial will be different from the jar on the current trial.<br><br></div>","","","","","","","","","",""
"image-keyboard-response","14","136967","0.0-3.0-4.0-1.0-0.0","5fc44569444cef8809245f94","6662009ae78f21dd82fcd179","666209e1e4bde838531ff5fa","6333","","f","","","","","","","","./tasks/HMM-beads/Images/NoChoice.png","practice","0","0","0","0","9","0","true","",""
"image-keyboard-response","15","137270","0.0-3.0-4.0-1.0-1.0","5fc44569444cef8809245f94","6662009ae78f21dd82fcd179","666209e1e4bde838531ff5fa","null","","null","","","","","","","","./tasks/HMM-beads/Images/BlackBeadChoice.png","","","","","","","","","",""
"image-keyboard-response","16","137787","0.0-3.0-4.0-1.0-2.0","5fc44569444cef8809245f94","6662009ae78f21dd82fcd179","666209e1e4bde838531ff5fa","null","","null","","","","","","","","./tasks/HMM-beads/Images/BlackBeadChoiceCorrect.png","","","","","","","","","",""
"image-keyboard-response","17","140808","0.0-3.0-4.0-1.0-0.1","5fc44569444cef8809245f94","6662009ae78f21dd82fcd179","666209e1e4bde838531ff5fa","3020","","f","","","","","","","","./tasks/HMM-beads/Images/NewTrialBC.png","practice","0","1","0","0","0","0","true","",""
"image-keyboard-response","18","141119","0.0-3.0-4.0-1.0-1.1","5fc44569444cef8809245f94","6662009ae78f21dd82fcd179","666209e1e4bde838531ff5fa","null","","null","","","","","","","","./tasks/HMM-beads/Images/BlackBeadChoice.png","","","","","","","","","",""
"image-keyboard-response","19","141624","0.0-3.0-4.0-1.0-2.1","5fc44569444cef8809245f94","6662009ae78f21dd82fcd179","666209e1e4bde838531ff5fa","null","","null","","","","","","","","./tasks/HMM-beads/Images/BlackBeadChoiceCorrect.png","","","","","","","","","",""
"image-keyboard-response","20","143296","0.0-3.0-4.0-1.0-0.2","5fc44569444cef8809245f94","6662009ae78f21dd82fcd179","666209e1e4bde838531ff5fa","1670","","f","","","","","","","","./tasks/HMM-beads/Images/NewTrialBC.png","practice","0","2","0","1","0","0","false","",""
"image-keyboard-response","21","143605","0.0-3.0-4.0-1.0-1.2","5fc44569444cef8809245f94","6662009ae78f21dd82fcd179","666209e1e4bde838531ff5fa","null","","null","","","","","","","","./tasks/HMM-beads/Images/BlackBeadChoice.png","","","","","","","","","",""
"image-keyboard-response","22","144120","0.0-3.0-4.0-1.0-2.2","5fc44569444cef8809245f94","6662009ae78f21dd82fcd179","666209e1e4bde838531ff5fa","null","","null","","","","","","","","./tasks/HMM-beads/Images/BlackBeadChoiceWrong.png","","","","","","","","","",""
"image-keyboard-response","23","144542","0.0-3.0-4.0-1.0-0.3","5fc44569444cef8809245f94","6662009ae78f21dd82fcd179","666209e1e4bde838531ff5fa","422","","j","","","","","","","","./tasks/HMM-beads/Images/NewTrialWC.png","practice","0","3","0","0","1","1","false","",""
"image-keyboard-response","24","144855","0.0-3.0-4.0-1.0-1.3","5fc44569444cef8809245f94","6662009ae78f21dd82fcd179","666209e1e4bde838531ff5fa","null","","null","","","","","","","","./tasks/HMM-beads/Images/WhiteBeadChoice.png","","","","","","","","","",""
"image-keyboard-response","25","145368","0.0-3.0-4.0-1.0-2.3","5fc44569444cef8809245f94","6662009ae78f21dd82fcd179","666209e1e4bde838531ff5fa","null","","null","","","","","","","","./tasks/HMM-beads/Images/WhiteBeadChoiceWrong.png","","","","","","","","","",""
"image-keyboard-response","26","145584","0.0-3.0-4.0-1.0-0.4","5fc44569444cef8809245f94","6662009ae78f21dd82fcd179","666209e1e4bde838531ff5fa","210","","f","","","","","","","","./tasks/HMM-beads/Images/NewTrialBC.png","practice","0","4","0","0","0","0","true","",""
"image-keyboard-response","27","145895","0.0-3.0-4.0-1.0-1.4","5fc44569444cef8809245f94","6662009ae78f21dd82fcd179","666209e1e4bde838531ff5fa","null","","null","","","","","","","","./tasks/HMM-beads/Images/BlackBeadChoice.png","","","","","","","","","",""
"image-keyboard-response","28","146409","0.0-3.0-4.0-1.0-2.4","5fc44569444cef8809245f94","6662009ae78f21dd82fcd179","666209e1e4bde838531ff5fa","null","","null","","","","","","","","./tasks/HMM-beads/Images/BlackBeadChoiceCorrect.png","","","","","","","","","",""
"image-keyboard-response","29","146961","0.0-3.0-4.0-1.0-0.5","5fc44569444cef8809245f94","6662009ae78f21dd82fcd179","666209e1e4bde838531ff5fa","549","","f","","","","","","","","./tasks/HMM-beads/Images/NewTrialBC.png","practice","0","5","0","1","0","0","false","",""
"image-keyboard-response","30","147269","0.0-3.0-4.0-1.0-1.5","5fc44569444cef8809245f94","6662009ae78f21dd82fcd179","666209e1e4bde838531ff5fa","null","","null","","","","","","","","./tasks/HMM-beads/Images/BlackBeadChoice.png","","","","","","","","","",""
"image-keyboard-response","31","147777","0.0-3.0-4.0-1.0-2.5","5fc44569444cef8809245f94","6662009ae78f21dd82fcd179","666209e1e4bde838531ff5fa","null","","null","","","","","","","","./tasks/HMM-beads/Images/BlackBeadChoiceWrong.png","","","","","","","","","",""
"image-keyboard-response","32","148038","0.0-3.0-4.0-1.0-0.6","5fc44569444cef8809245f94","6662009ae78f21dd82fcd179","666209e1e4bde838531ff5fa","261","","j","","","","","","","","./tasks/HMM-beads/Images/NewTrialWC.png","practice","0","6","0","0","1","1","false","",""
"image-keyboard-response","33","148350","0.0-3.0-4.0-1.0-1.6","5fc44569444cef8809245f94","6662009ae78f21dd82fcd179","666209e1e4bde838531ff5fa","null","","null","","","","","","","","./tasks/HMM-beads/Images/WhiteBeadChoice.png","","","","","","","","","",""
"image-keyboard-response","34","148855","0.0-3.0-4.0-1.0-2.6","5fc44569444cef8809245f94","6662009ae78f21dd82fcd179","666209e1e4bde838531ff5fa","null","","null","","","","","","","","./tasks/HMM-beads/Images/WhiteBeadChoiceWrong.png","","","","","","","","","",""
"image-keyboard-response","35","148904","0.0-3.0-4.0-1.0-0.7","5fc44569444cef8809245f94","6662009ae78f21dd82fcd179","666209e1e4bde838531ff5fa","48","","f","","","","","","","","./tasks/HMM-beads/Images/NewTrialBC.png","practice","0","7","0","0","0","0","true","",""
"image-keyboard-response","36","149208","0.0-3.0-4.0-1.0-1.7","5fc44569444cef8809245f94","6662009ae78f21dd82fcd179","666209e1e4bde838531ff5fa","null","","null","","","","","","","","./tasks/HMM-beads/Images/BlackBeadChoice.png","","","","","","","","","",""
"image-keyboard-response","37","149725","0.0-3.0-4.0-1.0-2.7","5fc44569444cef8809245f94","6662009ae78f21dd82fcd179","666209e1e4bde838531ff5fa","null","","null","","","","","","","","./tasks/HMM-beads/Images/BlackBeadChoiceCorrect.png","","","","","","","","","",""
"image-keyboard-response","38","149806","0.0-3.0-4.0-1.0-0.8","5fc44569444cef8809245f94","6662009ae78f21dd82fcd179","666209e1e4bde838531ff5fa","79","","f","","","","","","","","./tasks/HMM-beads/Images/NewTrialBC.png","practice","0","8","0","0","0","0","true","",""
"image-keyboard-response","39","150114","0.0-3.0-4.0-1.0-1.8","5fc44569444cef8809245f94","6662009ae78f21dd82fcd179","666209e1e4bde838531ff5fa","null","","null","","","","","","","","./tasks/HMM-beads/Images/BlackBeadChoice.png","","","","","","","","","",""
"image-keyboard-response","40","150629","0.0-3.0-4.0-1.0-2.8","5fc44569444cef8809245f94","6662009ae78f21dd82fcd179","666209e1e4bde838531ff5fa","null","","null","","","","","","","","./tasks/HMM-beads/Images/BlackBeadChoiceCorrect.png","","","","","","","","","",""
"image-keyboard-response","41","150743","0.0-3.0-4.0-1.0-0.9","5fc44569444cef8809245f94","6662009ae78f21dd82fcd179","666209e1e4bde838531ff5fa","112","","f","","","","","","","","./tasks/HMM-beads/Images/NewTrialBC.png","practice","0","9","0","1","0","0","false","",""
"image-keyboard-response","42","151051","0.0-3.0-4.0-1.0-1.9","5fc44569444cef8809245f94","6662009ae78f21dd82fcd179","666209e1e4bde838531ff5fa","null","","null","","","","","","","","./tasks/HMM-beads/Images/BlackBeadChoice.png","","","","","","","","","",""
"image-keyboard-response","43","151552","0.0-3.0-4.0-1.0-2.9","5fc44569444cef8809245f94","6662009ae78f21dd82fcd179","666209e1e4bde838531ff5fa","null","","null","","","","","","","","./tasks/HMM-beads/Images/BlackBeadChoiceWrong.png","","","","","","","","","",""
"image-keyboard-response","44","152358","0.0-3.0-4.0-1.0-0.10","5fc44569444cef8809245f94","6662009ae78f21dd82fcd179","666209e1e4bde838531ff5fa","805","","j","","","","","","","","./tasks/HMM-beads/Images/NewTrialWC.png","practice","0","10","0","0","1","1","false","",""
"image-keyboard-response","45","152672","0.0-3.0-4.0-1.0-1.10","5fc44569444cef8809245f94","6662009ae78f21dd82fcd179","666209e1e4bde838531ff5fa","null","","null","","","","","","","","./tasks/HMM-beads/Images/WhiteBeadChoice.png","","","","","","","","","",""
"image-keyboard-response","46","153176","0.0-3.0-4.0-1.0-2.10","5fc44569444cef8809245f94","6662009ae78f21dd82fcd179","666209e1e4bde838531ff5fa","null","","null","","","","","","","","./tasks/HMM-beads/Images/WhiteBeadChoiceWrong.png","","","","","","","","","",""
"image-keyboard-response","47","153422","0.0-3.0-4.0-1.0-0.11","5fc44569444cef8809245f94","6662009ae78f21dd82fcd179","666209e1e4bde838531ff5fa","245","","f","","","","","","","","./tasks/HMM-beads/Images/NewTrialBC.png","practice","0","11","0","1","0","0","false","",""
"image-keyboard-response","48","153722","0.0-3.0-4.0-1.0-1.11","5fc44569444cef8809245f94","6662009ae78f21dd82fcd179","666209e1e4bde838531ff5fa","null","","null","","","","","","","","./tasks/HMM-beads/Images/BlackBeadChoice.png","","","","","","","","","",""
"image-keyboard-response","49","154235","0.0-3.0-4.0-1.0-2.11","5fc44569444cef8809245f94","6662009ae78f21dd82fcd179","666209e1e4bde838531ff5fa","null","","null","","","","","","","","./tasks/HMM-beads/Images/BlackBeadChoiceWrong.png","","","","","","","","","",""
"image-keyboard-response","50","154487","0.0-3.0-4.0-1.0-0.12","5fc44569444cef8809245f94","6662009ae78f21dd82fcd179","666209e1e4bde838531ff5fa","252","","j","","","","","","","","./tasks/HMM-beads/Images/NewTrialWC.png","practice","0","12","0","0","1","1","false","",""
"image-keyboard-response","51","154793","0.0-3.0-4.0-1.0-1.12","5fc44569444cef8809245f94","6662009ae78f21dd82fcd179","666209e1e4bde838531ff5fa","null","","null","","","","","","","","./tasks/HMM-beads/Images/WhiteBeadChoice.png","","","","","","","","","",""
"image-keyboard-response","52","155307","0.0-3.0-4.0-1.0-2.12","5fc44569444cef8809245f94","6662009ae78f21dd82fcd179","666209e1e4bde838531ff5fa","null","","null","","","","","","","","./tasks/HMM-beads/Images/WhiteBeadChoiceWrong.png","","","","","","","","","",""
"image-keyboard-response","53","155998","0.0-3.0-4.0-1.0-0.13","5fc44569444cef8809245f94","6662009ae78f21dd82fcd179","666209e1e4bde838531ff5fa","690","","f","","","","","","","","./tasks/HMM-beads/Images/NewTrialBC.png","practice","0","13","0","0","0","0","true","",""
"image-keyboard-response","54","156303","0.0-3.0-4.0-1.0-1.13","5fc44569444cef8809245f94","6662009ae78f21dd82fcd179","666209e1e4bde838531ff5fa","null","","null","","","","","","","","./tasks/HMM-beads/Images/BlackBeadChoice.png","","","","","","","","","",""
"image-keyboard-response","55","156817","0.0-3.0-4.0-1.0-2.13","5fc44569444cef8809245f94","6662009ae78f21dd82fcd179","666209e1e4bde838531ff5fa","null","","null","","","","","","","","./tasks/HMM-beads/Images/BlackBeadChoiceCorrect.png","","","","","","","","","",""
"image-keyboard-response","56","157385","0.0-3.0-4.0-1.0-0.14","5fc44569444cef8809245f94","6662009ae78f21dd82fcd179","666209e1e4bde838531ff5fa","566","","f","","","","","","","","./tasks/HMM-beads/Images/NewTrialBC.png","practice","0","14","0","0","0","0","true","",""
"image-keyboard-response","57","157699","0.0-3.0-4.0-1.0-1.14","5fc44569444cef8809245f94","6662009ae78f21dd82fcd179","666209e1e4bde838531ff5fa","null","","null","","","","","","","","./tasks/HMM-beads/Images/BlackBeadChoice.png","","","","","","","","","",""
"image-keyboard-response","58","158215","0.0-3.0-4.0-1.0-2.14","5fc44569444cef8809245f94","6662009ae78f21dd82fcd179","666209e1e4bde838531ff5fa","null","","null","","","","","","","","./tasks/HMM-beads/Images/BlackBeadChoiceCorrect.png","","","","","","","","","",""
"image-keyboard-response","59","158824","0.0-3.0-4.0-1.0-0.15","5fc44569444cef8809245f94","6662009ae78f21dd82fcd179","666209e1e4bde838531ff5fa","607","","f","","","","","","","","./tasks/HMM-beads/Images/NewTrialBC.png","practice","0","15","0","0","0","0","true","",""
"image-keyboard-response","60","159127","0.0-3.0-4.0-1.0-1.15","5fc44569444cef8809245f94","6662009ae78f21dd82fcd179","666209e1e4bde838531ff5fa","null","","null","","","","","","","","./tasks/HMM-beads/Images/BlackBeadChoice.png","","","","","","","","","",""
"image-keyboard-response","61","159643","0.0-3.0-4.0-1.0-2.15","5fc44569444cef8809245f94","6662009ae78f21dd82fcd179","666209e1e4bde838531ff5fa","null","","null","","","","","","","","./tasks/HMM-beads/Images/BlackBeadChoiceCorrect.png","","","","","","","","","",""
"image-keyboard-response","62","159888","0.0-3.0-4.0-1.0-0.16","5fc44569444cef8809245f94","6662009ae78f21dd82fcd179","666209e1e4bde838531ff5fa","244","","f","","","","","","","","./tasks/HMM-beads/Images/NewTrialBC.png","practice","0","16","0","0","0","0","true","",""
"image-keyboard-response","63","160195","0.0-3.0-4.0-1.0-1.16","5fc44569444cef8809245f94","6662009ae78f21dd82fcd179","666209e1e4bde838531ff5fa","null","","null","","","","","","","","./tasks/HMM-beads/Images/BlackBeadChoice.png","","","","","","","","","",""
"image-keyboard-response","64","160711","0.0-3.0-4.0-1.0-2.16","5fc44569444cef8809245f94","6662009ae78f21dd82fcd179","666209e1e4bde838531ff5fa","null","","null","","","","","","","","./tasks/HMM-beads/Images/BlackBeadChoiceCorrect.png","","","","","","","","","",""
"image-keyboard-response","65","160808","0.0-3.0-4.0-1.0-0.17","5fc44569444cef8809245f94","6662009ae78f21dd82fcd179","666209e1e4bde838531ff5fa","91","","f","","","","","","","","./tasks/HMM-beads/Images/NewTrialBC.png","practice","0","17","0","0","0","0","true","",""
"image-keyboard-response","66","161116","0.0-3.0-4.0-1.0-1.17","5fc44569444cef8809245f94","6662009ae78f21dd82fcd179","666209e1e4bde838531ff5fa","null","","null","","","","","","","","./tasks/HMM-beads/Images/BlackBeadChoice.png","","","","","","","","","",""
"image-keyboard-response","67","161634","0.0-3.0-4.0-1.0-2.17","5fc44569444cef8809245f94","6662009ae78f21dd82fcd179","666209e1e4bde838531ff5fa","null","","null","","","","","","","","./tasks/HMM-beads/Images/BlackBeadChoiceCorrect.png","","","","","","","","","",""
"image-keyboard-response","68","161793","0.0-3.0-4.0-1.0-0.18","5fc44569444cef8809245f94","6662009ae78f21dd82fcd179","666209e1e4bde838531ff5fa","157","","f","","","","","","","","./tasks/HMM-beads/Images/NewTrialBC.png","practice","0","18","0","1","0","0","false","",""
"image-keyboard-response","69","162102","0.0-3.0-4.0-1.0-1.18","5fc44569444cef8809245f94","6662009ae78f21dd82fcd179","666209e1e4bde838531ff5fa","null","","null","","","","","","","","./tasks/HMM-beads/Images/BlackBeadChoice.png","","","","","","","","","",""
"image-keyboard-response","70","162615","0.0-3.0-4.0-1.0-2.18","5fc44569444cef8809245f94","6662009ae78f21dd82fcd179","666209e1e4bde838531ff5fa","null","","null","","","","","","","","./tasks/HMM-beads/Images/BlackBeadChoiceWrong.png","","","","","","","","","",""
"image-keyboard-response","71","162897","0.0-3.0-4.0-1.0-0.19","5fc44569444cef8809245f94","6662009ae78f21dd82fcd179","666209e1e4bde838531ff5fa","280","","j","","","","","","","","./tasks/HMM-beads/Images/NewTrialWC.png","practice","0","19","0","0","1","1","false","",""
"image-keyboard-response","72","163207","0.0-3.0-4.0-1.0-1.19","5fc44569444cef8809245f94","6662009ae78f21dd82fcd179","666209e1e4bde838531ff5fa","null","","null","","","","","","","","./tasks/HMM-beads/Images/WhiteBeadChoice.png","","","","","","","","","",""
"image-keyboard-response","73","163719","0.0-3.0-4.0-1.0-2.19","5fc44569444cef8809245f94","6662009ae78f21dd82fcd179","666209e1e4bde838531ff5fa","null","","null","","","","","","","","./tasks/HMM-beads/Images/WhiteBeadChoiceWrong.png","","","","","","","","","",""
"image-keyboard-response","74","163834","0.0-3.0-4.0-1.0-0.20","5fc44569444cef8809245f94","6662009ae78f21dd82fcd179","666209e1e4bde838531ff5fa","114","","f","","","","","","","","./tasks/HMM-beads/Images/NewTrialBC.png","practice","0","20","0","0","0","0","true","",""
"image-keyboard-response","75","164144","0.0-3.0-4.0-1.0-1.20","5fc44569444cef8809245f94","6662009ae78f21dd82fcd179","666209e1e4bde838531ff5fa","null","","null","","","","","","","","./tasks/HMM-beads/Images/BlackBeadChoice.png","","","","","","","","","",""
"image-keyboard-response","76","164648","0.0-3.0-4.0-1.0-2.20","5fc44569444cef8809245f94","6662009ae78f21dd82fcd179","666209e1e4bde838531ff5fa","null","","null","","","","","","","","./tasks/HMM-beads/Images/BlackBeadChoiceCorrect.png","","","","","","","","","",""
"image-keyboard-response","77","164928","0.0-3.0-4.0-1.0-0.21","5fc44569444cef8809245f94","6662009ae78f21dd82fcd179","666209e1e4bde838531ff5fa","279","","f","","","","","","","","./tasks/HMM-beads/Images/NewTrialBC.png","practice","0","21","0","1","0","0","false","",""
"image-keyboard-response","78","165246","0.0-3.0-4.0-1.0-1.21","5fc44569444cef8809245f94","6662009ae78f21dd82fcd179","666209e1e4bde838531ff5fa","null","","null","","","","","","","","./tasks/HMM-beads/Images/BlackBeadChoice.png","","","","","","","","","",""
"image-keyboard-response","79","165755","0.0-3.0-4.0-1.0-2.21","5fc44569444cef8809245f94","6662009ae78f21dd82fcd179","666209e1e4bde838531ff5fa","null","","null","","","","","","","","./tasks/HMM-beads/Images/BlackBeadChoiceWrong.png","","","","","","","","","",""
"image-keyboard-response","80","165862","0.0-3.0-4.0-1.0-0.22","5fc44569444cef8809245f94","6662009ae78f21dd82fcd179","666209e1e4bde838531ff5fa","107","","j","","","","","","","","./tasks/HMM-beads/Images/NewTrialWC.png","practice","0","22","1","1","1","1","true","",""
"image-keyboard-response","81","166167","0.0-3.0-4.0-1.0-1.22","5fc44569444cef8809245f94","6662009ae78f21dd82fcd179","666209e1e4bde838531ff5fa","null","","null","","","","","","","","./tasks/HMM-beads/Images/WhiteBeadChoice.png","","","","","","","","","",""
"image-keyboard-response","82","166677","0.0-3.0-4.0-1.0-2.22","5fc44569444cef8809245f94","6662009ae78f21dd82fcd179","666209e1e4bde838531ff5fa","null","","null","","","","","","","","./tasks/HMM-beads/Images/WhiteBeadChoiceCorrect.png","","","","","","","","","",""
"image-keyboard-response","83","166711","0.0-3.0-4.0-1.0-0.23","5fc44569444cef8809245f94","6662009ae78f21dd82fcd179","666209e1e4bde838531ff5fa","33","","j","","","","","","","","./tasks/HMM-beads/Images/NewTrialWC.png","practice","0","23","1","0","1","1","false","",""
"image-keyboard-response","84","167025","0.0-3.0-4.0-1.0-1.23","5fc44569444cef8809245f94","6662009ae78f21dd82fcd179","666209e1e4bde838531ff5fa","null","","null","","","","","","","","./tasks/HMM-beads/Images/WhiteBeadChoice.png","","","","","","","","","",""
"image-keyboard-response","85","167527","0.0-3.0-4.0-1.0-2.23","5fc44569444cef8809245f94","6662009ae78f21dd82fcd179","666209e1e4bde838531ff5fa","null","","null","","","","","","","","./tasks/HMM-beads/Images/WhiteBeadChoiceWrong.png","","","","","","","","","",""
"image-keyboard-response","86","167960","0.0-3.0-4.0-1.0-0.24","5fc44569444cef8809245f94","6662009ae78f21dd82fcd179","666209e1e4bde838531ff5fa","431","","f","","","","","","","","./tasks/HMM-beads/Images/NewTrialBC.png","practice","0","24","1","1","0","0","false","",""
"image-keyboard-response","87","168265","0.0-3.0-4.0-1.0-1.24","5fc44569444cef8809245f94","6662009ae78f21dd82fcd179","666209e1e4bde838531ff5fa","null","","null","","","","","","","","./tasks/HMM-beads/Images/BlackBeadChoice.png","","","","","","","","","",""
"image-keyboard-response","88","168767","0.0-3.0-4.0-1.0-2.24","5fc44569444cef8809245f94","6662009ae78f21dd82fcd179","666209e1e4bde838531ff5fa","null","","null","","","","","","","","./tasks/HMM-beads/Images/BlackBeadChoiceWrong.png","","","","","","","","","",""
"image-keyboard-response","89","168960","0.0-3.0-4.0-1.0-0.25","5fc44569444cef8809245f94","6662009ae78f21dd82fcd179","666209e1e4bde838531ff5fa","191","","j","","","","","","","","./tasks/HMM-beads/Images/NewTrialWC.png","practice","0","25","1","1","1","1","true","",""
"image-keyboard-response","90","169264","0.0-3.0-4.0-1.0-1.25","5fc44569444cef8809245f94","6662009ae78f21dd82fcd179","666209e1e4bde838531ff5fa","null","","null","","","","","","","","./tasks/HMM-beads/Images/WhiteBeadChoice.png","","","","","","","","","",""
"image-keyboard-response","91","169778","0.0-3.0-4.0-1.0-2.25","5fc44569444cef8809245f94","6662009ae78f21dd82fcd179","666209e1e4bde838531ff5fa","null","","null","","","","","","","","./tasks/HMM-beads/Images/WhiteBeadChoiceCorrect.png","","","","","","","","","",""
"image-keyboard-response","92","169994","0.0-3.0-4.0-1.0-0.26","5fc44569444cef8809245f94","6662009ae78f21dd82fcd179","666209e1e4bde838531ff5fa","215","","j","","","","","","","","./tasks/HMM-beads/Images/NewTrialWC.png","practice","0","26","1","1","1","1","true","",""
"image-keyboard-response","93","170307","0.0-3.0-4.0-1.0-1.26","5fc44569444cef8809245f94","6662009ae78f21dd82fcd179","666209e1e4bde838531ff5fa","null","","null","","","","","","","","./tasks/HMM-beads/Images/WhiteBeadChoice.png","","","","","","","","","",""
"image-keyboard-response","94","170820","0.0-3.0-4.0-1.0-2.26","5fc44569444cef8809245f94","6662009ae78f21dd82fcd179","666209e1e4bde838531ff5fa","null","","null","","","","","","","","./tasks/HMM-beads/Images/WhiteBeadChoiceCorrect.png","","","","","","","","","",""
"image-keyboard-response","95","170982","0.0-3.0-4.0-1.0-0.27","5fc44569444cef8809245f94","6662009ae78f21dd82fcd179","666209e1e4bde838531ff5fa","161","","j","","","","","","","","./tasks/HMM-beads/Images/NewTrialWC.png","practice","0","27","1","1","1","1","true","",""
"image-keyboard-response","96","171290","0.0-3.0-4.0-1.0-1.27","5fc44569444cef8809245f94","6662009ae78f21dd82fcd179","666209e1e4bde838531ff5fa","null","","null","","","","","","","","./tasks/HMM-beads/Images/WhiteBeadChoice.png","","","","","","","","","",""
"image-keyboard-response","97","171805","0.0-3.0-4.0-1.0-2.27","5fc44569444cef8809245f94","6662009ae78f21dd82fcd179","666209e1e4bde838531ff5fa","null","","null","","","","","","","","./tasks/HMM-beads/Images/WhiteBeadChoiceCorrect.png","","","","","","","","","",""
"image-keyboard-response","98","172057","0.0-3.0-4.0-1.0-0.28","5fc44569444cef8809245f94","6662009ae78f21dd82fcd179","666209e1e4bde838531ff5fa","250","","j","","","","","","","","./tasks/HMM-beads/Images/NewTrialWC.png","practice","0","28","1","0","1","1","false","",""
"image-keyboard-response","99","172366","0.0-3.0-4.0-1.0-1.28","5fc44569444cef8809245f94","6662009ae78f21dd82fcd179","666209e1e4bde838531ff5fa","null","","null","","","","","","","","./tasks/HMM-beads/Images/WhiteBeadChoice.png","","","","","","","","","",""
"image-keyboard-response","100","172881","0.0-3.0-4.0-1.0-2.28","5fc44569444cef8809245f94","6662009ae78f21dd82fcd179","666209e1e4bde838531ff5fa","null","","null","","","","","","","","./tasks/HMM-beads/Images/WhiteBeadChoiceWrong.png","","","","","","","","","",""
"image-keyboard-response","101","173018","0.0-3.0-4.0-1.0-0.29","5fc44569444cef8809245f94","6662009ae78f21dd82fcd179","666209e1e4bde838531ff5fa","136","","f","","","","","","","","./tasks/HMM-beads/Images/NewTrialBC.png","practice","0","29","1","1","0","0","false","",""
"image-keyboard-response","102","173334","0.0-3.0-4.0-1.0-1.29","5fc44569444cef8809245f94","6662009ae78f21dd82fcd179","666209e1e4bde838531ff5fa","null","","null","","","","","","","","./tasks/HMM-beads/Images/BlackBeadChoice.png","","","","","","","","","",""
"image-keyboard-response","103","173840","0.0-3.0-4.0-1.0-2.29","5fc44569444cef8809245f94","6662009ae78f21dd82fcd179","666209e1e4bde838531ff5fa","null","","null","","","","","","","","./tasks/HMM-beads/Images/BlackBeadChoiceWrong.png","","","","","","","","","",""
"image-keyboard-response","104","174095","0.0-3.0-4.0-1.0-0.30","5fc44569444cef8809245f94","6662009ae78f21dd82fcd179","666209e1e4bde838531ff5fa","250","","j","","","","","","","","./tasks/HMM-beads/Images/NewTrialWC.png","practice","0","30","1","0","1","1","false","",""
"image-keyboard-response","105","174403","0.0-3.0-4.0-1.0-1.30","5fc44569444cef8809245f94","6662009ae78f21dd82fcd179","666209e1e4bde838531ff5fa","null","","null","","","","","","","","./tasks/HMM-beads/Images/WhiteBeadChoice.png","","","","","","","","","",""
"image-keyboard-response","106","174914","0.0-3.0-4.0-1.0-2.30","5fc44569444cef8809245f94","6662009ae78f21dd82fcd179","666209e1e4bde838531ff5fa","null","","null","","","","","","","","./tasks/HMM-beads/Images/WhiteBeadChoiceWrong.png","","","","","","","","","",""
"image-keyboard-response","107","175071","0.0-3.0-4.0-1.0-0.31","5fc44569444cef8809245f94","6662009ae78f21dd82fcd179","666209e1e4bde838531ff5fa","156","","f","","","","","","","","./tasks/HMM-beads/Images/NewTrialBC.png","practice","0","31","1","1","0","0","false","",""
"image-keyboard-response","108","175384","0.0-3.0-4.0-1.0-1.31","5fc44569444cef8809245f94","6662009ae78f21dd82fcd179","666209e1e4bde838531ff5fa","null","","null","","","","","","","","./tasks/HMM-beads/Images/BlackBeadChoice.png","","","","","","","","","",""
"image-keyboard-response","109","175895","0.0-3.0-4.0-1.0-2.31","5fc44569444cef8809245f94","6662009ae78f21dd82fcd179","666209e1e4bde838531ff5fa","null","","null","","","","","","","","./tasks/HMM-beads/Images/BlackBeadChoiceWrong.png","","","","","","","","","",""
"image-keyboard-response","110","176150","0.0-3.0-4.0-1.0-0.32","5fc44569444cef8809245f94","6662009ae78f21dd82fcd179","666209e1e4bde838531ff5fa","254","","j","","","","","","","","./tasks/HMM-beads/Images/NewTrialWC.png","practice","0","32","1","1","1","1","true","",""
"image-keyboard-response","111","176457","0.0-3.0-4.0-1.0-1.32","5fc44569444cef8809245f94","6662009ae78f21dd82fcd179","666209e1e4bde838531ff5fa","null","","null","","","","","","","","./tasks/HMM-beads/Images/WhiteBeadChoice.png","","","","","","","","","",""
"image-keyboard-response","112","176972","0.0-3.0-4.0-1.0-2.32","5fc44569444cef8809245f94","6662009ae78f21dd82fcd179","666209e1e4bde838531ff5fa","null","","null","","","","","","","","./tasks/HMM-beads/Images/WhiteBeadChoiceCorrect.png","","","","","","","","","",""
"image-keyboard-response","113","178113","0.0-3.0-4.0-1.0-0.33","5fc44569444cef8809245f94","6662009ae78f21dd82fcd179","666209e1e4bde838531ff5fa","1140","","j","","","","","","","","./tasks/HMM-beads/Images/NewTrialWC.png","practice","0","33","1","1","1","1","true","",""
"image-keyboard-response","114","178427","0.0-3.0-4.0-1.0-1.33","5fc44569444cef8809245f94","6662009ae78f21dd82fcd179","666209e1e4bde838531ff5fa","null","","null","","","","","","","","./tasks/HMM-beads/Images/WhiteBeadChoice.png","","","","","","","","","",""
"image-keyboard-response","115","178929","0.0-3.0-4.0-1.0-2.33","5fc44569444cef8809245f94","6662009ae78f21dd82fcd179","666209e1e4bde838531ff5fa","null","","null","","","","","","","","./tasks/HMM-beads/Images/WhiteBeadChoiceCorrect.png","","","","","","","","","",""
"image-keyboard-response","116","179443","0.0-3.0-4.0-1.0-0.34","5fc44569444cef8809245f94","6662009ae78f21dd82fcd179","666209e1e4bde838531ff5fa","512","","j","","","","","","","","./tasks/HMM-beads/Images/NewTrialWC.png","practice","0","34","1","1","1","1","true","",""
"image-keyboard-response","117","179767","0.0-3.0-4.0-1.0-1.34","5fc44569444cef8809245f94","6662009ae78f21dd82fcd179","666209e1e4bde838531ff5fa","null","","null","","","","","","","","./tasks/HMM-beads/Images/WhiteBeadChoice.png","","","","","","","","","",""
"image-keyboard-response","118","180268","0.0-3.0-4.0-1.0-2.34","5fc44569444cef8809245f94","6662009ae78f21dd82fcd179","666209e1e4bde838531ff5fa","null","","null","","","","","","","","./tasks/HMM-beads/Images/WhiteBeadChoiceCorrect.png","","","","","","","","","",""
"image-keyboard-response","119","180536","0.0-3.0-4.0-1.0-0.35","5fc44569444cef8809245f94","6662009ae78f21dd82fcd179","666209e1e4bde838531ff5fa","267","","j","","","","","","","","./tasks/HMM-beads/Images/NewTrialWC.png","practice","0","35","1","1","1","1","true","",""
"image-keyboard-response","120","180845","0.0-3.0-4.0-1.0-1.35","5fc44569444cef8809245f94","6662009ae78f21dd82fcd179","666209e1e4bde838531ff5fa","null","","null","","","","","","","","./tasks/HMM-beads/Images/WhiteBeadChoice.png","","","","","","","","","",""
"image-keyboard-response","121","181360","0.0-3.0-4.0-1.0-2.35","5fc44569444cef8809245f94","6662009ae78f21dd82fcd179","666209e1e4bde838531ff5fa","null","","null","","","","","","","","./tasks/HMM-beads/Images/WhiteBeadChoiceCorrect.png","","","","","","","","","",""
"image-keyboard-response","122","181552","0.0-3.0-4.0-1.0-0.36","5fc44569444cef8809245f94","6662009ae78f21dd82fcd179","666209e1e4bde838531ff5fa","190","","j","","","","","","","","./tasks/HMM-beads/Images/NewTrialWC.png","practice","0","36","1","0","1","1","false","",""
"image-keyboard-response","123","181859","0.0-3.0-4.0-1.0-1.36","5fc44569444cef8809245f94","6662009ae78f21dd82fcd179","666209e1e4bde838531ff5fa","null","","null","","","","","","","","./tasks/HMM-beads/Images/WhiteBeadChoice.png","","","","","","","","","",""
"image-keyboard-response","124","182373","0.0-3.0-4.0-1.0-2.36","5fc44569444cef8809245f94","6662009ae78f21dd82fcd179","666209e1e4bde838531ff5fa","null","","null","","","","","","","","./tasks/HMM-beads/Images/WhiteBeadChoiceWrong.png","","","","","","","","","",""
"image-keyboard-response","125","182514","0.0-3.0-4.0-1.0-0.37","5fc44569444cef8809245f94","6662009ae78f21dd82fcd179","666209e1e4bde838531ff5fa","140","","f","","","","","","","","./tasks/HMM-beads/Images/NewTrialBC.png","practice","0","37","1","1","0","0","false","",""
"image-keyboard-response","126","182827","0.0-3.0-4.0-1.0-1.37","5fc44569444cef8809245f94","6662009ae78f21dd82fcd179","666209e1e4bde838531ff5fa","null","","null","","","","","","","","./tasks/HMM-beads/Images/BlackBeadChoice.png","","","","","","","","","",""
"image-keyboard-response","127","183329","0.0-3.0-4.0-1.0-2.37","5fc44569444cef8809245f94","6662009ae78f21dd82fcd179","666209e1e4bde838531ff5fa","null","","null","","","","","","","","./tasks/HMM-beads/Images/BlackBeadChoiceWrong.png","","","","","","","","","",""
"image-keyboard-response","128","183391","0.0-3.0-4.0-1.0-0.38","5fc44569444cef8809245f94","6662009ae78f21dd82fcd179","666209e1e4bde838531ff5fa","61","","j","","","","","","","","./tasks/HMM-beads/Images/NewTrialWC.png","practice","0","38","1","1","1","1","true","",""
"image-keyboard-response","129","183703","0.0-3.0-4.0-1.0-1.38","5fc44569444cef8809245f94","6662009ae78f21dd82fcd179","666209e1e4bde838531ff5fa","null","","null","","","","","","","","./tasks/HMM-beads/Images/WhiteBeadChoice.png","","","","","","","","","",""
"image-keyboard-response","130","184220","0.0-3.0-4.0-1.0-2.38","5fc44569444cef8809245f94","6662009ae78f21dd82fcd179","666209e1e4bde838531ff5fa","null","","null","","","","","","","","./tasks/HMM-beads/Images/WhiteBeadChoiceCorrect.png","","","","","","","","","",""
"image-keyboard-response","131","184407","0.0-3.0-4.0-1.0-0.39","5fc44569444cef8809245f94","6662009ae78f21dd82fcd179","666209e1e4bde838531ff5fa","186","","j","","","","","","","","./tasks/HMM-beads/Images/NewTrialWC.png","practice","0","39","1","1","1","1","true","",""
"image-keyboard-response","132","184719","0.0-3.0-4.0-1.0-1.39","5fc44569444cef8809245f94","6662009ae78f21dd82fcd179","666209e1e4bde838531ff5fa","null","","null","","","","","","","","./tasks/HMM-beads/Images/WhiteBeadChoice.png","","","","","","","","","",""
"image-keyboard-response","133","185233","0.0-3.0-4.0-1.0-2.39","5fc44569444cef8809245f94","6662009ae78f21dd82fcd179","666209e1e4bde838531ff5fa","null","","null","","","","","","","","./tasks/HMM-beads/Images/WhiteBeadChoiceCorrect.png","","","","","","","","","",""
"html-keyboard-response","134","189809","0.0-3.0-4.0-2.0","5fc44569444cef8809245f94","6662009ae78f21dd82fcd179","666209e1e4bde838531ff5fa","4574",""," ","","","","","","","","","","","","","","","","","",""
"instructions","135","200783","0.0-3.0-5.0","5fc44569444cef8809245f94","6662009ae78f21dd82fcd179","666209e1e4bde838531ff5fa","10972","","","","[{""page_index"":0,""viewing_time"":8358},{""page_index"":1,""viewing_time"":2614}]","","","","","","","","","","","","","","","",""
"html-keyboard-response","136","209262","0.0-3.0-6.0-0.0","5fc44569444cef8809245f94","6662009ae78f21dd82fcd179","666209e1e4bde838531ff5fa","8479",""," ","","","","","","","","<div align=center>In this block, there will be a <b>1% chance</b> that the jar on the next trial will be different from the jar on the current trial.<br><br></div>","","","","","","","","","",""
"image-keyboard-response","137","213824","0.0-3.0-6.0-1.0-0.0","5fc44569444cef8809245f94","6662009ae78f21dd82fcd179","666209e1e4bde838531ff5fa","4561","","f","","","","","","","","./tasks/HMM-beads/Images/NoChoice.png","lowH","1","0","1","0","9","0","true","",""
"image-keyboard-response","138","214130","0.0-3.0-6.0-1.0-1.0","5fc44569444cef8809245f94","6662009ae78f21dd82fcd179","666209e1e4bde838531ff5fa","null","","null","","","","","","","","./tasks/HMM-beads/Images/BlackBeadChoice.png","","","","","","","","","",""
"image-keyboard-response","139","214643","0.0-3.0-6.0-1.0-2.0","5fc44569444cef8809245f94","6662009ae78f21dd82fcd179","666209e1e4bde838531ff5fa","null","","null","","","","","","","","./tasks/HMM-beads/Images/BlackBeadChoiceCorrect.png","","","","","","","","","",""
"image-keyboard-response","140","214911","0.0-3.0-6.0-1.0-0.1","5fc44569444cef8809245f94","6662009ae78f21dd82fcd179","666209e1e4bde838531ff5fa","268","","f","","","","","","","","./tasks/HMM-beads/Images/NewTrialBC.png","lowH","1","1","1","1","0","0","false","",""
"image-keyboard-response","141","215218","0.0-3.0-6.0-1.0-1.1","5fc44569444cef8809245f94","6662009ae78f21dd82fcd179","666209e1e4bde838531ff5fa","null","","null","","","","","","","","./tasks/HMM-beads/Images/BlackBeadChoice.png","","","","","","","","","",""
"image-keyboard-response","142","215733","0.0-3.0-6.0-1.0-2.1","5fc44569444cef8809245f94","6662009ae78f21dd82fcd179","666209e1e4bde838531ff5fa","null","","null","","","","","","","","./tasks/HMM-beads/Images/BlackBeadChoiceWrong.png","","","","","","","","","",""
"image-keyboard-response","143","215864","0.0-3.0-6.0-1.0-0.2","5fc44569444cef8809245f94","6662009ae78f21dd82fcd179","666209e1e4bde838531ff5fa","130","","j","","","","","","","","./tasks/HMM-beads/Images/NewTrialWC.png","lowH","1","2","1","1","1","1","true","",""
"image-keyboard-response","144","216172","0.0-3.0-6.0-1.0-1.2","5fc44569444cef8809245f94","6662009ae78f21dd82fcd179","666209e1e4bde838531ff5fa","null","","null","","","","","","","","./tasks/HMM-beads/Images/WhiteBeadChoice.png","","","","","","","","","",""
"image-keyboard-response","145","216685","0.0-3.0-6.0-1.0-2.2","5fc44569444cef8809245f94","6662009ae78f21dd82fcd179","666209e1e4bde838531ff5fa","null","","null","","","","","","","","./tasks/HMM-beads/Images/WhiteBeadChoiceCorrect.png","","","","","","","","","",""
"image-keyboard-response","146","216691","0.0-3.0-6.0-1.0-0.3","5fc44569444cef8809245f94","6662009ae78f21dd82fcd179","666209e1e4bde838531ff5fa","4","","j","","","","","","","","./tasks/HMM-beads/Images/NewTrialWC.png","lowH","1","3","1","1","1","1","true","",""
"image-keyboard-response","147","216997","0.0-3.0-6.0-1.0-1.3","5fc44569444cef8809245f94","6662009ae78f21dd82fcd179","666209e1e4bde838531ff5fa","null","","null","","","","","","","","./tasks/HMM-beads/Images/WhiteBeadChoice.png","","","","","","","","","",""
"image-keyboard-response","148","217511","0.0-3.0-6.0-1.0-2.3","5fc44569444cef8809245f94","6662009ae78f21dd82fcd179","666209e1e4bde838531ff5fa","null","","null","","","","","","","","./tasks/HMM-beads/Images/WhiteBeadChoiceCorrect.png","","","","","","","","","",""
"image-keyboard-response","149","217931","0.0-3.0-6.0-1.0-0.4","5fc44569444cef8809245f94","6662009ae78f21dd82fcd179","666209e1e4bde838531ff5fa","420","","j","","","","","","","","./tasks/HMM-beads/Images/NewTrialWC.png","lowH","1","4","1","1","1","1","true","",""
"image-keyboard-response","150","218245","0.0-3.0-6.0-1.0-1.4","5fc44569444cef8809245f94","6662009ae78f21dd82fcd179","666209e1e4bde838531ff5fa","null","","null","","","","","","","","./tasks/HMM-beads/Images/WhiteBeadChoice.png","","","","","","","","","",""
"image-keyboard-response","151","218750","0.0-3.0-6.0-1.0-2.4","5fc44569444cef8809245f94","6662009ae78f21dd82fcd179","666209e1e4bde838531ff5fa","null","","null","","","","","","","","./tasks/HMM-beads/Images/WhiteBeadChoiceCorrect.png","","","","","","","","","",""
"image-keyboard-response","152","218833","0.0-3.0-6.0-1.0-0.5","5fc44569444cef8809245f94","6662009ae78f21dd82fcd179","666209e1e4bde838531ff5fa","82","","j","","","","","","","","./tasks/HMM-beads/Images/NewTrialWC.png","lowH","1","5","1","1","1","1","true","",""
"image-keyboard-response","153","219142","0.0-3.0-6.0-1.0-1.5","5fc44569444cef8809245f94","6662009ae78f21dd82fcd179","666209e1e4bde838531ff5fa","null","","null","","","","","","","","./tasks/HMM-beads/Images/WhiteBeadChoice.png","","","","","","","","","",""
"image-keyboard-response","154","219656","0.0-3.0-6.0-1.0-2.5","5fc44569444cef8809245f94","6662009ae78f21dd82fcd179","666209e1e4bde838531ff5fa","null","","null","","","","","","","","./tasks/HMM-beads/Images/WhiteBeadChoiceCorrect.png","","","","","","","","","",""
"image-keyboard-response","155","219728","0.0-3.0-6.0-1.0-0.6","5fc44569444cef8809245f94","6662009ae78f21dd82fcd179","666209e1e4bde838531ff5fa","70","","j","","","","","","","","./tasks/HMM-beads/Images/NewTrialWC.png","lowH","1","6","1","0","1","1","false","",""
"image-keyboard-response","156","220031","0.0-3.0-6.0-1.0-1.6","5fc44569444cef8809245f94","6662009ae78f21dd82fcd179","666209e1e4bde838531ff5fa","null","","null","","","","","","","","./tasks/HMM-beads/Images/WhiteBeadChoice.png","","","","","","","","","",""
"image-keyboard-response","157","220542","0.0-3.0-6.0-1.0-2.6","5fc44569444cef8809245f94","6662009ae78f21dd82fcd179","666209e1e4bde838531ff5fa","null","","null","","","","","","","","./tasks/HMM-beads/Images/WhiteBeadChoiceWrong.png","","","","","","","","","",""
"image-keyboard-response","158","221320","0.0-3.0-6.0-1.0-0.7","5fc44569444cef8809245f94","6662009ae78f21dd82fcd179","666209e1e4bde838531ff5fa","777","","f","","","","","","","","./tasks/HMM-beads/Images/NewTrialBC.png","lowH","1","7","1","1","0","0","false","",""
"image-keyboard-response","159","221629","0.0-3.0-6.0-1.0-1.7","5fc44569444cef8809245f94","6662009ae78f21dd82fcd179","666209e1e4bde838531ff5fa","null","","null","","","","","","","","./tasks/HMM-beads/Images/BlackBeadChoice.png","","","","","","","","","",""
"image-keyboard-response","160","222144","0.0-3.0-6.0-1.0-2.7","5fc44569444cef8809245f94","6662009ae78f21dd82fcd179","666209e1e4bde838531ff5fa","null","","null","","","","","","","","./tasks/HMM-beads/Images/BlackBeadChoiceWrong.png","","","","","","","","","",""
"image-keyboard-response","161","222150","0.0-3.0-6.0-1.0-0.8","5fc44569444cef8809245f94","6662009ae78f21dd82fcd179","666209e1e4bde838531ff5fa","6","","j","","","","","","","","./tasks/HMM-beads/Images/NewTrialWC.png","lowH","1","8","1","1","1","1","true","",""
"image-keyboard-response","162","222455","0.0-3.0-6.0-1.0-1.8","5fc44569444cef8809245f94","6662009ae78f21dd82fcd179","666209e1e4bde838531ff5fa","null","","null","","","","","","","","./tasks/HMM-beads/Images/WhiteBeadChoice.png","","","","","","","","","",""
"image-keyboard-response","163","222969","0.0-3.0-6.0-1.0-2.8","5fc44569444cef8809245f94","6662009ae78f21dd82fcd179","666209e1e4bde838531ff5fa","null","","null","","","","","","","","./tasks/HMM-beads/Images/WhiteBeadChoiceCorrect.png","","","","","","","","","",""
"image-keyboard-response","164","223514","0.0-3.0-6.0-1.0-0.9","5fc44569444cef8809245f94","6662009ae78f21dd82fcd179","666209e1e4bde838531ff5fa","544","","j","","","","","","","","./tasks/HMM-beads/Images/NewTrialWC.png","lowH","1","9","1","1","1","1","true","",""
"image-keyboard-response","165","223830","0.0-3.0-6.0-1.0-1.9","5fc44569444cef8809245f94","6662009ae78f21dd82fcd179","666209e1e4bde838531ff5fa","null","","null","","","","","","","","./tasks/HMM-beads/Images/WhiteBeadChoice.png","","","","","","","","","",""
"image-keyboard-response","166","224333","0.0-3.0-6.0-1.0-2.9","5fc44569444cef8809245f94","6662009ae78f21dd82fcd179","666209e1e4bde838531ff5fa","null","","null","","","","","","","","./tasks/HMM-beads/Images/WhiteBeadChoiceCorrect.png","","","","","","","","","",""
"image-keyboard-response","167","225359","0.0-3.0-6.0-1.0-0.10","5fc44569444cef8809245f94","6662009ae78f21dd82fcd179","666209e1e4bde838531ff5fa","1024","","j","","","","","","","","./tasks/HMM-beads/Images/NewTrialWC.png","lowH","1","10","1","1","1","1","true","",""
"image-keyboard-response","168","225664","0.0-3.0-6.0-1.0-1.10","5fc44569444cef8809245f94","6662009ae78f21dd82fcd179","666209e1e4bde838531ff5fa","null","","null","","","","","","","","./tasks/HMM-beads/Images/WhiteBeadChoice.png","","","","","","","","","",""
"image-keyboard-response","169","226168","0.0-3.0-6.0-1.0-2.10","5fc44569444cef8809245f94","6662009ae78f21dd82fcd179","666209e1e4bde838531ff5fa","null","","null","","","","","","","","./tasks/HMM-beads/Images/WhiteBeadChoiceCorrect.png","","","","","","","","","",""
"image-keyboard-response","170","226496","0.0-3.0-6.0-1.0-0.11","5fc44569444cef8809245f94","6662009ae78f21dd82fcd179","666209e1e4bde838531ff5fa","327","","j","","","","","","","","./tasks/HMM-beads/Images/NewTrialWC.png","lowH","1","11","1","1","1","1","true","",""
"image-keyboard-response","171","226812","0.0-3.0-6.0-1.0-1.11","5fc44569444cef8809245f94","6662009ae78f21dd82fcd179","666209e1e4bde838531ff5fa","null","","null","","","","","","","","./tasks/HMM-beads/Images/WhiteBeadChoice.png","","","","","","","","","",""
"image-keyboard-response","172","227329","0.0-3.0-6.0-1.0-2.11","5fc44569444cef8809245f94","6662009ae78f21dd82fcd179","666209e1e4bde838531ff5fa","null","","null","","","","","","","","./tasks/HMM-beads/Images/WhiteBeadChoiceCorrect.png","","","","","","","","","",""
"image-keyboard-response","173","227787","0.0-3.0-6.0-1.0-0.12","5fc44569444cef8809245f94","6662009ae78f21dd82fcd179","666209e1e4bde838531ff5fa","457","","j","","","","","","","","./tasks/HMM-beads/Images/NewTrialWC.png","lowH","1","12","1","1","1","1","true","",""
"image-keyboard-response","174","228100","0.0-3.0-6.0-1.0-1.12","5fc44569444cef8809245f94","6662009ae78f21dd82fcd179","666209e1e4bde838531ff5fa","null","","null","","","","","","","","./tasks/HMM-beads/Images/WhiteBeadChoice.png","","","","","","","","","",""
"image-keyboard-response","175","228616","0.0-3.0-6.0-1.0-2.12","5fc44569444cef8809245f94","6662009ae78f21dd82fcd179","666209e1e4bde838531ff5fa","null","","null","","","","","","","","./tasks/HMM-beads/Images/WhiteBeadChoiceCorrect.png","","","","","","","","","",""
"image-keyboard-response","176","228834","0.0-3.0-6.0-1.0-0.13","5fc44569444cef8809245f94","6662009ae78f21dd82fcd179","666209e1e4bde838531ff5fa","216","","j","","","","","","","","./tasks/HMM-beads/Images/NewTrialWC.png","lowH","1","13","1","0","1","1","false","",""
"image-keyboard-response","177","229151","0.0-3.0-6.0-1.0-1.13","5fc44569444cef8809245f94","6662009ae78f21dd82fcd179","666209e1e4bde838531ff5fa","null","","null","","","","","","","","./tasks/HMM-beads/Images/WhiteBeadChoice.png","","","","","","","","","",""
"image-keyboard-response","178","229652","0.0-3.0-6.0-1.0-2.13","5fc44569444cef8809245f94","6662009ae78f21dd82fcd179","666209e1e4bde838531ff5fa","null","","null","","","","","","","","./tasks/HMM-beads/Images/WhiteBeadChoiceWrong.png","","","","","","","","","",""
"image-keyboard-response","179","229864","0.0-3.0-6.0-1.0-0.14","5fc44569444cef8809245f94","6662009ae78f21dd82fcd179","666209e1e4bde838531ff5fa","211","","f","","","","","","","","./tasks/HMM-beads/Images/NewTrialBC.png","lowH","1","14","1","0","0","0","true","",""
"image-keyboard-response","180","230180","0.0-3.0-6.0-1.0-1.14","5fc44569444cef8809245f94","6662009ae78f21dd82fcd179","666209e1e4bde838531ff5fa","null","","null","","","","","","","","./tasks/HMM-beads/Images/BlackBeadChoice.png","","","","","","","","","",""
"image-keyboard-response","181","230681","0.0-3.0-6.0-1.0-2.14","5fc44569444cef8809245f94","6662009ae78f21dd82fcd179","666209e1e4bde838531ff5fa","null","","null","","","","","","","","./tasks/HMM-beads/Images/BlackBeadChoiceCorrect.png","","","","","","","","","",""
"image-keyboard-response","182","230888","0.0-3.0-6.0-1.0-0.15","5fc44569444cef8809245f94","6662009ae78f21dd82fcd179","666209e1e4bde838531ff5fa","205","","f","","","","","","","","./tasks/HMM-beads/Images/NewTrialBC.png","lowH","1","15","1","1","0","0","false","",""
"image-keyboard-response","183","231193","0.0-3.0-6.0-1.0-1.15","5fc44569444cef8809245f94","6662009ae78f21dd82fcd179","666209e1e4bde838531ff5fa","null","","null","","","","","","","","./tasks/HMM-beads/Images/BlackBeadChoice.png","","","","","","","","","",""
"image-keyboard-response","184","231709","0.0-3.0-6.0-1.0-2.15","5fc44569444cef8809245f94","6662009ae78f21dd82fcd179","666209e1e4bde838531ff5fa","null","","null","","","","","","","","./tasks/HMM-beads/Images/BlackBeadChoiceWrong.png","","","","","","","","","",""
"image-keyboard-response","185","231914","0.0-3.0-6.0-1.0-0.16","5fc44569444cef8809245f94","6662009ae78f21dd82fcd179","666209e1e4bde838531ff5fa","198","","j","","","","","","","","./tasks/HMM-beads/Images/NewTrialWC.png","lowH","1","16","1","1","1","1","true","",""
"image-keyboard-response","186","232220","0.0-3.0-6.0-1.0-1.16","5fc44569444cef8809245f94","6662009ae78f21dd82fcd179","666209e1e4bde838531ff5fa","null","","null","","","","","","","","./tasks/HMM-beads/Images/WhiteBeadChoice.png","","","","","","","","","",""
"image-keyboard-response","187","232733","0.0-3.0-6.0-1.0-2.16","5fc44569444cef8809245f94","6662009ae78f21dd82fcd179","666209e1e4bde838531ff5fa","null","","null","","","","","","","","./tasks/HMM-beads/Images/WhiteBeadChoiceCorrect.png","","","","","","","","","",""
"image-keyboard-response","188","233086","0.0-3.0-6.0-1.0-0.17","5fc44569444cef8809245f94","6662009ae78f21dd82fcd179","666209e1e4bde838531ff5fa","351","","j","","","","","","","","./tasks/HMM-beads/Images/NewTrialWC.png","lowH","1","17","1","1","1","1","true","",""
"image-keyboard-response","189","233393","0.0-3.0-6.0-1.0-1.17","5fc44569444cef8809245f94","6662009ae78f21dd82fcd179","666209e1e4bde838531ff5fa","null","","null","","","","","","","","./tasks/HMM-beads/Images/WhiteBeadChoice.png","","","","","","","","","",""
"image-keyboard-response","190","233910","0.0-3.0-6.0-1.0-2.17","5fc44569444cef8809245f94","6662009ae78f21dd82fcd179","666209e1e4bde838531ff5fa","null","","null","","","","","","","","./tasks/HMM-beads/Images/WhiteBeadChoiceCorrect.png","","","","","","","","","",""
"image-keyboard-response","191","234118","0.0-3.0-6.0-1.0-0.18","5fc44569444cef8809245f94","6662009ae78f21dd82fcd179","666209e1e4bde838531ff5fa","207","","j","","","","","","","","./tasks/HMM-beads/Images/NewTrialWC.png","lowH","1","18","1","1","1","1","true","",""
"image-keyboard-response","192","234430","0.0-3.0-6.0-1.0-1.18","5fc44569444cef8809245f94","6662009ae78f21dd82fcd179","666209e1e4bde838531ff5fa","null","","null","","","","","","","","./tasks/HMM-beads/Images/WhiteBeadChoice.png","","","","","","","","","",""
"image-keyboard-response","193","234946","0.0-3.0-6.0-1.0-2.18","5fc44569444cef8809245f94","6662009ae78f21dd82fcd179","666209e1e4bde838531ff5fa","null","","null","","","","","","","","./tasks/HMM-beads/Images/WhiteBeadChoiceCorrect.png","","","","","","","","","",""
"image-keyboard-response","194","235175","0.0-3.0-6.0-1.0-0.19","5fc44569444cef8809245f94","6662009ae78f21dd82fcd179","666209e1e4bde838531ff5fa","228","","j","","","","","","","","./tasks/HMM-beads/Images/NewTrialWC.png","lowH","1","19","1","1","1","1","true","",""
"image-keyboard-response","195","235479","0.0-3.0-6.0-1.0-1.19","5fc44569444cef8809245f94","6662009ae78f21dd82fcd179","666209e1e4bde838531ff5fa","null","","null","","","","","","","","./tasks/HMM-beads/Images/WhiteBeadChoice.png","","","","","","","","","",""
"image-keyboard-response","196","235995","0.0-3.0-6.0-1.0-2.19","5fc44569444cef8809245f94","6662009ae78f21dd82fcd179","666209e1e4bde838531ff5fa","null","","null","","","","","","","","./tasks/HMM-beads/Images/WhiteBeadChoiceCorrect.png","","","","","","","","","",""
"image-keyboard-response","197","236240","0.0-3.0-6.0-1.0-0.20","5fc44569444cef8809245f94","6662009ae78f21dd82fcd179","666209e1e4bde838531ff5fa","243","","j","","","","","","","","./tasks/HMM-beads/Images/NewTrialWC.png","lowH","1","20","1","1","1","1","true","",""
"image-keyboard-response","198","236562","0.0-3.0-6.0-1.0-1.20","5fc44569444cef8809245f94","6662009ae78f21dd82fcd179","666209e1e4bde838531ff5fa","null","","null","","","","","","","","./tasks/HMM-beads/Images/WhiteBeadChoice.png","","","","","","","","","",""
"image-keyboard-response","199","237078","0.0-3.0-6.0-1.0-2.20","5fc44569444cef8809245f94","6662009ae78f21dd82fcd179","666209e1e4bde838531ff5fa","null","","null","","","","","","","","./tasks/HMM-beads/Images/WhiteBeadChoiceCorrect.png","","","","","","","","","",""
"image-keyboard-response","200","237274","0.0-3.0-6.0-1.0-0.21","5fc44569444cef8809245f94","6662009ae78f21dd82fcd179","666209e1e4bde838531ff5fa","196","","j","","","","","","","","./tasks/HMM-beads/Images/NewTrialWC.png","lowH","1","21","1","1","1","1","true","",""
"image-keyboard-response","201","237580","0.0-3.0-6.0-1.0-1.21","5fc44569444cef8809245f94","6662009ae78f21dd82fcd179","666209e1e4bde838531ff5fa","null","","null","","","","","","","","./tasks/HMM-beads/Images/WhiteBeadChoice.png","","","","","","","","","",""
"image-keyboard-response","202","238097","0.0-3.0-6.0-1.0-2.21","5fc44569444cef8809245f94","6662009ae78f21dd82fcd179","666209e1e4bde838531ff5fa","null","","null","","","","","","","","./tasks/HMM-beads/Images/WhiteBeadChoiceCorrect.png","","","","","","","","","",""
"image-keyboard-response","203","238376","0.0-3.0-6.0-1.0-0.22","5fc44569444cef8809245f94","6662009ae78f21dd82fcd179","666209e1e4bde838531ff5fa","278","","j","","","","","","","","./tasks/HMM-beads/Images/NewTrialWC.png","lowH","1","22","1","1","1","1","true","",""
"image-keyboard-response","204","238690","0.0-3.0-6.0-1.0-1.22","5fc44569444cef8809245f94","6662009ae78f21dd82fcd179","666209e1e4bde838531ff5fa","null","","null","","","","","","","","./tasks/HMM-beads/Images/WhiteBeadChoice.png","","","","","","","","","",""
"image-keyboard-response","205","239203","0.0-3.0-6.0-1.0-2.22","5fc44569444cef8809245f94","6662009ae78f21dd82fcd179","666209e1e4bde838531ff5fa","null","","null","","","","","","","","./tasks/HMM-beads/Images/WhiteBeadChoiceCorrect.png","","","","","","","","","",""
"image-keyboard-response","206","239486","0.0-3.0-6.0-1.0-0.23","5fc44569444cef8809245f94","6662009ae78f21dd82fcd179","666209e1e4bde838531ff5fa","281","","j","","","","","","","","./tasks/HMM-beads/Images/NewTrialWC.png","lowH","1","23","1","1","1","1","true","",""
"image-keyboard-response","207","239792","0.0-3.0-6.0-1.0-1.23","5fc44569444cef8809245f94","6662009ae78f21dd82fcd179","666209e1e4bde838531ff5fa","null","","null","","","","","","","","./tasks/HMM-beads/Images/WhiteBeadChoice.png","","","","","","","","","",""
"image-keyboard-response","208","240306","0.0-3.0-6.0-1.0-2.23","5fc44569444cef8809245f94","6662009ae78f21dd82fcd179","666209e1e4bde838531ff5fa","null","","null","","","","","","","","./tasks/HMM-beads/Images/WhiteBeadChoiceCorrect.png","","","","","","","","","",""
"image-keyboard-response","209","240562","0.0-3.0-6.0-1.0-0.24","5fc44569444cef8809245f94","6662009ae78f21dd82fcd179","666209e1e4bde838531ff5fa","256","","j","","","","","","","","./tasks/HMM-beads/Images/NewTrialWC.png","lowH","1","24","1","0","1","1","false","",""
"image-keyboard-response","210","240868","0.0-3.0-6.0-1.0-1.24","5fc44569444cef8809245f94","6662009ae78f21dd82fcd179","666209e1e4bde838531ff5fa","null","","null","","","","","","","","./tasks/HMM-beads/Images/WhiteBeadChoice.png","","","","","","","","","",""
"image-keyboard-response","211","241383","0.0-3.0-6.0-1.0-2.24","5fc44569444cef8809245f94","6662009ae78f21dd82fcd179","666209e1e4bde838531ff5fa","null","","null","","","","","","","","./tasks/HMM-beads/Images/WhiteBeadChoiceWrong.png","","","","","","","","","",""
"image-keyboard-response","212","241616","0.0-3.0-6.0-1.0-0.25","5fc44569444cef8809245f94","6662009ae78f21dd82fcd179","666209e1e4bde838531ff5fa","232","","f","","","","","","","","./tasks/HMM-beads/Images/NewTrialBC.png","lowH","1","25","1","1","0","0","false","",""
"image-keyboard-response","213","241929","0.0-3.0-6.0-1.0-1.25","5fc44569444cef8809245f94","6662009ae78f21dd82fcd179","666209e1e4bde838531ff5fa","null","","null","","","","","","","","./tasks/HMM-beads/Images/BlackBeadChoice.png","","","","","","","","","",""
"image-keyboard-response","214","242442","0.0-3.0-6.0-1.0-2.25","5fc44569444cef8809245f94","6662009ae78f21dd82fcd179","666209e1e4bde838531ff5fa","null","","null","","","","","","","","./tasks/HMM-beads/Images/BlackBeadChoiceWrong.png","","","","","","","","","",""
"image-keyboard-response","215","242478","0.0-3.0-6.0-1.0-0.26","5fc44569444cef8809245f94","6662009ae78f21dd82fcd179","666209e1e4bde838531ff5fa","36","","j","","","","","","","","./tasks/HMM-beads/Images/NewTrialWC.png","lowH","1","26","1","0","1","1","false","",""
"image-keyboard-response","216","242789","0.0-3.0-6.0-1.0-1.26","5fc44569444cef8809245f94","6662009ae78f21dd82fcd179","666209e1e4bde838531ff5fa","null","","null","","","","","","","","./tasks/HMM-beads/Images/WhiteBeadChoice.png","","","","","","","","","",""
"image-keyboard-response","217","243305","0.0-3.0-6.0-1.0-2.26","5fc44569444cef8809245f94","6662009ae78f21dd82fcd179","666209e1e4bde838531ff5fa","null","","null","","","","","","","","./tasks/HMM-beads/Images/WhiteBeadChoiceWrong.png","","","","","","","","","",""
"image-keyboard-response","218","243713","0.0-3.0-6.0-1.0-0.27","5fc44569444cef8809245f94","6662009ae78f21dd82fcd179","666209e1e4bde838531ff5fa","408","","f","","","","","","","","./tasks/HMM-beads/Images/NewTrialBC.png","lowH","1","27","1","1","0","0","false","",""
"image-keyboard-response","219","244018","0.0-3.0-6.0-1.0-1.27","5fc44569444cef8809245f94","6662009ae78f21dd82fcd179","666209e1e4bde838531ff5fa","null","","null","","","","","","","","./tasks/HMM-beads/Images/BlackBeadChoice.png","","","","","","","","","",""
"image-keyboard-response","220","244519","0.0-3.0-6.0-1.0-2.27","5fc44569444cef8809245f94","6662009ae78f21dd82fcd179","666209e1e4bde838531ff5fa","null","","null","","","","","","","","./tasks/HMM-beads/Images/BlackBeadChoiceWrong.png","","","","","","","","","",""
"image-keyboard-response","221","244714","0.0-3.0-6.0-1.0-0.28","5fc44569444cef8809245f94","6662009ae78f21dd82fcd179","666209e1e4bde838531ff5fa","193","","j","","","","","","","","./tasks/HMM-beads/Images/NewTrialWC.png","lowH","1","28","1","1","1","1","true","",""
"image-keyboard-response","222","245024","0.0-3.0-6.0-1.0-1.28","5fc44569444cef8809245f94","6662009ae78f21dd82fcd179","666209e1e4bde838531ff5fa","null","","null","","","","","","","","./tasks/HMM-beads/Images/WhiteBeadChoice.png","","","","","","","","","",""
"image-keyboard-response","223","245539","0.0-3.0-6.0-1.0-2.28","5fc44569444cef8809245f94","6662009ae78f21dd82fcd179","666209e1e4bde838531ff5fa","null","","null","","","","","","","","./tasks/HMM-beads/Images/WhiteBeadChoiceCorrect.png","","","","","","","","","",""
"image-keyboard-response","224","245744","0.0-3.0-6.0-1.0-0.29","5fc44569444cef8809245f94","6662009ae78f21dd82fcd179","666209e1e4bde838531ff5fa","199","","j","","","","","","","","./tasks/HMM-beads/Images/NewTrialWC.png","lowH","1","29","1","1","1","1","true","",""
"image-keyboard-response","225","246053","0.0-3.0-6.0-1.0-1.29","5fc44569444cef8809245f94","6662009ae78f21dd82fcd179","666209e1e4bde838531ff5fa","null","","null","","","","","","","","./tasks/HMM-beads/Images/WhiteBeadChoice.png","","","","","","","","","",""
"image-keyboard-response","226","246558","0.0-3.0-6.0-1.0-2.29","5fc44569444cef8809245f94","6662009ae78f21dd82fcd179","666209e1e4bde838531ff5fa","null","","null","","","","","","","","./tasks/HMM-beads/Images/WhiteBeadChoiceCorrect.png","","","","","","","","","",""
"image-keyboard-response","227","246705","0.0-3.0-6.0-1.0-0.30","5fc44569444cef8809245f94","6662009ae78f21dd82fcd179","666209e1e4bde838531ff5fa","145","","j","","","","","","","","./tasks/HMM-beads/Images/NewTrialWC.png","lowH","1","30","1","1","1","1","true","",""
"image-keyboard-response","228","247011","0.0-3.0-6.0-1.0-1.30","5fc44569444cef8809245f94","6662009ae78f21dd82fcd179","666209e1e4bde838531ff5fa","null","","null","","","","","","","","./tasks/HMM-beads/Images/WhiteBeadChoice.png","","","","","","","","","",""
"image-keyboard-response","229","247515","0.0-3.0-6.0-1.0-2.30","5fc44569444cef8809245f94","6662009ae78f21dd82fcd179","666209e1e4bde838531ff5fa","null","","null","","","","","","","","./tasks/HMM-beads/Images/WhiteBeadChoiceCorrect.png","","","","","","","","","",""
"image-keyboard-response","230","247694","0.0-3.0-6.0-1.0-0.31","5fc44569444cef8809245f94","6662009ae78f21dd82fcd179","666209e1e4bde838531ff5fa","178","","j","","","","","","","","./tasks/HMM-beads/Images/NewTrialWC.png","lowH","1","31","1","1","1","1","true","",""
"image-keyboard-response","231","247997","0.0-3.0-6.0-1.0-1.31","5fc44569444cef8809245f94","6662009ae78f21dd82fcd179","666209e1e4bde838531ff5fa","null","","null","","","","","","","","./tasks/HMM-beads/Images/WhiteBeadChoice.png","","","","","","","","","",""
"image-keyboard-response","232","248512","0.0-3.0-6.0-1.0-2.31","5fc44569444cef8809245f94","6662009ae78f21dd82fcd179","666209e1e4bde838531ff5fa","null","","null","","","","","","","","./tasks/HMM-beads/Images/WhiteBeadChoiceCorrect.png","","","","","","","","","",""
"image-keyboard-response","233","248705","0.0-3.0-6.0-1.0-0.32","5fc44569444cef8809245f94","6662009ae78f21dd82fcd179","666209e1e4bde838531ff5fa","191","","j","","","","","","","","./tasks/HMM-beads/Images/NewTrialWC.png","lowH","1","32","1","1","1","1","true","",""
"image-keyboard-response","234","249016","0.0-3.0-6.0-1.0-1.32","5fc44569444cef8809245f94","6662009ae78f21dd82fcd179","666209e1e4bde838531ff5fa","null","","null","","","","","","","","./tasks/HMM-beads/Images/WhiteBeadChoice.png","","","","","","","","","",""
"image-keyboard-response","235","249527","0.0-3.0-6.0-1.0-2.32","5fc44569444cef8809245f94","6662009ae78f21dd82fcd179","666209e1e4bde838531ff5fa","null","","null","","","","","","","","./tasks/HMM-beads/Images/WhiteBeadChoiceCorrect.png","","","","","","","","","",""
"image-keyboard-response","236","249678","0.0-3.0-6.0-1.0-0.33","5fc44569444cef8809245f94","6662009ae78f21dd82fcd179","666209e1e4bde838531ff5fa","150","","j","","","","","","","","./tasks/HMM-beads/Images/NewTrialWC.png","lowH","1","33","1","1","1","1","true","",""
"image-keyboard-response","237","249995","0.0-3.0-6.0-1.0-1.33","5fc44569444cef8809245f94","6662009ae78f21dd82fcd179","666209e1e4bde838531ff5fa","null","","null","","","","","","","","./tasks/HMM-beads/Images/WhiteBeadChoice.png","","","","","","","","","",""
"image-keyboard-response","238","250509","0.0-3.0-6.0-1.0-2.33","5fc44569444cef8809245f94","6662009ae78f21dd82fcd179","666209e1e4bde838531ff5fa","null","","null","","","","","","","","./tasks/HMM-beads/Images/WhiteBeadChoiceCorrect.png","","","","","","","","","",""
"image-keyboard-response","239","250728","0.0-3.0-6.0-1.0-0.34","5fc44569444cef8809245f94","6662009ae78f21dd82fcd179","666209e1e4bde838531ff5fa","217","","j","","","","","","","","./tasks/HMM-beads/Images/NewTrialWC.png","lowH","1","34","1","1","1","1","true","",""
"image-keyboard-response","240","251032","0.0-3.0-6.0-1.0-1.34","5fc44569444cef8809245f94","6662009ae78f21dd82fcd179","666209e1e4bde838531ff5fa","null","","null","","","","","","","","./tasks/HMM-beads/Images/WhiteBeadChoice.png","","","","","","","","","",""
"image-keyboard-response","241","251546","0.0-3.0-6.0-1.0-2.34","5fc44569444cef8809245f94","6662009ae78f21dd82fcd179","666209e1e4bde838531ff5fa","null","","null","","","","","","","","./tasks/HMM-beads/Images/WhiteBeadChoiceCorrect.png","","","","","","","","","",""
"image-keyboard-response","242","251714","0.0-3.0-6.0-1.0-0.35","5fc44569444cef8809245f94","6662009ae78f21dd82fcd179","666209e1e4bde838531ff5fa","166","","j","","","","","","","","./tasks/HMM-beads/Images/NewTrialWC.png","lowH","1","35","1","1","1","1","true","",""
"image-keyboard-response","243","252016","0.0-3.0-6.0-1.0-1.35","5fc44569444cef8809245f94","6662009ae78f21dd82fcd179","666209e1e4bde838531ff5fa","null","","null","","","","","","","","./tasks/HMM-beads/Images/WhiteBeadChoice.png","","","","","","","","","",""
"image-keyboard-response","244","252519","0.0-3.0-6.0-1.0-2.35","5fc44569444cef8809245f94","6662009ae78f21dd82fcd179","666209e1e4bde838531ff5fa","null","","null","","","","","","","","./tasks/HMM-beads/Images/WhiteBeadChoiceCorrect.png","","","","","","","","","",""
"image-keyboard-response","245","252712","0.0-3.0-6.0-1.0-0.36","5fc44569444cef8809245f94","6662009ae78f21dd82fcd179","666209e1e4bde838531ff5fa","192","","j","","","","","","","","./tasks/HMM-beads/Images/NewTrialWC.png","lowH","1","36","1","1","1","1","true","",""
"image-keyboard-response","246","253020","0.0-3.0-6.0-1.0-1.36","5fc44569444cef8809245f94","6662009ae78f21dd82fcd179","666209e1e4bde838531ff5fa","null","","null","","","","","","","","./tasks/HMM-beads/Images/WhiteBeadChoice.png","","","","","","","","","",""
"image-keyboard-response","247","253536","0.0-3.0-6.0-1.0-2.36","5fc44569444cef8809245f94","6662009ae78f21dd82fcd179","666209e1e4bde838531ff5fa","null","","null","","","","","","","","./tasks/HMM-beads/Images/WhiteBeadChoiceCorrect.png","","","","","","","","","",""
"image-keyboard-response","248","253688","0.0-3.0-6.0-1.0-0.37","5fc44569444cef8809245f94","6662009ae78f21dd82fcd179","666209e1e4bde838531ff5fa","151","","j","","","","","","","","./tasks/HMM-beads/Images/NewTrialWC.png","lowH","1","37","1","1","1","1","true","",""
"image-keyboard-response","249","253991","0.0-3.0-6.0-1.0-1.37","5fc44569444cef8809245f94","6662009ae78f21dd82fcd179","666209e1e4bde838531ff5fa","null","","null","","","","","","","","./tasks/HMM-beads/Images/WhiteBeadChoice.png","","","","","","","","","",""
"image-keyboard-response","250","254505","0.0-3.0-6.0-1.0-2.37","5fc44569444cef8809245f94","6662009ae78f21dd82fcd179","666209e1e4bde838531ff5fa","null","","null","","","","","","","","./tasks/HMM-beads/Images/WhiteBeadChoiceCorrect.png","","","","","","","","","",""
"image-keyboard-response","251","254665","0.0-3.0-6.0-1.0-0.38","5fc44569444cef8809245f94","6662009ae78f21dd82fcd179","666209e1e4bde838531ff5fa","158","","j","","","","","","","","./tasks/HMM-beads/Images/NewTrialWC.png","lowH","1","38","1","1","1","1","true","",""
"image-keyboard-response","252","254970","0.0-3.0-6.0-1.0-1.38","5fc44569444cef8809245f94","6662009ae78f21dd82fcd179","666209e1e4bde838531ff5fa","null","","null","","","","","","","","./tasks/HMM-beads/Images/WhiteBeadChoice.png","","","","","","","","","",""
"image-keyboard-response","253","255486","0.0-3.0-6.0-1.0-2.38","5fc44569444cef8809245f94","6662009ae78f21dd82fcd179","666209e1e4bde838531ff5fa","null","","null","","","","","","","","./tasks/HMM-beads/Images/WhiteBeadChoiceCorrect.png","","","","","","","","","",""
"image-keyboard-response","254","259462","0.0-3.0-6.0-1.0-0.39","5fc44569444cef8809245f94","6662009ae78f21dd82fcd179","666209e1e4bde838531ff5fa","3974","","j","","","","","","","","./tasks/HMM-beads/Images/NewTrialWC.png","lowH","1","39","1","1","1","1","true","",""
"image-keyboard-response","255","259777","0.0-3.0-6.0-1.0-1.39","5fc44569444cef8809245f94","6662009ae78f21dd82fcd179","666209e1e4bde838531ff5fa","null","","null","","","","","","","","./tasks/HMM-beads/Images/WhiteBeadChoice.png","","","","","","","","","",""
"image-keyboard-response","256","260289","0.0-3.0-6.0-1.0-2.39","5fc44569444cef8809245f94","6662009ae78f21dd82fcd179","666209e1e4bde838531ff5fa","null","","null","","","","","","","","./tasks/HMM-beads/Images/WhiteBeadChoiceCorrect.png","","","","","","","","","",""
"image-keyboard-response","257","260439","0.0-3.0-6.0-1.0-0.40","5fc44569444cef8809245f94","6662009ae78f21dd82fcd179","666209e1e4bde838531ff5fa","149","","j","","","","","","","","./tasks/HMM-beads/Images/NewTrialWC.png","lowH","1","40","1","1","1","1","true","",""
"image-keyboard-response","258","260741","0.0-3.0-6.0-1.0-1.40","5fc44569444cef8809245f94","6662009ae78f21dd82fcd179","666209e1e4bde838531ff5fa","null","","null","","","","","","","","./tasks/HMM-beads/Images/WhiteBeadChoice.png","","","","","","","","","",""
"image-keyboard-response","259","261257","0.0-3.0-6.0-1.0-2.40","5fc44569444cef8809245f94","6662009ae78f21dd82fcd179","666209e1e4bde838531ff5fa","null","","null","","","","","","","","./tasks/HMM-beads/Images/WhiteBeadChoiceCorrect.png","","","","","","","","","",""
"image-keyboard-response","260","261311","0.0-3.0-6.0-1.0-0.41","5fc44569444cef8809245f94","6662009ae78f21dd82fcd179","666209e1e4bde838531ff5fa","53","","j","","","","","","","","./tasks/HMM-beads/Images/NewTrialWC.png","lowH","1","41","1","1","1","1","true","",""
"image-keyboard-response","261","261614","0.0-3.0-6.0-1.0-1.41","5fc44569444cef8809245f94","6662009ae78f21dd82fcd179","666209e1e4bde838531ff5fa","null","","null","","","","","","","","./tasks/HMM-beads/Images/WhiteBeadChoice.png","","","","","","","","","",""
"image-keyboard-response","262","262117","0.0-3.0-6.0-1.0-2.41","5fc44569444cef8809245f94","6662009ae78f21dd82fcd179","666209e1e4bde838531ff5fa","null","","null","","","","","","","","./tasks/HMM-beads/Images/WhiteBeadChoiceCorrect.png","","","","","","","","","",""
"image-keyboard-response","263","262409","0.0-3.0-6.0-1.0-0.42","5fc44569444cef8809245f94","6662009ae78f21dd82fcd179","666209e1e4bde838531ff5fa","286","","j","","","","","","","","./tasks/HMM-beads/Images/NewTrialWC.png","lowH","1","42","1","1","1","1","true","",""
"image-keyboard-response","264","262726","0.0-3.0-6.0-1.0-1.42","5fc44569444cef8809245f94","6662009ae78f21dd82fcd179","666209e1e4bde838531ff5fa","null","","null","","","","","","","","./tasks/HMM-beads/Images/WhiteBeadChoice.png","","","","","","","","","",""
"image-keyboard-response","265","263229","0.0-3.0-6.0-1.0-2.42","5fc44569444cef8809245f94","6662009ae78f21dd82fcd179","666209e1e4bde838531ff5fa","null","","null","","","","","","","","./tasks/HMM-beads/Images/WhiteBeadChoiceCorrect.png","","","","","","","","","",""
"image-keyboard-response","266","263568","0.0-3.0-6.0-1.0-0.43","5fc44569444cef8809245f94","6662009ae78f21dd82fcd179","666209e1e4bde838531ff5fa","338","","j","","","","","","","","./tasks/HMM-beads/Images/NewTrialWC.png","lowH","1","43","1","1","1","1","true","",""
"image-keyboard-response","267","263872","0.0-3.0-6.0-1.0-1.43","5fc44569444cef8809245f94","6662009ae78f21dd82fcd179","666209e1e4bde838531ff5fa","null","","null","","","","","","","","./tasks/HMM-beads/Images/WhiteBeadChoice.png","","","","","","","","","",""
"image-keyboard-response","268","264387","0.0-3.0-6.0-1.0-2.43","5fc44569444cef8809245f94","6662009ae78f21dd82fcd179","666209e1e4bde838531ff5fa","null","","null","","","","","","","","./tasks/HMM-beads/Images/WhiteBeadChoiceCorrect.png","","","","","","","","","",""
"image-keyboard-response","269","265054","0.0-3.0-6.0-1.0-0.44","5fc44569444cef8809245f94","6662009ae78f21dd82fcd179","666209e1e4bde838531ff5fa","665","","j","","","","","","","","./tasks/HMM-beads/Images/NewTrialWC.png","lowH","1","44","1","1","1","1","true","",""
"image-keyboard-response","270","265355","0.0-3.0-6.0-1.0-1.44","5fc44569444cef8809245f94","6662009ae78f21dd82fcd179","666209e1e4bde838531ff5fa","null","","null","","","","","","","","./tasks/HMM-beads/Images/WhiteBeadChoice.png","","","","","","","","","",""
"image-keyboard-response","271","265860","0.0-3.0-6.0-1.0-2.44","5fc44569444cef8809245f94","6662009ae78f21dd82fcd179","666209e1e4bde838531ff5fa","null","","null","","","","","","","","./tasks/HMM-beads/Images/WhiteBeadChoiceCorrect.png","","","","","","","","","",""
"image-keyboard-response","272","265961","0.0-3.0-6.0-1.0-0.45","5fc44569444cef8809245f94","6662009ae78f21dd82fcd179","666209e1e4bde838531ff5fa","100","","j","","","","","","","","./tasks/HMM-beads/Images/NewTrialWC.png","lowH","1","45","1","1","1","1","true","",""
"image-keyboard-response","273","266264","0.0-3.0-6.0-1.0-1.45","5fc44569444cef8809245f94","6662009ae78f21dd82fcd179","666209e1e4bde838531ff5fa","null","","null","","","","","","","","./tasks/HMM-beads/Images/WhiteBeadChoice.png","","","","","","","","","",""
"image-keyboard-response","274","266778","0.0-3.0-6.0-1.0-2.45","5fc44569444cef8809245f94","6662009ae78f21dd82fcd179","666209e1e4bde838531ff5fa","null","","null","","","","","","","","./tasks/HMM-beads/Images/WhiteBeadChoiceCorrect.png","","","","","","","","","",""
"image-keyboard-response","275","267016","0.0-3.0-6.0-1.0-0.46","5fc44569444cef8809245f94","6662009ae78f21dd82fcd179","666209e1e4bde838531ff5fa","237","","j","","","","","","","","./tasks/HMM-beads/Images/NewTrialWC.png","lowH","1","46","1","1","1","1","true","",""
"image-keyboard-response","276","267331","0.0-3.0-6.0-1.0-1.46","5fc44569444cef8809245f94","6662009ae78f21dd82fcd179","666209e1e4bde838531ff5fa","null","","null","","","","","","","","./tasks/HMM-beads/Images/WhiteBeadChoice.png","","","","","","","","","",""
"image-keyboard-response","277","267847","0.0-3.0-6.0-1.0-2.46","5fc44569444cef8809245f94","6662009ae78f21dd82fcd179","666209e1e4bde838531ff5fa","null","","null","","","","","","","","./tasks/HMM-beads/Images/WhiteBeadChoiceCorrect.png","","","","","","","","","",""
"image-keyboard-response","278","268046","0.0-3.0-6.0-1.0-0.47","5fc44569444cef8809245f94","6662009ae78f21dd82fcd179","666209e1e4bde838531ff5fa","197","","j","","","","","","","","./tasks/HMM-beads/Images/NewTrialWC.png","lowH","1","47","1","0","1","1","false","",""
"image-keyboard-response","279","268361","0.0-3.0-6.0-1.0-1.47","5fc44569444cef8809245f94","6662009ae78f21dd82fcd179","666209e1e4bde838531ff5fa","null","","null","","","","","","","","./tasks/HMM-beads/Images/WhiteBeadChoice.png","","","","","","","","","",""
"image-keyboard-response","280","268876","0.0-3.0-6.0-1.0-2.47","5fc44569444cef8809245f94","6662009ae78f21dd82fcd179","666209e1e4bde838531ff5fa","null","","null","","","","","","","","./tasks/HMM-beads/Images/WhiteBeadChoiceWrong.png","","","","","","","","","",""
"image-keyboard-response","281","269046","0.0-3.0-6.0-1.0-0.48","5fc44569444cef8809245f94","6662009ae78f21dd82fcd179","666209e1e4bde838531ff5fa","169","","f","","","","","","","","./tasks/HMM-beads/Images/NewTrialBC.png","lowH","1","48","1","0","0","0","true","",""
"image-keyboard-response","282","269348","0.0-3.0-6.0-1.0-1.48","5fc44569444cef8809245f94","6662009ae78f21dd82fcd179","666209e1e4bde838531ff5fa","null","","null","","","","","","","","./tasks/HMM-beads/Images/BlackBeadChoice.png","","","","","","","","","",""
"image-keyboard-response","283","269862","0.0-3.0-6.0-1.0-2.48","5fc44569444cef8809245f94","6662009ae78f21dd82fcd179","666209e1e4bde838531ff5fa","null","","null","","","","","","","","./tasks/HMM-beads/Images/BlackBeadChoiceCorrect.png","","","","","","","","","",""
"image-keyboard-response","284","270038","0.0-3.0-6.0-1.0-0.49","5fc44569444cef8809245f94","6662009ae78f21dd82fcd179","666209e1e4bde838531ff5fa","175","","f","","","","","","","","./tasks/HMM-beads/Images/NewTrialBC.png","lowH","1","49","1","0","0","0","true","",""
"image-keyboard-response","285","270343","0.0-3.0-6.0-1.0-1.49","5fc44569444cef8809245f94","6662009ae78f21dd82fcd179","666209e1e4bde838531ff5fa","null","","null","","","","","","","","./tasks/HMM-beads/Images/BlackBeadChoice.png","","","","","","","","","",""
"image-keyboard-response","286","270860","0.0-3.0-6.0-1.0-2.49","5fc44569444cef8809245f94","6662009ae78f21dd82fcd179","666209e1e4bde838531ff5fa","null","","null","","","","","","","","./tasks/HMM-beads/Images/BlackBeadChoiceCorrect.png","","","","","","","","","",""
"image-keyboard-response","287","273198","0.0-3.0-6.0-1.0-0.50","5fc44569444cef8809245f94","6662009ae78f21dd82fcd179","666209e1e4bde838531ff5fa","2337","","f","","","","","","","","./tasks/HMM-beads/Images/NewTrialBC.png","lowH","1","50","1","1","0","0","false","",""
"image-keyboard-response","288","273507","0.0-3.0-6.0-1.0-1.50","5fc44569444cef8809245f94","6662009ae78f21dd82fcd179","666209e1e4bde838531ff5fa","null","","null","","","","","","","","./tasks/HMM-beads/Images/BlackBeadChoice.png","","","","","","","","","",""
"image-keyboard-response","289","274010","0.0-3.0-6.0-1.0-2.50","5fc44569444cef8809245f94","6662009ae78f21dd82fcd179","666209e1e4bde838531ff5fa","null","","null","","","","","","","","./tasks/HMM-beads/Images/BlackBeadChoiceWrong.png","","","","","","","","","",""
"image-keyboard-response","290","274398","0.0-3.0-6.0-1.0-0.51","5fc44569444cef8809245f94","6662009ae78f21dd82fcd179","666209e1e4bde838531ff5fa","386","","j","","","","","","","","./tasks/HMM-beads/Images/NewTrialWC.png","lowH","1","51","1","1","1","1","true","",""
"image-keyboard-response","291","274699","0.0-3.0-6.0-1.0-1.51","5fc44569444cef8809245f94","6662009ae78f21dd82fcd179","666209e1e4bde838531ff5fa","null","","null","","","","","","","","./tasks/HMM-beads/Images/WhiteBeadChoice.png","","","","","","","","","",""
"image-keyboard-response","292","275206","0.0-3.0-6.0-1.0-2.51","5fc44569444cef8809245f94","6662009ae78f21dd82fcd179","666209e1e4bde838531ff5fa","null","","null","","","","","","","","./tasks/HMM-beads/Images/WhiteBeadChoiceCorrect.png","","","","","","","","","",""
"image-keyboard-response","293","275520","0.0-3.0-6.0-1.0-0.52","5fc44569444cef8809245f94","6662009ae78f21dd82fcd179","666209e1e4bde838531ff5fa","313","","j","","","","","","","","./tasks/HMM-beads/Images/NewTrialWC.png","lowH","1","52","1","1","1","1","true","",""
"image-keyboard-response","294","275827","0.0-3.0-6.0-1.0-1.52","5fc44569444cef8809245f94","6662009ae78f21dd82fcd179","666209e1e4bde838531ff5fa","null","","null","","","","","","","","./tasks/HMM-beads/Images/WhiteBeadChoice.png","","","","","","","","","",""
"image-keyboard-response","295","276330","0.0-3.0-6.0-1.0-2.52","5fc44569444cef8809245f94","6662009ae78f21dd82fcd179","666209e1e4bde838531ff5fa","null","","null","","","","","","","","./tasks/HMM-beads/Images/WhiteBeadChoiceCorrect.png","","","","","","","","","",""
"image-keyboard-response","296","276574","0.0-3.0-6.0-1.0-0.53","5fc44569444cef8809245f94","6662009ae78f21dd82fcd179","666209e1e4bde838531ff5fa","243","","j","","","","","","","","./tasks/HMM-beads/Images/NewTrialWC.png","lowH","1","53","1","1","1","1","true","",""
"image-keyboard-response","297","276876","0.0-3.0-6.0-1.0-1.53","5fc44569444cef8809245f94","6662009ae78f21dd82fcd179","666209e1e4bde838531ff5fa","null","","null","","","","","","","","./tasks/HMM-beads/Images/WhiteBeadChoice.png","","","","","","","","","",""
"image-keyboard-response","298","277380","0.0-3.0-6.0-1.0-2.53","5fc44569444cef8809245f94","6662009ae78f21dd82fcd179","666209e1e4bde838531ff5fa","null","","null","","","","","","","","./tasks/HMM-beads/Images/WhiteBeadChoiceCorrect.png","","","","","","","","","",""
"image-keyboard-response","299","277424","0.0-3.0-6.0-1.0-0.54","5fc44569444cef8809245f94","6662009ae78f21dd82fcd179","666209e1e4bde838531ff5fa","43","","j","","","","","","","","./tasks/HMM-beads/Images/NewTrialWC.png","lowH","1","54","1","1","1","1","true","",""
"image-keyboard-response","300","277727","0.0-3.0-6.0-1.0-1.54","5fc44569444cef8809245f94","6662009ae78f21dd82fcd179","666209e1e4bde838531ff5fa","null","","null","","","","","","","","./tasks/HMM-beads/Images/WhiteBeadChoice.png","","","","","","","","","",""
"image-keyboard-response","301","278241","0.0-3.0-6.0-1.0-2.54","5fc44569444cef8809245f94","6662009ae78f21dd82fcd179","666209e1e4bde838531ff5fa","null","","null","","","","","","","","./tasks/HMM-beads/Images/WhiteBeadChoiceCorrect.png","","","","","","","","","",""
"image-keyboard-response","302","278333","0.0-3.0-6.0-1.0-0.55","5fc44569444cef8809245f94","6662009ae78f21dd82fcd179","666209e1e4bde838531ff5fa","83","","j","","","","","","","","./tasks/HMM-beads/Images/NewTrialWC.png","lowH","1","55","1","1","1","1","true","",""
"image-keyboard-response","303","278643","0.0-3.0-6.0-1.0-1.55","5fc44569444cef8809245f94","6662009ae78f21dd82fcd179","666209e1e4bde838531ff5fa","null","","null","","","","","","","","./tasks/HMM-beads/Images/WhiteBeadChoice.png","","","","","","","","","",""
"image-keyboard-response","304","279146","0.0-3.0-6.0-1.0-2.55","5fc44569444cef8809245f94","6662009ae78f21dd82fcd179","666209e1e4bde838531ff5fa","null","","null","","","","","","","","./tasks/HMM-beads/Images/WhiteBeadChoiceCorrect.png","","","","","","","","","",""
"image-keyboard-response","305","279303","0.0-3.0-6.0-1.0-0.56","5fc44569444cef8809245f94","6662009ae78f21dd82fcd179","666209e1e4bde838531ff5fa","156","","j","","","","","","","","./tasks/HMM-beads/Images/NewTrialWC.png","lowH","1","56","1","1","1","1","true","",""
"image-keyboard-response","306","279613","0.0-3.0-6.0-1.0-1.56","5fc44569444cef8809245f94","6662009ae78f21dd82fcd179","666209e1e4bde838531ff5fa","null","","null","","","","","","","","./tasks/HMM-beads/Images/WhiteBeadChoice.png","","","","","","","","","",""
"image-keyboard-response","307","280128","0.0-3.0-6.0-1.0-2.56","5fc44569444cef8809245f94","6662009ae78f21dd82fcd179","666209e1e4bde838531ff5fa","null","","null","","","","","","","","./tasks/HMM-beads/Images/WhiteBeadChoiceCorrect.png","","","","","","","","","",""
"image-keyboard-response","308","280296","0.0-3.0-6.0-1.0-0.57","5fc44569444cef8809245f94","6662009ae78f21dd82fcd179","666209e1e4bde838531ff5fa","166","","j","","","","","","","","./tasks/HMM-beads/Images/NewTrialWC.png","lowH","1","57","1","1","1","1","true","",""
"image-keyboard-response","309","280609","0.0-3.0-6.0-1.0-1.57","5fc44569444cef8809245f94","6662009ae78f21dd82fcd179","666209e1e4bde838531ff5fa","null","","null","","","","","","","","./tasks/HMM-beads/Images/WhiteBeadChoice.png","","","","","","","","","",""
"image-keyboard-response","310","281124","0.0-3.0-6.0-1.0-2.57","5fc44569444cef8809245f94","6662009ae78f21dd82fcd179","666209e1e4bde838531ff5fa","null","","null","","","","","","","","./tasks/HMM-beads/Images/WhiteBeadChoiceCorrect.png","","","","","","","","","",""
"image-keyboard-response","311","281264","0.0-3.0-6.0-1.0-0.58","5fc44569444cef8809245f94","6662009ae78f21dd82fcd179","666209e1e4bde838531ff5fa","138","","j","","","","","","","","./tasks/HMM-beads/Images/NewTrialWC.png","lowH","1","58","1","1","1","1","true","",""
"image-keyboard-response","312","281576","0.0-3.0-6.0-1.0-1.58","5fc44569444cef8809245f94","6662009ae78f21dd82fcd179","666209e1e4bde838531ff5fa","null","","null","","","","","","","","./tasks/HMM-beads/Images/WhiteBeadChoice.png","","","","","","","","","",""
"image-keyboard-response","313","282091","0.0-3.0-6.0-1.0-2.58","5fc44569444cef8809245f94","6662009ae78f21dd82fcd179","666209e1e4bde838531ff5fa","null","","null","","","","","","","","./tasks/HMM-beads/Images/WhiteBeadChoiceCorrect.png","","","","","","","","","",""
"image-keyboard-response","314","282247","0.0-3.0-6.0-1.0-0.59","5fc44569444cef8809245f94","6662009ae78f21dd82fcd179","666209e1e4bde838531ff5fa","155","","j","","","","","","","","./tasks/HMM-beads/Images/NewTrialWC.png","lowH","1","59","1","0","1","1","false","",""
"image-keyboard-response","315","282558","0.0-3.0-6.0-1.0-1.59","5fc44569444cef8809245f94","6662009ae78f21dd82fcd179","666209e1e4bde838531ff5fa","null","","null","","","","","","","","./tasks/HMM-beads/Images/WhiteBeadChoice.png","","","","","","","","","",""
"image-keyboard-response","316","283074","0.0-3.0-6.0-1.0-2.59","5fc44569444cef8809245f94","6662009ae78f21dd82fcd179","666209e1e4bde838531ff5fa","null","","null","","","","","","","","./tasks/HMM-beads/Images/WhiteBeadChoiceWrong.png","","","","","","","","","",""
"image-keyboard-response","317","283280","0.0-3.0-6.0-1.0-0.60","5fc44569444cef8809245f94","6662009ae78f21dd82fcd179","666209e1e4bde838531ff5fa","205","","f","","","","","","","","./tasks/HMM-beads/Images/NewTrialBC.png","lowH","1","60","1","1","0","0","false","",""
"image-keyboard-response","318","283585","0.0-3.0-6.0-1.0-1.60","5fc44569444cef8809245f94","6662009ae78f21dd82fcd179","666209e1e4bde838531ff5fa","null","","null","","","","","","","","./tasks/HMM-beads/Images/BlackBeadChoice.png","","","","","","","","","",""
"image-keyboard-response","319","284102","0.0-3.0-6.0-1.0-2.60","5fc44569444cef8809245f94","6662009ae78f21dd82fcd179","666209e1e4bde838531ff5fa","null","","null","","","","","","","","./tasks/HMM-beads/Images/BlackBeadChoiceWrong.png","","","","","","","","","",""
"image-keyboard-response","320","284389","0.0-3.0-6.0-1.0-0.61","5fc44569444cef8809245f94","6662009ae78f21dd82fcd179","666209e1e4bde838531ff5fa","286","","j","","","","","","","","./tasks/HMM-beads/Images/NewTrialWC.png","lowH","1","61","1","1","1","1","true","",""
"image-keyboard-response","321","284692","0.0-3.0-6.0-1.0-1.61","5fc44569444cef8809245f94","6662009ae78f21dd82fcd179","666209e1e4bde838531ff5fa","null","","null","","","","","","","","./tasks/HMM-beads/Images/WhiteBeadChoice.png","","","","","","","","","",""
"image-keyboard-response","322","285205","0.0-3.0-6.0-1.0-2.61","5fc44569444cef8809245f94","6662009ae78f21dd82fcd179","666209e1e4bde838531ff5fa","null","","null","","","","","","","","./tasks/HMM-beads/Images/WhiteBeadChoiceCorrect.png","","","","","","","","","",""
"image-keyboard-response","323","285599","0.0-3.0-6.0-1.0-0.62","5fc44569444cef8809245f94","6662009ae78f21dd82fcd179","666209e1e4bde838531ff5fa","392","","j","","","","","","","","./tasks/HMM-beads/Images/NewTrialWC.png","lowH","1","62","1","0","1","1","false","",""
"image-keyboard-response","324","285910","0.0-3.0-6.0-1.0-1.62","5fc44569444cef8809245f94","6662009ae78f21dd82fcd179","666209e1e4bde838531ff5fa","null","","null","","","","","","","","./tasks/HMM-beads/Images/WhiteBeadChoice.png","","","","","","","","","",""
"image-keyboard-response","325","286423","0.0-3.0-6.0-1.0-2.62","5fc44569444cef8809245f94","6662009ae78f21dd82fcd179","666209e1e4bde838531ff5fa","null","","null","","","","","","","","./tasks/HMM-beads/Images/WhiteBeadChoiceWrong.png","","","","","","","","","",""
"image-keyboard-response","326","286512","0.0-3.0-6.0-1.0-0.63","5fc44569444cef8809245f94","6662009ae78f21dd82fcd179","666209e1e4bde838531ff5fa","88","","f","","","","","","","","./tasks/HMM-beads/Images/NewTrialBC.png","lowH","1","63","1","1","0","0","false","",""
"image-keyboard-response","327","286828","0.0-3.0-6.0-1.0-1.63","5fc44569444cef8809245f94","6662009ae78f21dd82fcd179","666209e1e4bde838531ff5fa","null","","null","","","","","","","","./tasks/HMM-beads/Images/BlackBeadChoice.png","","","","","","","","","",""
"image-keyboard-response","328","287347","0.0-3.0-6.0-1.0-2.63","5fc44569444cef8809245f94","6662009ae78f21dd82fcd179","666209e1e4bde838531ff5fa","null","","null","","","","","","","","./tasks/HMM-beads/Images/BlackBeadChoiceWrong.png","","","","","","","","","",""
"image-keyboard-response","329","287454","0.0-3.0-6.0-1.0-0.64","5fc44569444cef8809245f94","6662009ae78f21dd82fcd179","666209e1e4bde838531ff5fa","105","","j","","","","","","","","./tasks/HMM-beads/Images/NewTrialWC.png","lowH","1","64","1","1","1","1","true","",""
"image-keyboard-response","330","287757","0.0-3.0-6.0-1.0-1.64","5fc44569444cef8809245f94","6662009ae78f21dd82fcd179","666209e1e4bde838531ff5fa","null","","null","","","","","","","","./tasks/HMM-beads/Images/WhiteBeadChoice.png","","","","","","","","","",""
"image-keyboard-response","331","288271","0.0-3.0-6.0-1.0-2.64","5fc44569444cef8809245f94","6662009ae78f21dd82fcd179","666209e1e4bde838531ff5fa","null","","null","","","","","","","","./tasks/HMM-beads/Images/WhiteBeadChoiceCorrect.png","","","","","","","","","",""
"image-keyboard-response","332","288814","0.0-3.0-6.0-1.0-0.65","5fc44569444cef8809245f94","6662009ae78f21dd82fcd179","666209e1e4bde838531ff5fa","542","","j","","","","","","","","./tasks/HMM-beads/Images/NewTrialWC.png","lowH","1","65","1","1","1","1","true","",""
"image-keyboard-response","333","289128","0.0-3.0-6.0-1.0-1.65","5fc44569444cef8809245f94","6662009ae78f21dd82fcd179","666209e1e4bde838531ff5fa","null","","null","","","","","","","","./tasks/HMM-beads/Images/WhiteBeadChoice.png","","","","","","","","","",""
"image-keyboard-response","334","289643","0.0-3.0-6.0-1.0-2.65","5fc44569444cef8809245f94","6662009ae78f21dd82fcd179","666209e1e4bde838531ff5fa","null","","null","","","","","","","","./tasks/HMM-beads/Images/WhiteBeadChoiceCorrect.png","","","","","","","","","",""
"image-keyboard-response","335","289831","0.0-3.0-6.0-1.0-0.66","5fc44569444cef8809245f94","6662009ae78f21dd82fcd179","666209e1e4bde838531ff5fa","187","","j","","","","","","","","./tasks/HMM-beads/Images/NewTrialWC.png","lowH","1","66","1","1","1","1","true","",""
"image-keyboard-response","336","290142","0.0-3.0-6.0-1.0-1.66","5fc44569444cef8809245f94","6662009ae78f21dd82fcd179","666209e1e4bde838531ff5fa","null","","null","","","","","","","","./tasks/HMM-beads/Images/WhiteBeadChoice.png","","","","","","","","","",""
"image-keyboard-response","337","290644","0.0-3.0-6.0-1.0-2.66","5fc44569444cef8809245f94","6662009ae78f21dd82fcd179","666209e1e4bde838531ff5fa","null","","null","","","","","","","","./tasks/HMM-beads/Images/WhiteBeadChoiceCorrect.png","","","","","","","","","",""
"image-keyboard-response","338","290895","0.0-3.0-6.0-1.0-0.67","5fc44569444cef8809245f94","6662009ae78f21dd82fcd179","666209e1e4bde838531ff5fa","249","","j","","","","","","","","./tasks/HMM-beads/Images/NewTrialWC.png","lowH","1","67","1","0","1","1","false","",""
"image-keyboard-response","339","291209","0.0-3.0-6.0-1.0-1.67","5fc44569444cef8809245f94","6662009ae78f21dd82fcd179","666209e1e4bde838531ff5fa","null","","null","","","","","","","","./tasks/HMM-beads/Images/WhiteBeadChoice.png","","","","","","","","","",""
"image-keyboard-response","340","291725","0.0-3.0-6.0-1.0-2.67","5fc44569444cef8809245f94","6662009ae78f21dd82fcd179","666209e1e4bde838531ff5fa","null","","null","","","","","","","","./tasks/HMM-beads/Images/WhiteBeadChoiceWrong.png","","","","","","","","","",""
"image-keyboard-response","341","291973","0.0-3.0-6.0-1.0-0.68","5fc44569444cef8809245f94","6662009ae78f21dd82fcd179","666209e1e4bde838531ff5fa","248","","f","","","","","","","","./tasks/HMM-beads/Images/NewTrialBC.png","lowH","1","68","1","1","0","0","false","",""
"image-keyboard-response","342","292282","0.0-3.0-6.0-1.0-1.68","5fc44569444cef8809245f94","6662009ae78f21dd82fcd179","666209e1e4bde838531ff5fa","null","","null","","","","","","","","./tasks/HMM-beads/Images/BlackBeadChoice.png","","","","","","","","","",""
"image-keyboard-response","343","292798","0.0-3.0-6.0-1.0-2.68","5fc44569444cef8809245f94","6662009ae78f21dd82fcd179","666209e1e4bde838531ff5fa","null","","null","","","","","","","","./tasks/HMM-beads/Images/BlackBeadChoiceWrong.png","","","","","","","","","",""
"image-keyboard-response","344","293383","0.0-3.0-6.0-1.0-0.69","5fc44569444cef8809245f94","6662009ae78f21dd82fcd179","666209e1e4bde838531ff5fa","585","","j","","","","","","","","./tasks/HMM-beads/Images/NewTrialWC.png","lowH","1","69","0","1","1","1","true","",""
"image-keyboard-response","345","293690","0.0-3.0-6.0-1.0-1.69","5fc44569444cef8809245f94","6662009ae78f21dd82fcd179","666209e1e4bde838531ff5fa","null","","null","","","","","","","","./tasks/HMM-beads/Images/WhiteBeadChoice.png","","","","","","","","","",""
"image-keyboard-response","346","294205","0.0-3.0-6.0-1.0-2.69","5fc44569444cef8809245f94","6662009ae78f21dd82fcd179","666209e1e4bde838531ff5fa","null","","null","","","","","","","","./tasks/HMM-beads/Images/WhiteBeadChoiceCorrect.png","","","","","","","","","",""
"image-keyboard-response","347","294645","0.0-3.0-6.0-1.0-0.70","5fc44569444cef8809245f94","6662009ae78f21dd82fcd179","666209e1e4bde838531ff5fa","439","","j","","","","","","","","./tasks/HMM-beads/Images/NewTrialWC.png","lowH","1","70","0","1","1","1","true","",""
"image-keyboard-response","348","294959","0.0-3.0-6.0-1.0-1.70","5fc44569444cef8809245f94","6662009ae78f21dd82fcd179","666209e1e4bde838531ff5fa","null","","null","","","","","","","","./tasks/HMM-beads/Images/WhiteBeadChoice.png","","","","","","","","","",""
"image-keyboard-response","349","295461","0.0-3.0-6.0-1.0-2.70","5fc44569444cef8809245f94","6662009ae78f21dd82fcd179","666209e1e4bde838531ff5fa","null","","null","","","","","","","","./tasks/HMM-beads/Images/WhiteBeadChoiceCorrect.png","","","","","","","","","",""
"image-keyboard-response","350","295754","0.0-3.0-6.0-1.0-0.71","5fc44569444cef8809245f94","6662009ae78f21dd82fcd179","666209e1e4bde838531ff5fa","292","","j","","","","","","","","./tasks/HMM-beads/Images/NewTrialWC.png","lowH","1","71","0","0","1","1","false","",""
"image-keyboard-response","351","296057","0.0-3.0-6.0-1.0-1.71","5fc44569444cef8809245f94","6662009ae78f21dd82fcd179","666209e1e4bde838531ff5fa","null","","null","","","","","","","","./tasks/HMM-beads/Images/WhiteBeadChoice.png","","","","","","","","","",""
"image-keyboard-response","352","296571","0.0-3.0-6.0-1.0-2.71","5fc44569444cef8809245f94","6662009ae78f21dd82fcd179","666209e1e4bde838531ff5fa","null","","null","","","","","","","","./tasks/HMM-beads/Images/WhiteBeadChoiceWrong.png","","","","","","","","","",""
"image-keyboard-response","353","297150","0.0-3.0-6.0-1.0-0.72","5fc44569444cef8809245f94","6662009ae78f21dd82fcd179","666209e1e4bde838531ff5fa","577","","f","","","","","","","","./tasks/HMM-beads/Images/NewTrialBC.png","lowH","1","72","0","0","0","0","true","",""
"image-keyboard-response","354","297464","0.0-3.0-6.0-1.0-1.72","5fc44569444cef8809245f94","6662009ae78f21dd82fcd179","666209e1e4bde838531ff5fa","null","","null","","","","","","","","./tasks/HMM-beads/Images/BlackBeadChoice.png","","","","","","","","","",""
"image-keyboard-response","355","297980","0.0-3.0-6.0-1.0-2.72","5fc44569444cef8809245f94","6662009ae78f21dd82fcd179","666209e1e4bde838531ff5fa","null","","null","","","","","","","","./tasks/HMM-beads/Images/BlackBeadChoiceCorrect.png","","","","","","","","","",""
"image-keyboard-response","356","298264","0.0-3.0-6.0-1.0-0.73","5fc44569444cef8809245f94","6662009ae78f21dd82fcd179","666209e1e4bde838531ff5fa","283","","f","","","","","","","","./tasks/HMM-beads/Images/NewTrialBC.png","lowH","1","73","0","1","0","0","false","",""
"image-keyboard-response","357","298571","0.0-3.0-6.0-1.0-1.73","5fc44569444cef8809245f94","6662009ae78f21dd82fcd179","666209e1e4bde838531ff5fa","null","","null","","","","","","","","./tasks/HMM-beads/Images/BlackBeadChoice.png","","","","","","","","","",""
"image-keyboard-response","358","299085","0.0-3.0-6.0-1.0-2.73","5fc44569444cef8809245f94","6662009ae78f21dd82fcd179","666209e1e4bde838531ff5fa","null","","null","","","","","","","","./tasks/HMM-beads/Images/BlackBeadChoiceWrong.png","","","","","","","","","",""
"image-keyboard-response","359","299424","0.0-3.0-6.0-1.0-0.74","5fc44569444cef8809245f94","6662009ae78f21dd82fcd179","666209e1e4bde838531ff5fa","338","","j","","","","","","","","./tasks/HMM-beads/Images/NewTrialWC.png","lowH","1","74","0","0","1","1","false","",""
"image-keyboard-response","360","299726","0.0-3.0-6.0-1.0-1.74","5fc44569444cef8809245f94","6662009ae78f21dd82fcd179","666209e1e4bde838531ff5fa","null","","null","","","","","","","","./tasks/HMM-beads/Images/WhiteBeadChoice.png","","","","","","","","","",""
"image-keyboard-response","361","300239","0.0-3.0-6.0-1.0-2.74","5fc44569444cef8809245f94","6662009ae78f21dd82fcd179","666209e1e4bde838531ff5fa","null","","null","","","","","","","","./tasks/HMM-beads/Images/WhiteBeadChoiceWrong.png","","","","","","","","","",""
"image-keyboard-response","362","300384","0.0-3.0-6.0-1.0-0.75","5fc44569444cef8809245f94","6662009ae78f21dd82fcd179","666209e1e4bde838531ff5fa","143","","f","","","","","","","","./tasks/HMM-beads/Images/NewTrialBC.png","lowH","1","75","0","1","0","0","false","",""
"image-keyboard-response","363","300695","0.0-3.0-6.0-1.0-1.75","5fc44569444cef8809245f94","6662009ae78f21dd82fcd179","666209e1e4bde838531ff5fa","null","","null","","","","","","","","./tasks/HMM-beads/Images/BlackBeadChoice.png","","","","","","","","","",""
"image-keyboard-response","364","301209","0.0-3.0-6.0-1.0-2.75","5fc44569444cef8809245f94","6662009ae78f21dd82fcd179","666209e1e4bde838531ff5fa","null","","null","","","","","","","","./tasks/HMM-beads/Images/BlackBeadChoiceWrong.png","","","","","","","","","",""
"image-keyboard-response","365","301302","0.0-3.0-6.0-1.0-0.76","5fc44569444cef8809245f94","6662009ae78f21dd82fcd179","666209e1e4bde838531ff5fa","91","","j","","","","","","","","./tasks/HMM-beads/Images/NewTrialWC.png","lowH","1","76","0","1","1","1","true","",""
"image-keyboard-response","366","301618","0.0-3.0-6.0-1.0-1.76","5fc44569444cef8809245f94","6662009ae78f21dd82fcd179","666209e1e4bde838531ff5fa","null","","null","","","","","","","","./tasks/HMM-beads/Images/WhiteBeadChoice.png","","","","","","","","","",""
"image-keyboard-response","367","302135","0.0-3.0-6.0-1.0-2.76","5fc44569444cef8809245f94","6662009ae78f21dd82fcd179","666209e1e4bde838531ff5fa","null","","null","","","","","","","","./tasks/HMM-beads/Images/WhiteBeadChoiceCorrect.png","","","","","","","","","",""
"image-keyboard-response","368","302208","0.0-3.0-6.0-1.0-0.77","5fc44569444cef8809245f94","6662009ae78f21dd82fcd179","666209e1e4bde838531ff5fa","72","","j","","","","","","","","./tasks/HMM-beads/Images/NewTrialWC.png","lowH","1","77","0","0","1","1","false","",""
"image-keyboard-response","369","302524","0.0-3.0-6.0-1.0-1.77","5fc44569444cef8809245f94","6662009ae78f21dd82fcd179","666209e1e4bde838531ff5fa","null","","null","","","","","","","","./tasks/HMM-beads/Images/WhiteBeadChoice.png","","","","","","","","","",""
"image-keyboard-response","370","303038","0.0-3.0-6.0-1.0-2.77","5fc44569444cef8809245f94","6662009ae78f21dd82fcd179","666209e1e4bde838531ff5fa","null","","null","","","","","","","","./tasks/HMM-beads/Images/WhiteBeadChoiceWrong.png","","","","","","","","","",""
"image-keyboard-response","371","303133","0.0-3.0-6.0-1.0-0.78","5fc44569444cef8809245f94","6662009ae78f21dd82fcd179","666209e1e4bde838531ff5fa","94","","f","","","","","","","","./tasks/HMM-beads/Images/NewTrialBC.png","lowH","1","78","0","0","0","0","true","",""
"image-keyboard-response","372","303446","0.0-3.0-6.0-1.0-1.78","5fc44569444cef8809245f94","6662009ae78f21dd82fcd179","666209e1e4bde838531ff5fa","null","","null","","","","","","","","./tasks/HMM-beads/Images/BlackBeadChoice.png","","","","","","","","","",""
"image-keyboard-response","373","303961","0.0-3.0-6.0-1.0-2.78","5fc44569444cef8809245f94","6662009ae78f21dd82fcd179","666209e1e4bde838531ff5fa","null","","null","","","","","","","","./tasks/HMM-beads/Images/BlackBeadChoiceCorrect.png","","","","","","","","","",""
"image-keyboard-response","374","303969","0.0-3.0-6.0-1.0-0.79","5fc44569444cef8809245f94","6662009ae78f21dd82fcd179","666209e1e4bde838531ff5fa","7","","f","","","","","","","","./tasks/HMM-beads/Images/NewTrialBC.png","lowH","1","79","0","0","0","0","true","",""
