"trial_type","trial_index","time_elapsed","internal_node_id","subject_id","study_id","session_id","rt","url","response","question_order","view_history","success","timeout","failed_images","failed_audio","failed_video","stimulus","block","block_rep","trial_number","jar","bead","previous_bead","choice","correct","lowH_score","total_bonus"
"pavlovia","0","2438","0.0-0.0","5bc32eb1518d030001358396","6662009ae78f21dd82fcd179","66620d75eb46cbfbd2bec3b4","","","","","","","","","","","","","","","","","","","","",""
"external-html","1","57636","0.0-1.0-0.0","5bc32eb1518d030001358396","6662009ae78f21dd82fcd179","66620d75eb46cbfbd2bec3b4","54909","new_consent.html","","","","","","","","","","","","","","","","","","",""
"survey-multi-choice","2","159374","0.0-1.0-1.0","5bc32eb1518d030001358396","6662009ae78f21dd82fcd179","66620d75eb46cbfbd2bec3b4","101735","","{""Q0"":""Male"",""Q1"":""White""}","[0,1]","","","","","","","","","","","","","","","","",""
"survey-text","3","162939","0.0-1.0-2.0","5bc32eb1518d030001358396","6662009ae78f21dd82fcd179","66620d75eb46cbfbd2bec3b4","3558","","{""Q0"":""39""}","","","","","","","","","","","","","","","","","",""
"instructions","4","169859","0.0-2.0","5bc32eb1518d030001358396","6662009ae78f21dd82fcd179","66620d75eb46cbfbd2bec3b4","6810","","","","[{""page_index"":0,""viewing_time"":6810}]","","","","","","","","","","","","","","","",""
"preload","5","174990","0.0-3.0-0.0","5bc32eb1518d030001358396","6662009ae78f21dd82fcd179","66620d75eb46cbfbd2bec3b4","","","","","","true","false","[]","[]","[]","","","","","","","","","","",""
"instructions","6","573064","0.0-3.0-1.0","5bc32eb1518d030001358396","6662009ae78f21dd82fcd179","66620d75eb46cbfbd2bec3b4","398074","","","","[{""page_index"":0,""viewing_time"":25024},{""page_index"":1,""viewing_time"":20020},{""page_index"":2,""viewing_time"":12447},{""page_index"":3,""viewing_time"":13356},{""page_index"":4,""viewing_time"":12517},{""page_index"":5,""viewing_time"":61701},{""page_index"":6,""viewing_time"":20734},{""page_index"":7,""viewing_time"":12184},{""page_index"":8,""viewing_time"":15110},{""page_index"":9,""viewing_time"":12830},{""page_index"":10,""viewing_time"":167286},{""page_index"":11,""viewing_time"":24865}]","","","","","","","","","","","","","","","",""
"html-button-response","7","612977","0.0-3.0-2.0-0.0-0.0","5bc32eb1518d030001358396","6662009ae78f21dd82fcd179","66620d75eb46cbfbd2bec3b4","39910","","1","","","","","","","","<div align=center>Your goal is to predict…?<br><br></div>","","","","","","","","","",""
"html-button-response","8","680612","0.0-3.0-2.0-1.0-0.0","5bc32eb1518d030001358396","6662009ae78f21dd82fcd179","66620d75eb46cbfbd2bec3b4","66057","","2","","","","","","","","<div align=center>In the jar with mostly white beads, there are ___% white beads and ___% black beads?<br><br></div>","","","","","","","","","",""
"html-button-response","9","699741","0.0-3.0-2.0-2.0-0.0","5bc32eb1518d030001358396","6662009ae78f21dd82fcd179","66620d75eb46cbfbd2bec3b4","17731","","0","","","","","","","","<div align=center>When there is a 1% probability that the jars will switch, the next bead will most likely be drawn from the…<br><br></div>","","","","","","","","","",""
"html-button-response","10","717007","0.0-3.0-2.0-3.0-0.0","5bc32eb1518d030001358396","6662009ae78f21dd82fcd179","66620d75eb46cbfbd2bec3b4","15595","","1","","","","","","","","<div align=center>When there is a 99% probability that the jars will switch, the next bead will most likely be drawn from the…<br><br></div>","","","","","","","","","",""
"instructions","11","763767","0.0-3.0-3.0","5bc32eb1518d030001358396","6662009ae78f21dd82fcd179","66620d75eb46cbfbd2bec3b4","45475","","","","[{""page_index"":0,""viewing_time"":45474}]","","","","","","","","","","","","","","","",""
"html-keyboard-response","12","790086","0.0-3.0-4.0-0.0","5bc32eb1518d030001358396","6662009ae78f21dd82fcd179","66620d75eb46cbfbd2bec3b4","26317",""," ","","","","","","","","<div align=center>In this practice block, there will be a <b>1% chance</b> that the jar on the next trial will be different from the jar on the current trial.<br><br></div>","","","","","","","","","",""
"image-keyboard-response","13","795030","0.0-3.0-4.0-1.0-0.0","5bc32eb1518d030001358396","6662009ae78f21dd82fcd179","66620d75eb46cbfbd2bec3b4","4924","","f","","","","","","","","./tasks/HMM-beads/Images/NoChoice.png","practice","0","0","0","0","9","0","true","",""
"image-keyboard-response","14","795339","0.0-3.0-4.0-1.0-1.0","5bc32eb1518d030001358396","6662009ae78f21dd82fcd179","66620d75eb46cbfbd2bec3b4","null","","null","","","","","","","","./tasks/HMM-beads/Images/BlackBeadChoice.png","","","","","","","","","",""
"image-keyboard-response","15","795856","0.0-3.0-4.0-1.0-2.0","5bc32eb1518d030001358396","6662009ae78f21dd82fcd179","66620d75eb46cbfbd2bec3b4","null","","null","","","","","","","","./tasks/HMM-beads/Images/BlackBeadChoiceCorrect.png","","","","","","","","","",""
"image-keyboard-response","16","803432","0.0-3.0-4.0-1.0-0.1","5bc32eb1518d030001358396","6662009ae78f21dd82fcd179","66620d75eb46cbfbd2bec3b4","7573","","f","","","","","","","","./tasks/HMM-beads/Images/NewTrialBC.png","practice","0","1","0","0","0","0","true","",""
"image-keyboard-response","17","803738","0.0-3.0-4.0-1.0-1.1","5bc32eb1518d030001358396","6662009ae78f21dd82fcd179","66620d75eb46cbfbd2bec3b4","null","","null","","","","","","","","./tasks/HMM-beads/Images/BlackBeadChoice.png","","","","","","","","","",""
"image-keyboard-response","18","804250","0.0-3.0-4.0-1.0-2.1","5bc32eb1518d030001358396","6662009ae78f21dd82fcd179","66620d75eb46cbfbd2bec3b4","null","","null","","","","","","","","./tasks/HMM-beads/Images/BlackBeadChoiceCorrect.png","","","","","","","","","",""
"image-keyboard-response","19","806578","0.0-3.0-4.0-1.0-0.2","5bc32eb1518d030001358396","6662009ae78f21dd82fcd179","66620d75eb46cbfbd2bec3b4","2324","","f","","","","","","","","./tasks/HMM-beads/Images/NewTrialBC.png","practice","0","2","0","1","0","0","false","",""
"image-keyboard-response","20","806890","0.0-3.0-4.0-1.0-1.2","5bc32eb1518d030001358396","6662009ae78f21dd82fcd179","66620d75eb46cbfbd2bec3b4","null","","null","","","","","","","","./tasks/HMM-beads/Images/BlackBeadChoice.png","","","","","","","","","",""
"image-keyboard-response","21","807402","0.0-3.0-4.0-1.0-2.2","5bc32eb1518d030001358396","6662009ae78f21dd82fcd179","66620d75eb46cbfbd2bec3b4","null","","null","","","","","","","","./tasks/HMM-beads/Images/BlackBeadChoiceWrong.png","","","","","","","","","",""
"image-keyboard-response","22","808688","0.0-3.0-4.0-1.0-0.3","5bc32eb1518d030001358396","6662009ae78f21dd82fcd179","66620d75eb46cbfbd2bec3b4","1282","","j","","","","","","","","./tasks/HMM-beads/Images/NewTrialWC.png","practice","0","3","0","0","1","1","false","",""
"image-keyboard-response","23","809007","0.0-3.0-4.0-1.0-1.3","5bc32eb1518d030001358396","6662009ae78f21dd82fcd179","66620d75eb46cbfbd2bec3b4","null","","null","","","","","","","","./tasks/HMM-beads/Images/WhiteBeadChoice.png","","","","","","","","","",""
"image-keyboard-response","24","809518","0.0-3.0-4.0-1.0-2.3","5bc32eb1518d030001358396","6662009ae78f21dd82fcd179","66620d75eb46cbfbd2bec3b4","null","","null","","","","","","","","./tasks/HMM-beads/Images/WhiteBeadChoiceWrong.png","","","","","","","","","",""
"image-keyboard-response","25","812989","0.0-3.0-4.0-1.0-0.4","5bc32eb1518d030001358396","6662009ae78f21dd82fcd179","66620d75eb46cbfbd2bec3b4","3466","","f","","","","","","","","./tasks/HMM-beads/Images/NewTrialBC.png","practice","0","4","0","0","0","0","true","",""
"image-keyboard-response","26","813297","0.0-3.0-4.0-1.0-1.4","5bc32eb1518d030001358396","6662009ae78f21dd82fcd179","66620d75eb46cbfbd2bec3b4","null","","null","","","","","","","","./tasks/HMM-beads/Images/BlackBeadChoice.png","","","","","","","","","",""
"image-keyboard-response","27","813814","0.0-3.0-4.0-1.0-2.4","5bc32eb1518d030001358396","6662009ae78f21dd82fcd179","66620d75eb46cbfbd2bec3b4","null","","null","","","","","","","","./tasks/HMM-beads/Images/BlackBeadChoiceCorrect.png","","","","","","","","","",""
"image-keyboard-response","28","817405","0.0-3.0-4.0-1.0-0.5","5bc32eb1518d030001358396","6662009ae78f21dd82fcd179","66620d75eb46cbfbd2bec3b4","3588","","f","","","","","","","","./tasks/HMM-beads/Images/NewTrialBC.png","practice","0","5","0","1","0","0","false","",""
"image-keyboard-response","29","817718","0.0-3.0-4.0-1.0-1.5","5bc32eb1518d030001358396","6662009ae78f21dd82fcd179","66620d75eb46cbfbd2bec3b4","null","","null","","","","","","","","./tasks/HMM-beads/Images/BlackBeadChoice.png","","","","","","","","","",""
"image-keyboard-response","30","818233","0.0-3.0-4.0-1.0-2.5","5bc32eb1518d030001358396","6662009ae78f21dd82fcd179","66620d75eb46cbfbd2bec3b4","null","","null","","","","","","","","./tasks/HMM-beads/Images/BlackBeadChoiceWrong.png","","","","","","","","","",""
"image-keyboard-response","31","821426","0.0-3.0-4.0-1.0-0.6","5bc32eb1518d030001358396","6662009ae78f21dd82fcd179","66620d75eb46cbfbd2bec3b4","3188","","f","","","","","","","","./tasks/HMM-beads/Images/NewTrialWC.png","practice","0","6","0","0","1","0","true","",""
"image-keyboard-response","32","821735","0.0-3.0-4.0-1.0-1.6","5bc32eb1518d030001358396","6662009ae78f21dd82fcd179","66620d75eb46cbfbd2bec3b4","null","","null","","","","","","","","./tasks/HMM-beads/Images/BlackBeadChoice.png","","","","","","","","","",""
"image-keyboard-response","33","822249","0.0-3.0-4.0-1.0-2.6","5bc32eb1518d030001358396","6662009ae78f21dd82fcd179","66620d75eb46cbfbd2bec3b4","null","","null","","","","","","","","./tasks/HMM-beads/Images/BlackBeadChoiceCorrect.png","","","","","","","","","",""
"image-keyboard-response","34","825326","0.0-3.0-4.0-1.0-0.7","5bc32eb1518d030001358396","6662009ae78f21dd82fcd179","66620d75eb46cbfbd2bec3b4","3073","","j","","","","","","","","./tasks/HMM-beads/Images/NewTrialBC.png","practice","0","7","0","0","0","1","false","",""
"image-keyboard-response","35","825637","0.0-3.0-4.0-1.0-1.7","5bc32eb1518d030001358396","6662009ae78f21dd82fcd179","66620d75eb46cbfbd2bec3b4","null","","null","","","","","","","","./tasks/HMM-beads/Images/WhiteBeadChoice.png","","","","","","","","","",""
"image-keyboard-response","36","826149","0.0-3.0-4.0-1.0-2.7","5bc32eb1518d030001358396","6662009ae78f21dd82fcd179","66620d75eb46cbfbd2bec3b4","null","","null","","","","","","","","./tasks/HMM-beads/Images/WhiteBeadChoiceWrong.png","","","","","","","","","",""
"image-keyboard-response","37","828324","0.0-3.0-4.0-1.0-0.8","5bc32eb1518d030001358396","6662009ae78f21dd82fcd179","66620d75eb46cbfbd2bec3b4","2171","","f","","","","","","","","./tasks/HMM-beads/Images/NewTrialBC.png","practice","0","8","0","0","0","0","true","",""
"image-keyboard-response","38","828639","0.0-3.0-4.0-1.0-1.8","5bc32eb1518d030001358396","6662009ae78f21dd82fcd179","66620d75eb46cbfbd2bec3b4","null","","null","","","","","","","","./tasks/HMM-beads/Images/BlackBeadChoice.png","","","","","","","","","",""
"image-keyboard-response","39","829144","0.0-3.0-4.0-1.0-2.8","5bc32eb1518d030001358396","6662009ae78f21dd82fcd179","66620d75eb46cbfbd2bec3b4","null","","null","","","","","","","","./tasks/HMM-beads/Images/BlackBeadChoiceCorrect.png","","","","","","","","","",""
"image-keyboard-response","40","830966","0.0-3.0-4.0-1.0-0.9","5bc32eb1518d030001358396","6662009ae78f21dd82fcd179","66620d75eb46cbfbd2bec3b4","1816","","f","","","","","","","","./tasks/HMM-beads/Images/NewTrialBC.png","practice","0","9","0","1","0","0","false","",""
"image-keyboard-response","41","831270","0.0-3.0-4.0-1.0-1.9","5bc32eb1518d030001358396","6662009ae78f21dd82fcd179","66620d75eb46cbfbd2bec3b4","null","","null","","","","","","","","./tasks/HMM-beads/Images/BlackBeadChoice.png","","","","","","","","","",""
"image-keyboard-response","42","831773","0.0-3.0-4.0-1.0-2.9","5bc32eb1518d030001358396","6662009ae78f21dd82fcd179","66620d75eb46cbfbd2bec3b4","null","","null","","","","","","","","./tasks/HMM-beads/Images/BlackBeadChoiceWrong.png","","","","","","","","","",""
"image-keyboard-response","43","832959","0.0-3.0-4.0-1.0-0.10","5bc32eb1518d030001358396","6662009ae78f21dd82fcd179","66620d75eb46cbfbd2bec3b4","1183","","j","","","","","","","","./tasks/HMM-beads/Images/NewTrialWC.png","practice","0","10","0","0","1","1","false","",""
"image-keyboard-response","44","833266","0.0-3.0-4.0-1.0-1.10","5bc32eb1518d030001358396","6662009ae78f21dd82fcd179","66620d75eb46cbfbd2bec3b4","null","","null","","","","","","","","./tasks/HMM-beads/Images/WhiteBeadChoice.png","","","","","","","","","",""
"image-keyboard-response","45","833783","0.0-3.0-4.0-1.0-2.10","5bc32eb1518d030001358396","6662009ae78f21dd82fcd179","66620d75eb46cbfbd2bec3b4","null","","null","","","","","","","","./tasks/HMM-beads/Images/WhiteBeadChoiceWrong.png","","","","","","","","","",""
"image-keyboard-response","46","835261","0.0-3.0-4.0-1.0-0.11","5bc32eb1518d030001358396","6662009ae78f21dd82fcd179","66620d75eb46cbfbd2bec3b4","1474","","f","","","","","","","","./tasks/HMM-beads/Images/NewTrialBC.png","practice","0","11","0","1","0","0","false","",""
"image-keyboard-response","47","835572","0.0-3.0-4.0-1.0-1.11","5bc32eb1518d030001358396","6662009ae78f21dd82fcd179","66620d75eb46cbfbd2bec3b4","null","","null","","","","","","","","./tasks/HMM-beads/Images/BlackBeadChoice.png","","","","","","","","","",""
"image-keyboard-response","48","836087","0.0-3.0-4.0-1.0-2.11","5bc32eb1518d030001358396","6662009ae78f21dd82fcd179","66620d75eb46cbfbd2bec3b4","null","","null","","","","","","","","./tasks/HMM-beads/Images/BlackBeadChoiceWrong.png","","","","","","","","","",""
"image-keyboard-response","49","838800","0.0-3.0-4.0-1.0-0.12","5bc32eb1518d030001358396","6662009ae78f21dd82fcd179","66620d75eb46cbfbd2bec3b4","2709","","j","","","","","","","","./tasks/HMM-beads/Images/NewTrialWC.png","practice","0","12","0","0","1","1","false","",""
"image-keyboard-response","50","839116","0.0-3.0-4.0-1.0-1.12","5bc32eb1518d030001358396","6662009ae78f21dd82fcd179","66620d75eb46cbfbd2bec3b4","null","","null","","","","","","","","./tasks/HMM-beads/Images/WhiteBeadChoice.png","","","","","","","","","",""
"image-keyboard-response","51","839631","0.0-3.0-4.0-1.0-2.12","5bc32eb1518d030001358396","6662009ae78f21dd82fcd179","66620d75eb46cbfbd2bec3b4","null","","null","","","","","","","","./tasks/HMM-beads/Images/WhiteBeadChoiceWrong.png","","","","","","","","","",""
"image-keyboard-response","52","841697","0.0-3.0-4.0-1.0-0.13","5bc32eb1518d030001358396","6662009ae78f21dd82fcd179","66620d75eb46cbfbd2bec3b4","2061","","f","","","","","","","","./tasks/HMM-beads/Images/NewTrialBC.png","practice","0","13","0","0","0","0","true","",""
"image-keyboard-response","53","842005","0.0-3.0-4.0-1.0-1.13","5bc32eb1518d030001358396","6662009ae78f21dd82fcd179","66620d75eb46cbfbd2bec3b4","null","","null","","","","","","","","./tasks/HMM-beads/Images/BlackBeadChoice.png","","","","","","","","","",""
"image-keyboard-response","54","842509","0.0-3.0-4.0-1.0-2.13","5bc32eb1518d030001358396","6662009ae78f21dd82fcd179","66620d75eb46cbfbd2bec3b4","null","","null","","","","","","","","./tasks/HMM-beads/Images/BlackBeadChoiceCorrect.png","","","","","","","","","",""
"image-keyboard-response","55","845108","0.0-3.0-4.0-1.0-0.14","5bc32eb1518d030001358396","6662009ae78f21dd82fcd179","66620d75eb46cbfbd2bec3b4","2595","","f","","","","","","","","./tasks/HMM-beads/Images/NewTrialBC.png","practice","0","14","0","0","0","0","true","",""
"image-keyboard-response","56","845414","0.0-3.0-4.0-1.0-1.14","5bc32eb1518d030001358396","6662009ae78f21dd82fcd179","66620d75eb46cbfbd2bec3b4","null","","null","","","","","","","","./tasks/HMM-beads/Images/BlackBeadChoice.png","","","","","","","","","",""
"image-keyboard-response","57","845927","0.0-3.0-4.0-1.0-2.14","5bc32eb1518d030001358396","6662009ae78f21dd82fcd179","66620d75eb46cbfbd2bec3b4","null","","null","","","","","","","","./tasks/HMM-beads/Images/BlackBeadChoiceCorrect.png","","","","","","","","","",""
"image-keyboard-response","58","847914","0.0-3.0-4.0-1.0-0.15","5bc32eb1518d030001358396","6662009ae78f21dd82fcd179","66620d75eb46cbfbd2bec3b4","1985","","f","","","","","","","","./tasks/HMM-beads/Images/NewTrialBC.png","practice","0","15","0","0","0","0","true","",""
"image-keyboard-response","59","848217","0.0-3.0-4.0-1.0-1.15","5bc32eb1518d030001358396","6662009ae78f21dd82fcd179","66620d75eb46cbfbd2bec3b4","null","","null","","","","","","","","./tasks/HMM-beads/Images/BlackBeadChoice.png","","","","","","","","","",""
"image-keyboard-response","60","848725","0.0-3.0-4.0-1.0-2.15","5bc32eb1518d030001358396","6662009ae78f21dd82fcd179","66620d75eb46cbfbd2bec3b4","null","","null","","","","","","","","./tasks/HMM-beads/Images/BlackBeadChoiceCorrect.png","","","","","","","","","",""
"image-keyboard-response","61","850699","0.0-3.0-4.0-1.0-0.16","5bc32eb1518d030001358396","6662009ae78f21dd82fcd179","66620d75eb46cbfbd2bec3b4","1969","","f","","","","","","","","./tasks/HMM-beads/Images/NewTrialBC.png","practice","0","16","0","0","0","0","true","",""
"image-keyboard-response","62","851012","0.0-3.0-4.0-1.0-1.16","5bc32eb1518d030001358396","6662009ae78f21dd82fcd179","66620d75eb46cbfbd2bec3b4","null","","null","","","","","","","","./tasks/HMM-beads/Images/BlackBeadChoice.png","","","","","","","","","",""
"image-keyboard-response","63","851523","0.0-3.0-4.0-1.0-2.16","5bc32eb1518d030001358396","6662009ae78f21dd82fcd179","66620d75eb46cbfbd2bec3b4","null","","null","","","","","","","","./tasks/HMM-beads/Images/BlackBeadChoiceCorrect.png","","","","","","","","","",""
"image-keyboard-response","64","853049","0.0-3.0-4.0-1.0-0.17","5bc32eb1518d030001358396","6662009ae78f21dd82fcd179","66620d75eb46cbfbd2bec3b4","1521","","f","","","","","","","","./tasks/HMM-beads/Images/NewTrialBC.png","practice","0","17","0","0","0","0","true","",""
"image-keyboard-response","65","853368","0.0-3.0-4.0-1.0-1.17","5bc32eb1518d030001358396","6662009ae78f21dd82fcd179","66620d75eb46cbfbd2bec3b4","null","","null","","","","","","","","./tasks/HMM-beads/Images/BlackBeadChoice.png","","","","","","","","","",""
"image-keyboard-response","66","853871","0.0-3.0-4.0-1.0-2.17","5bc32eb1518d030001358396","6662009ae78f21dd82fcd179","66620d75eb46cbfbd2bec3b4","null","","null","","","","","","","","./tasks/HMM-beads/Images/BlackBeadChoiceCorrect.png","","","","","","","","","",""
"image-keyboard-response","67","855872","0.0-3.0-4.0-1.0-0.18","5bc32eb1518d030001358396","6662009ae78f21dd82fcd179","66620d75eb46cbfbd2bec3b4","1997","","j","","","","","","","","./tasks/HMM-beads/Images/NewTrialBC.png","practice","0","18","0","1","0","1","true","",""
"image-keyboard-response","68","856186","0.0-3.0-4.0-1.0-1.18","5bc32eb1518d030001358396","6662009ae78f21dd82fcd179","66620d75eb46cbfbd2bec3b4","null","","null","","","","","","","","./tasks/HMM-beads/Images/WhiteBeadChoice.png","","","","","","","","","",""
"image-keyboard-response","69","856692","0.0-3.0-4.0-1.0-2.18","5bc32eb1518d030001358396","6662009ae78f21dd82fcd179","66620d75eb46cbfbd2bec3b4","null","","null","","","","","","","","./tasks/HMM-beads/Images/WhiteBeadChoiceCorrect.png","","","","","","","","","",""
"image-keyboard-response","70","859170","0.0-3.0-4.0-1.0-0.19","5bc32eb1518d030001358396","6662009ae78f21dd82fcd179","66620d75eb46cbfbd2bec3b4","2475","","f","","","","","","","","./tasks/HMM-beads/Images/NewTrialWC.png","practice","0","19","0","0","1","0","true","",""
"image-keyboard-response","71","859476","0.0-3.0-4.0-1.0-1.19","5bc32eb1518d030001358396","6662009ae78f21dd82fcd179","66620d75eb46cbfbd2bec3b4","null","","null","","","","","","","","./tasks/HMM-beads/Images/BlackBeadChoice.png","","","","","","","","","",""
"image-keyboard-response","72","859980","0.0-3.0-4.0-1.0-2.19","5bc32eb1518d030001358396","6662009ae78f21dd82fcd179","66620d75eb46cbfbd2bec3b4","null","","null","","","","","","","","./tasks/HMM-beads/Images/BlackBeadChoiceCorrect.png","","","","","","","","","",""
"image-keyboard-response","73","861946","0.0-3.0-4.0-1.0-0.20","5bc32eb1518d030001358396","6662009ae78f21dd82fcd179","66620d75eb46cbfbd2bec3b4","1962","","f","","","","","","","","./tasks/HMM-beads/Images/NewTrialBC.png","practice","0","20","0","0","0","0","true","",""
"image-keyboard-response","74","862253","0.0-3.0-4.0-1.0-1.20","5bc32eb1518d030001358396","6662009ae78f21dd82fcd179","66620d75eb46cbfbd2bec3b4","null","","null","","","","","","","","./tasks/HMM-beads/Images/BlackBeadChoice.png","","","","","","","","","",""
"image-keyboard-response","75","862758","0.0-3.0-4.0-1.0-2.20","5bc32eb1518d030001358396","6662009ae78f21dd82fcd179","66620d75eb46cbfbd2bec3b4","null","","null","","","","","","","","./tasks/HMM-beads/Images/BlackBeadChoiceCorrect.png","","","","","","","","","",""
"image-keyboard-response","76","864377","0.0-3.0-4.0-1.0-0.21","5bc32eb1518d030001358396","6662009ae78f21dd82fcd179","66620d75eb46cbfbd2bec3b4","1615","","f","","","","","","","","./tasks/HMM-beads/Images/NewTrialBC.png","practice","0","21","0","1","0","0","false","",""
"image-keyboard-response","77","864687","0.0-3.0-4.0-1.0-1.21","5bc32eb1518d030001358396","6662009ae78f21dd82fcd179","66620d75eb46cbfbd2bec3b4","null","","null","","","","","","","","./tasks/HMM-beads/Images/BlackBeadChoice.png","","","","","","","","","",""
"image-keyboard-response","78","865199","0.0-3.0-4.0-1.0-2.21","5bc32eb1518d030001358396","6662009ae78f21dd82fcd179","66620d75eb46cbfbd2bec3b4","null","","null","","","","","","","","./tasks/HMM-beads/Images/BlackBeadChoiceWrong.png","","","","","","","","","",""
"image-keyboard-response","79","866635","0.0-3.0-4.0-1.0-0.22","5bc32eb1518d030001358396","6662009ae78f21dd82fcd179","66620d75eb46cbfbd2bec3b4","1434","","f","","","","","","","","./tasks/HMM-beads/Images/NewTrialWC.png","practice","0","22","1","1","1","0","false","",""
"image-keyboard-response","80","866944","0.0-3.0-4.0-1.0-1.22","5bc32eb1518d030001358396","6662009ae78f21dd82fcd179","66620d75eb46cbfbd2bec3b4","null","","null","","","","","","","","./tasks/HMM-beads/Images/BlackBeadChoice.png","","","","","","","","","",""
"image-keyboard-response","81","867449","0.0-3.0-4.0-1.0-2.22","5bc32eb1518d030001358396","6662009ae78f21dd82fcd179","66620d75eb46cbfbd2bec3b4","null","","null","","","","","","","","./tasks/HMM-beads/Images/BlackBeadChoiceWrong.png","","","","","","","","","",""
"image-keyboard-response","82","868170","0.0-3.0-4.0-1.0-0.23","5bc32eb1518d030001358396","6662009ae78f21dd82fcd179","66620d75eb46cbfbd2bec3b4","717","","j","","","","","","","","./tasks/HMM-beads/Images/NewTrialWC.png","practice","0","23","1","0","1","1","false","",""
"image-keyboard-response","83","868481","0.0-3.0-4.0-1.0-1.23","5bc32eb1518d030001358396","6662009ae78f21dd82fcd179","66620d75eb46cbfbd2bec3b4","null","","null","","","","","","","","./tasks/HMM-beads/Images/WhiteBeadChoice.png","","","","","","","","","",""
"image-keyboard-response","84","868987","0.0-3.0-4.0-1.0-2.23","5bc32eb1518d030001358396","6662009ae78f21dd82fcd179","66620d75eb46cbfbd2bec3b4","null","","null","","","","","","","","./tasks/HMM-beads/Images/WhiteBeadChoiceWrong.png","","","","","","","","","",""
"image-keyboard-response","85","870137","0.0-3.0-4.0-1.0-0.24","5bc32eb1518d030001358396","6662009ae78f21dd82fcd179","66620d75eb46cbfbd2bec3b4","1148","","f","","","","","","","","./tasks/HMM-beads/Images/NewTrialBC.png","practice","0","24","1","1","0","0","false","",""
"image-keyboard-response","86","870450","0.0-3.0-4.0-1.0-1.24","5bc32eb1518d030001358396","6662009ae78f21dd82fcd179","66620d75eb46cbfbd2bec3b4","null","","null","","","","","","","","./tasks/HMM-beads/Images/BlackBeadChoice.png","","","","","","","","","",""
"image-keyboard-response","87","870959","0.0-3.0-4.0-1.0-2.24","5bc32eb1518d030001358396","6662009ae78f21dd82fcd179","66620d75eb46cbfbd2bec3b4","null","","null","","","","","","","","./tasks/HMM-beads/Images/BlackBeadChoiceWrong.png","","","","","","","","","",""
"image-keyboard-response","88","872641","0.0-3.0-4.0-1.0-0.25","5bc32eb1518d030001358396","6662009ae78f21dd82fcd179","66620d75eb46cbfbd2bec3b4","1678","","f","","","","","","","","./tasks/HMM-beads/Images/NewTrialWC.png","practice","0","25","1","1","1","0","false","",""
"image-keyboard-response","89","872949","0.0-3.0-4.0-1.0-1.25","5bc32eb1518d030001358396","6662009ae78f21dd82fcd179","66620d75eb46cbfbd2bec3b4","null","","null","","","","","","","","./tasks/HMM-beads/Images/BlackBeadChoice.png","","","","","","","","","",""
"image-keyboard-response","90","873478","0.0-3.0-4.0-1.0-2.25","5bc32eb1518d030001358396","6662009ae78f21dd82fcd179","66620d75eb46cbfbd2bec3b4","null","","null","","","","","","","","./tasks/HMM-beads/Images/BlackBeadChoiceWrong.png","","","","","","","","","",""
"image-keyboard-response","91","874962","0.0-3.0-4.0-1.0-0.26","5bc32eb1518d030001358396","6662009ae78f21dd82fcd179","66620d75eb46cbfbd2bec3b4","1479","","f","","","","","","","","./tasks/HMM-beads/Images/NewTrialWC.png","practice","0","26","1","1","1","0","false","",""
"image-keyboard-response","92","875265","0.0-3.0-4.0-1.0-1.26","5bc32eb1518d030001358396","6662009ae78f21dd82fcd179","66620d75eb46cbfbd2bec3b4","null","","null","","","","","","","","./tasks/HMM-beads/Images/BlackBeadChoice.png","","","","","","","","","",""
"image-keyboard-response","93","875775","0.0-3.0-4.0-1.0-2.26","5bc32eb1518d030001358396","6662009ae78f21dd82fcd179","66620d75eb46cbfbd2bec3b4","null","","null","","","","","","","","./tasks/HMM-beads/Images/BlackBeadChoiceWrong.png","","","","","","","","","",""
"image-keyboard-response","94","876598","0.0-3.0-4.0-1.0-0.27","5bc32eb1518d030001358396","6662009ae78f21dd82fcd179","66620d75eb46cbfbd2bec3b4","822","","j","","","","","","","","./tasks/HMM-beads/Images/NewTrialWC.png","practice","0","27","1","1","1","1","true","",""
"image-keyboard-response","95","876908","0.0-3.0-4.0-1.0-1.27","5bc32eb1518d030001358396","6662009ae78f21dd82fcd179","66620d75eb46cbfbd2bec3b4","null","","null","","","","","","","","./tasks/HMM-beads/Images/WhiteBeadChoice.png","","","","","","","","","",""
"image-keyboard-response","96","877417","0.0-3.0-4.0-1.0-2.27","5bc32eb1518d030001358396","6662009ae78f21dd82fcd179","66620d75eb46cbfbd2bec3b4","null","","null","","","","","","","","./tasks/HMM-beads/Images/WhiteBeadChoiceCorrect.png","","","","","","","","","",""
"image-keyboard-response","97","878651","0.0-3.0-4.0-1.0-0.28","5bc32eb1518d030001358396","6662009ae78f21dd82fcd179","66620d75eb46cbfbd2bec3b4","1232","","j","","","","","","","","./tasks/HMM-beads/Images/NewTrialWC.png","practice","0","28","1","0","1","1","false","",""
"image-keyboard-response","98","878966","0.0-3.0-4.0-1.0-1.28","5bc32eb1518d030001358396","6662009ae78f21dd82fcd179","66620d75eb46cbfbd2bec3b4","null","","null","","","","","","","","./tasks/HMM-beads/Images/WhiteBeadChoice.png","","","","","","","","","",""
"image-keyboard-response","99","879470","0.0-3.0-4.0-1.0-2.28","5bc32eb1518d030001358396","6662009ae78f21dd82fcd179","66620d75eb46cbfbd2bec3b4","null","","null","","","","","","","","./tasks/HMM-beads/Images/WhiteBeadChoiceWrong.png","","","","","","","","","",""
"image-keyboard-response","100","880659","0.0-3.0-4.0-1.0-0.29","5bc32eb1518d030001358396","6662009ae78f21dd82fcd179","66620d75eb46cbfbd2bec3b4","1187","","j","","","","","","","","./tasks/HMM-beads/Images/NewTrialBC.png","practice","0","29","1","1","0","1","true","",""
"image-keyboard-response","101","880969","0.0-3.0-4.0-1.0-1.29","5bc32eb1518d030001358396","6662009ae78f21dd82fcd179","66620d75eb46cbfbd2bec3b4","null","","null","","","","","","","","./tasks/HMM-beads/Images/WhiteBeadChoice.png","","","","","","","","","",""
"image-keyboard-response","102","881485","0.0-3.0-4.0-1.0-2.29","5bc32eb1518d030001358396","6662009ae78f21dd82fcd179","66620d75eb46cbfbd2bec3b4","null","","null","","","","","","","","./tasks/HMM-beads/Images/WhiteBeadChoiceCorrect.png","","","","","","","","","",""
"image-keyboard-response","103","882913","0.0-3.0-4.0-1.0-0.30","5bc32eb1518d030001358396","6662009ae78f21dd82fcd179","66620d75eb46cbfbd2bec3b4","1425","","f","","","","","","","","./tasks/HMM-beads/Images/NewTrialWC.png","practice","0","30","1","0","1","0","true","",""
"image-keyboard-response","104","883218","0.0-3.0-4.0-1.0-1.30","5bc32eb1518d030001358396","6662009ae78f21dd82fcd179","66620d75eb46cbfbd2bec3b4","null","","null","","","","","","","","./tasks/HMM-beads/Images/BlackBeadChoice.png","","","","","","","","","",""
"image-keyboard-response","105","883723","0.0-3.0-4.0-1.0-2.30","5bc32eb1518d030001358396","6662009ae78f21dd82fcd179","66620d75eb46cbfbd2bec3b4","null","","null","","","","","","","","./tasks/HMM-beads/Images/BlackBeadChoiceCorrect.png","","","","","","","","","",""
"image-keyboard-response","106","885040","0.0-3.0-4.0-1.0-0.31","5bc32eb1518d030001358396","6662009ae78f21dd82fcd179","66620d75eb46cbfbd2bec3b4","1314","","f","","","","","","","","./tasks/HMM-beads/Images/NewTrialBC.png","practice","0","31","1","1","0","0","false","",""
"image-keyboard-response","107","885344","0.0-3.0-4.0-1.0-1.31","5bc32eb1518d030001358396","6662009ae78f21dd82fcd179","66620d75eb46cbfbd2bec3b4","null","","null","","","","","","","","./tasks/HMM-beads/Images/BlackBeadChoice.png","","","","","","","","","",""
"image-keyboard-response","108","885849","0.0-3.0-4.0-1.0-2.31","5bc32eb1518d030001358396","6662009ae78f21dd82fcd179","66620d75eb46cbfbd2bec3b4","null","","null","","","","","","","","./tasks/HMM-beads/Images/BlackBeadChoiceWrong.png","","","","","","","","","",""
"image-keyboard-response","109","886990","0.0-3.0-4.0-1.0-0.32","5bc32eb1518d030001358396","6662009ae78f21dd82fcd179","66620d75eb46cbfbd2bec3b4","1137","","j","","","","","","","","./tasks/HMM-beads/Images/NewTrialWC.png","practice","0","32","1","1","1","1","true","",""
"image-keyboard-response","110","887301","0.0-3.0-4.0-1.0-1.32","5bc32eb1518d030001358396","6662009ae78f21dd82fcd179","66620d75eb46cbfbd2bec3b4","null","","null","","","","","","","","./tasks/HMM-beads/Images/WhiteBeadChoice.png","","","","","","","","","",""
"image-keyboard-response","111","887807","0.0-3.0-4.0-1.0-2.32","5bc32eb1518d030001358396","6662009ae78f21dd82fcd179","66620d75eb46cbfbd2bec3b4","null","","null","","","","","","","","./tasks/HMM-beads/Images/WhiteBeadChoiceCorrect.png","","","","","","","","","",""
"image-keyboard-response","112","889408","0.0-3.0-4.0-1.0-0.33","5bc32eb1518d030001358396","6662009ae78f21dd82fcd179","66620d75eb46cbfbd2bec3b4","1596","","f","","","","","","","","./tasks/HMM-beads/Images/NewTrialWC.png","practice","0","33","1","1","1","0","false","",""
"image-keyboard-response","113","889720","0.0-3.0-4.0-1.0-1.33","5bc32eb1518d030001358396","6662009ae78f21dd82fcd179","66620d75eb46cbfbd2bec3b4","null","","null","","","","","","","","./tasks/HMM-beads/Images/BlackBeadChoice.png","","","","","","","","","",""
"image-keyboard-response","114","890238","0.0-3.0-4.0-1.0-2.33","5bc32eb1518d030001358396","6662009ae78f21dd82fcd179","66620d75eb46cbfbd2bec3b4","null","","null","","","","","","","","./tasks/HMM-beads/Images/BlackBeadChoiceWrong.png","","","","","","","","","",""
"image-keyboard-response","115","891663","0.0-3.0-4.0-1.0-0.34","5bc32eb1518d030001358396","6662009ae78f21dd82fcd179","66620d75eb46cbfbd2bec3b4","1423","","f","","","","","","","","./tasks/HMM-beads/Images/NewTrialWC.png","practice","0","34","1","1","1","0","false","",""
"image-keyboard-response","116","891979","0.0-3.0-4.0-1.0-1.34","5bc32eb1518d030001358396","6662009ae78f21dd82fcd179","66620d75eb46cbfbd2bec3b4","null","","null","","","","","","","","./tasks/HMM-beads/Images/BlackBeadChoice.png","","","","","","","","","",""
"image-keyboard-response","117","892485","0.0-3.0-4.0-1.0-2.34","5bc32eb1518d030001358396","6662009ae78f21dd82fcd179","66620d75eb46cbfbd2bec3b4","null","","null","","","","","","","","./tasks/HMM-beads/Images/BlackBeadChoiceWrong.png","","","","","","","","","",""
"image-keyboard-response","118","893468","0.0-3.0-4.0-1.0-0.35","5bc32eb1518d030001358396","6662009ae78f21dd82fcd179","66620d75eb46cbfbd2bec3b4","979","","j","","","","","","","","./tasks/HMM-beads/Images/NewTrialWC.png","practice","0","35","1","1","1","1","true","",""
"image-keyboard-response","119","893782","0.0-3.0-4.0-1.0-1.35","5bc32eb1518d030001358396","6662009ae78f21dd82fcd179","66620d75eb46cbfbd2bec3b4","null","","null","","","","","","","","./tasks/HMM-beads/Images/WhiteBeadChoice.png","","","","","","","","","",""
"image-keyboard-response","120","894301","0.0-3.0-4.0-1.0-2.35","5bc32eb1518d030001358396","6662009ae78f21dd82fcd179","66620d75eb46cbfbd2bec3b4","null","","null","","","","","","","","./tasks/HMM-beads/Images/WhiteBeadChoiceCorrect.png","","","","","","","","","",""
"image-keyboard-response","121","895650","0.0-3.0-4.0-1.0-0.36","5bc32eb1518d030001358396","6662009ae78f21dd82fcd179","66620d75eb46cbfbd2bec3b4","1345","","j","","","","","","","","./tasks/HMM-beads/Images/NewTrialWC.png","practice","0","36","1","0","1","1","false","",""
"image-keyboard-response","122","895960","0.0-3.0-4.0-1.0-1.36","5bc32eb1518d030001358396","6662009ae78f21dd82fcd179","66620d75eb46cbfbd2bec3b4","null","","null","","","","","","","","./tasks/HMM-beads/Images/WhiteBeadChoice.png","","","","","","","","","",""
"image-keyboard-response","123","896479","0.0-3.0-4.0-1.0-2.36","5bc32eb1518d030001358396","6662009ae78f21dd82fcd179","66620d75eb46cbfbd2bec3b4","null","","null","","","","","","","","./tasks/HMM-beads/Images/WhiteBeadChoiceWrong.png","","","","","","","","","",""
"image-keyboard-response","124","897152","0.0-3.0-4.0-1.0-0.37","5bc32eb1518d030001358396","6662009ae78f21dd82fcd179","66620d75eb46cbfbd2bec3b4","669","","f","","","","","","","","./tasks/HMM-beads/Images/NewTrialBC.png","practice","0","37","1","1","0","0","false","",""
"image-keyboard-response","125","897460","0.0-3.0-4.0-1.0-1.37","5bc32eb1518d030001358396","6662009ae78f21dd82fcd179","66620d75eb46cbfbd2bec3b4","null","","null","","","","","","","","./tasks/HMM-beads/Images/BlackBeadChoice.png","","","","","","","","","",""
"image-keyboard-response","126","897966","0.0-3.0-4.0-1.0-2.37","5bc32eb1518d030001358396","6662009ae78f21dd82fcd179","66620d75eb46cbfbd2bec3b4","null","","null","","","","","","","","./tasks/HMM-beads/Images/BlackBeadChoiceWrong.png","","","","","","","","","",""
"image-keyboard-response","127","899626","0.0-3.0-4.0-1.0-0.38","5bc32eb1518d030001358396","6662009ae78f21dd82fcd179","66620d75eb46cbfbd2bec3b4","1658","","f","","","","","","","","./tasks/HMM-beads/Images/NewTrialWC.png","practice","0","38","1","1","1","0","false","",""
"image-keyboard-response","128","899936","0.0-3.0-4.0-1.0-1.38","5bc32eb1518d030001358396","6662009ae78f21dd82fcd179","66620d75eb46cbfbd2bec3b4","null","","null","","","","","","","","./tasks/HMM-beads/Images/BlackBeadChoice.png","","","","","","","","","",""
"image-keyboard-response","129","900447","0.0-3.0-4.0-1.0-2.38","5bc32eb1518d030001358396","6662009ae78f21dd82fcd179","66620d75eb46cbfbd2bec3b4","null","","null","","","","","","","","./tasks/HMM-beads/Images/BlackBeadChoiceWrong.png","","","","","","","","","",""
"image-keyboard-response","130","901690","0.0-3.0-4.0-1.0-0.39","5bc32eb1518d030001358396","6662009ae78f21dd82fcd179","66620d75eb46cbfbd2bec3b4","1239","","f","","","","","","","","./tasks/HMM-beads/Images/NewTrialWC.png","practice","0","39","1","1","1","0","false","",""
"image-keyboard-response","131","901994","0.0-3.0-4.0-1.0-1.39","5bc32eb1518d030001358396","6662009ae78f21dd82fcd179","66620d75eb46cbfbd2bec3b4","null","","null","","","","","","","","./tasks/HMM-beads/Images/BlackBeadChoice.png","","","","","","","","","",""
"image-keyboard-response","132","902501","0.0-3.0-4.0-1.0-2.39","5bc32eb1518d030001358396","6662009ae78f21dd82fcd179","66620d75eb46cbfbd2bec3b4","null","","null","","","","","","","","./tasks/HMM-beads/Images/BlackBeadChoiceWrong.png","","","","","","","","","",""
"html-keyboard-response","133","909605","0.0-3.0-4.0-2.0","5bc32eb1518d030001358396","6662009ae78f21dd82fcd179","66620d75eb46cbfbd2bec3b4","7100",""," ","","","","","","","","","","","","","","","","","",""
"instructions","134","943214","0.0-3.0-5.0","5bc32eb1518d030001358396","6662009ae78f21dd82fcd179","66620d75eb46cbfbd2bec3b4","33608","","","","[{""page_index"":0,""viewing_time"":29976},{""page_index"":1,""viewing_time"":3632}]","","","","","","","","","","","","","","","",""
"html-keyboard-response","135","978370","0.0-3.0-6.0-0.0","5bc32eb1518d030001358396","6662009ae78f21dd82fcd179","66620d75eb46cbfbd2bec3b4","35154",""," ","","","","","","","","<div align=center>In this block, there will be a <b>1% chance</b> that the jar on the next trial will be different from the jar on the current trial.<br><br></div>","","","","","","","","","",""
"image-keyboard-response","136","979667","0.0-3.0-6.0-1.0-0.0","5bc32eb1518d030001358396","6662009ae78f21dd82fcd179","66620d75eb46cbfbd2bec3b4","1292","","f","","","","","","","","./tasks/HMM-beads/Images/NoChoice.png","lowH","1","0","1","0","9","0","true","",""
"image-keyboard-response","137","979975","0.0-3.0-6.0-1.0-1.0","5bc32eb1518d030001358396","6662009ae78f21dd82fcd179","66620d75eb46cbfbd2bec3b4","null","","null","","","","","","","","./tasks/HMM-beads/Images/BlackBeadChoice.png","","","","","","","","","",""
"image-keyboard-response","138","980482","0.0-3.0-6.0-1.0-2.0","5bc32eb1518d030001358396","6662009ae78f21dd82fcd179","66620d75eb46cbfbd2bec3b4","null","","null","","","","","","","","./tasks/HMM-beads/Images/BlackBeadChoiceCorrect.png","","","","","","","","","",""
"image-keyboard-response","139","982013","0.0-3.0-6.0-1.0-0.1","5bc32eb1518d030001358396","6662009ae78f21dd82fcd179","66620d75eb46cbfbd2bec3b4","1528","","f","","","","","","","","./tasks/HMM-beads/Images/NewTrialBC.png","lowH","1","1","1","1","0","0","false","",""
"image-keyboard-response","140","982328","0.0-3.0-6.0-1.0-1.1","5bc32eb1518d030001358396","6662009ae78f21dd82fcd179","66620d75eb46cbfbd2bec3b4","null","","null","","","","","","","","./tasks/HMM-beads/Images/BlackBeadChoice.png","","","","","","","","","",""
"image-keyboard-response","141","982838","0.0-3.0-6.0-1.0-2.1","5bc32eb1518d030001358396","6662009ae78f21dd82fcd179","66620d75eb46cbfbd2bec3b4","null","","null","","","","","","","","./tasks/HMM-beads/Images/BlackBeadChoiceWrong.png","","","","","","","","","",""
"image-keyboard-response","142","983825","0.0-3.0-6.0-1.0-0.2","5bc32eb1518d030001358396","6662009ae78f21dd82fcd179","66620d75eb46cbfbd2bec3b4","985","","f","","","","","","","","./tasks/HMM-beads/Images/NewTrialWC.png","lowH","1","2","1","1","1","0","false","",""
"image-keyboard-response","143","984138","0.0-3.0-6.0-1.0-1.2","5bc32eb1518d030001358396","6662009ae78f21dd82fcd179","66620d75eb46cbfbd2bec3b4","null","","null","","","","","","","","./tasks/HMM-beads/Images/BlackBeadChoice.png","","","","","","","","","",""
"image-keyboard-response","144","984648","0.0-3.0-6.0-1.0-2.2","5bc32eb1518d030001358396","6662009ae78f21dd82fcd179","66620d75eb46cbfbd2bec3b4","null","","null","","","","","","","","./tasks/HMM-beads/Images/BlackBeadChoiceWrong.png","","","","","","","","","",""
"image-keyboard-response","145","985774","0.0-3.0-6.0-1.0-0.3","5bc32eb1518d030001358396","6662009ae78f21dd82fcd179","66620d75eb46cbfbd2bec3b4","1125","","f","","","","","","","","./tasks/HMM-beads/Images/NewTrialWC.png","lowH","1","3","1","1","1","0","false","",""
"image-keyboard-response","146","986095","0.0-3.0-6.0-1.0-1.3","5bc32eb1518d030001358396","6662009ae78f21dd82fcd179","66620d75eb46cbfbd2bec3b4","null","","null","","","","","","","","./tasks/HMM-beads/Images/BlackBeadChoice.png","","","","","","","","","",""
"image-keyboard-response","147","986598","0.0-3.0-6.0-1.0-2.3","5bc32eb1518d030001358396","6662009ae78f21dd82fcd179","66620d75eb46cbfbd2bec3b4","null","","null","","","","","","","","./tasks/HMM-beads/Images/BlackBeadChoiceWrong.png","","","","","","","","","",""
"image-keyboard-response","148","987244","0.0-3.0-6.0-1.0-0.4","5bc32eb1518d030001358396","6662009ae78f21dd82fcd179","66620d75eb46cbfbd2bec3b4","644","","j","","","","","","","","./tasks/HMM-beads/Images/NewTrialWC.png","lowH","1","4","1","1","1","1","true","",""
"image-keyboard-response","149","987552","0.0-3.0-6.0-1.0-1.4","5bc32eb1518d030001358396","6662009ae78f21dd82fcd179","66620d75eb46cbfbd2bec3b4","null","","null","","","","","","","","./tasks/HMM-beads/Images/WhiteBeadChoice.png","","","","","","","","","",""
"image-keyboard-response","150","988066","0.0-3.0-6.0-1.0-2.4","5bc32eb1518d030001358396","6662009ae78f21dd82fcd179","66620d75eb46cbfbd2bec3b4","null","","null","","","","","","","","./tasks/HMM-beads/Images/WhiteBeadChoiceCorrect.png","","","","","","","","","",""
"image-keyboard-response","151","988854","0.0-3.0-6.0-1.0-0.5","5bc32eb1518d030001358396","6662009ae78f21dd82fcd179","66620d75eb46cbfbd2bec3b4","786","","j","","","","","","","","./tasks/HMM-beads/Images/NewTrialWC.png","lowH","1","5","1","1","1","1","true","",""
"image-keyboard-response","152","989171","0.0-3.0-6.0-1.0-1.5","5bc32eb1518d030001358396","6662009ae78f21dd82fcd179","66620d75eb46cbfbd2bec3b4","null","","null","","","","","","","","./tasks/HMM-beads/Images/WhiteBeadChoice.png","","","","","","","","","",""
"image-keyboard-response","153","989684","0.0-3.0-6.0-1.0-2.5","5bc32eb1518d030001358396","6662009ae78f21dd82fcd179","66620d75eb46cbfbd2bec3b4","null","","null","","","","","","","","./tasks/HMM-beads/Images/WhiteBeadChoiceCorrect.png","","","","","","","","","",""
"image-keyboard-response","154","990752","0.0-3.0-6.0-1.0-0.6","5bc32eb1518d030001358396","6662009ae78f21dd82fcd179","66620d75eb46cbfbd2bec3b4","1065","","j","","","","","","","","./tasks/HMM-beads/Images/NewTrialWC.png","lowH","1","6","1","0","1","1","false","",""
"image-keyboard-response","155","991067","0.0-3.0-6.0-1.0-1.6","5bc32eb1518d030001358396","6662009ae78f21dd82fcd179","66620d75eb46cbfbd2bec3b4","null","","null","","","","","","","","./tasks/HMM-beads/Images/WhiteBeadChoice.png","","","","","","","","","",""
"image-keyboard-response","156","991574","0.0-3.0-6.0-1.0-2.6","5bc32eb1518d030001358396","6662009ae78f21dd82fcd179","66620d75eb46cbfbd2bec3b4","null","","null","","","","","","","","./tasks/HMM-beads/Images/WhiteBeadChoiceWrong.png","","","","","","","","","",""
"image-keyboard-response","157","992625","0.0-3.0-6.0-1.0-0.7","5bc32eb1518d030001358396","6662009ae78f21dd82fcd179","66620d75eb46cbfbd2bec3b4","1049","","f","","","","","","","","./tasks/HMM-beads/Images/NewTrialBC.png","lowH","1","7","1","1","0","0","false","",""
"image-keyboard-response","158","992939","0.0-3.0-6.0-1.0-1.7","5bc32eb1518d030001358396","6662009ae78f21dd82fcd179","66620d75eb46cbfbd2bec3b4","null","","null","","","","","","","","./tasks/HMM-beads/Images/BlackBeadChoice.png","","","","","","","","","",""
"image-keyboard-response","159","993446","0.0-3.0-6.0-1.0-2.7","5bc32eb1518d030001358396","6662009ae78f21dd82fcd179","66620d75eb46cbfbd2bec3b4","null","","null","","","","","","","","./tasks/HMM-beads/Images/BlackBeadChoiceWrong.png","","","","","","","","","",""
"image-keyboard-response","160","994511","0.0-3.0-6.0-1.0-0.8","5bc32eb1518d030001358396","6662009ae78f21dd82fcd179","66620d75eb46cbfbd2bec3b4","1063","","j","","","","","","","","./tasks/HMM-beads/Images/NewTrialWC.png","lowH","1","8","1","1","1","1","true","",""
"image-keyboard-response","161","994823","0.0-3.0-6.0-1.0-1.8","5bc32eb1518d030001358396","6662009ae78f21dd82fcd179","66620d75eb46cbfbd2bec3b4","null","","null","","","","","","","","./tasks/HMM-beads/Images/WhiteBeadChoice.png","","","","","","","","","",""
"image-keyboard-response","162","995332","0.0-3.0-6.0-1.0-2.8","5bc32eb1518d030001358396","6662009ae78f21dd82fcd179","66620d75eb46cbfbd2bec3b4","null","","null","","","","","","","","./tasks/HMM-beads/Images/WhiteBeadChoiceCorrect.png","","","","","","","","","",""
"image-keyboard-response","163","996285","0.0-3.0-6.0-1.0-0.9","5bc32eb1518d030001358396","6662009ae78f21dd82fcd179","66620d75eb46cbfbd2bec3b4","951","","j","","","","","","","","./tasks/HMM-beads/Images/NewTrialWC.png","lowH","1","9","1","1","1","1","true","",""
"image-keyboard-response","164","996598","0.0-3.0-6.0-1.0-1.9","5bc32eb1518d030001358396","6662009ae78f21dd82fcd179","66620d75eb46cbfbd2bec3b4","null","","null","","","","","","","","./tasks/HMM-beads/Images/WhiteBeadChoice.png","","","","","","","","","",""
"image-keyboard-response","165","997116","0.0-3.0-6.0-1.0-2.9","5bc32eb1518d030001358396","6662009ae78f21dd82fcd179","66620d75eb46cbfbd2bec3b4","null","","null","","","","","","","","./tasks/HMM-beads/Images/WhiteBeadChoiceCorrect.png","","","","","","","","","",""
"image-keyboard-response","166","998199","0.0-3.0-6.0-1.0-0.10","5bc32eb1518d030001358396","6662009ae78f21dd82fcd179","66620d75eb46cbfbd2bec3b4","1081","","j","","","","","","","","./tasks/HMM-beads/Images/NewTrialWC.png","lowH","1","10","1","1","1","1","true","",""
"image-keyboard-response","167","998501","0.0-3.0-6.0-1.0-1.10","5bc32eb1518d030001358396","6662009ae78f21dd82fcd179","66620d75eb46cbfbd2bec3b4","null","","null","","","","","","","","./tasks/HMM-beads/Images/WhiteBeadChoice.png","","","","","","","","","",""
"image-keyboard-response","168","999016","0.0-3.0-6.0-1.0-2.10","5bc32eb1518d030001358396","6662009ae78f21dd82fcd179","66620d75eb46cbfbd2bec3b4","null","","null","","","","","","","","./tasks/HMM-beads/Images/WhiteBeadChoiceCorrect.png","","","","","","","","","",""
"image-keyboard-response","169","999962","0.0-3.0-6.0-1.0-0.11","5bc32eb1518d030001358396","6662009ae78f21dd82fcd179","66620d75eb46cbfbd2bec3b4","945","","j","","","","","","","","./tasks/HMM-beads/Images/NewTrialWC.png","lowH","1","11","1","1","1","1","true","",""
"image-keyboard-response","170","1000270","0.0-3.0-6.0-1.0-1.11","5bc32eb1518d030001358396","6662009ae78f21dd82fcd179","66620d75eb46cbfbd2bec3b4","null","","null","","","","","","","","./tasks/HMM-beads/Images/WhiteBeadChoice.png","","","","","","","","","",""
"image-keyboard-response","171","1000782","0.0-3.0-6.0-1.0-2.11","5bc32eb1518d030001358396","6662009ae78f21dd82fcd179","66620d75eb46cbfbd2bec3b4","null","","null","","","","","","","","./tasks/HMM-beads/Images/WhiteBeadChoiceCorrect.png","","","","","","","","","",""
"image-keyboard-response","172","1001876","0.0-3.0-6.0-1.0-0.12","5bc32eb1518d030001358396","6662009ae78f21dd82fcd179","66620d75eb46cbfbd2bec3b4","1096","","j","","","","","","","","./tasks/HMM-beads/Images/NewTrialWC.png","lowH","1","12","1","1","1","1","true","",""
"image-keyboard-response","173","1002186","0.0-3.0-6.0-1.0-1.12","5bc32eb1518d030001358396","6662009ae78f21dd82fcd179","66620d75eb46cbfbd2bec3b4","null","","null","","","","","","","","./tasks/HMM-beads/Images/WhiteBeadChoice.png","","","","","","","","","",""
"image-keyboard-response","174","1002700","0.0-3.0-6.0-1.0-2.12","5bc32eb1518d030001358396","6662009ae78f21dd82fcd179","66620d75eb46cbfbd2bec3b4","null","","null","","","","","","","","./tasks/HMM-beads/Images/WhiteBeadChoiceCorrect.png","","","","","","","","","",""
"image-keyboard-response","175","1003646","0.0-3.0-6.0-1.0-0.13","5bc32eb1518d030001358396","6662009ae78f21dd82fcd179","66620d75eb46cbfbd2bec3b4","945","","j","","","","","","","","./tasks/HMM-beads/Images/NewTrialWC.png","lowH","1","13","1","0","1","1","false","",""
"image-keyboard-response","176","1003961","0.0-3.0-6.0-1.0-1.13","5bc32eb1518d030001358396","6662009ae78f21dd82fcd179","66620d75eb46cbfbd2bec3b4","null","","null","","","","","","","","./tasks/HMM-beads/Images/WhiteBeadChoice.png","","","","","","","","","",""
"image-keyboard-response","177","1004478","0.0-3.0-6.0-1.0-2.13","5bc32eb1518d030001358396","6662009ae78f21dd82fcd179","66620d75eb46cbfbd2bec3b4","null","","null","","","","","","","","./tasks/HMM-beads/Images/WhiteBeadChoiceWrong.png","","","","","","","","","",""
"image-keyboard-response","178","1005495","0.0-3.0-6.0-1.0-0.14","5bc32eb1518d030001358396","6662009ae78f21dd82fcd179","66620d75eb46cbfbd2bec3b4","1015","","j","","","","","","","","./tasks/HMM-beads/Images/NewTrialBC.png","lowH","1","14","1","0","0","1","false","",""
"image-keyboard-response","179","1005799","0.0-3.0-6.0-1.0-1.14","5bc32eb1518d030001358396","6662009ae78f21dd82fcd179","66620d75eb46cbfbd2bec3b4","null","","null","","","","","","","","./tasks/HMM-beads/Images/WhiteBeadChoice.png","","","","","","","","","",""
"image-keyboard-response","180","1006312","0.0-3.0-6.0-1.0-2.14","5bc32eb1518d030001358396","6662009ae78f21dd82fcd179","66620d75eb46cbfbd2bec3b4","null","","null","","","","","","","","./tasks/HMM-beads/Images/WhiteBeadChoiceWrong.png","","","","","","","","","",""
"image-keyboard-response","181","1007217","0.0-3.0-6.0-1.0-0.15","5bc32eb1518d030001358396","6662009ae78f21dd82fcd179","66620d75eb46cbfbd2bec3b4","903","","f","","","","","","","","./tasks/HMM-beads/Images/NewTrialBC.png","lowH","1","15","1","1","0","0","false","",""
"image-keyboard-response","182","1007530","0.0-3.0-6.0-1.0-1.15","5bc32eb1518d030001358396","6662009ae78f21dd82fcd179","66620d75eb46cbfbd2bec3b4","null","","null","","","","","","","","./tasks/HMM-beads/Images/BlackBeadChoice.png","","","","","","","","","",""
"image-keyboard-response","183","1008040","0.0-3.0-6.0-1.0-2.15","5bc32eb1518d030001358396","6662009ae78f21dd82fcd179","66620d75eb46cbfbd2bec3b4","null","","null","","","","","","","","./tasks/HMM-beads/Images/BlackBeadChoiceWrong.png","","","","","","","","","",""
"image-keyboard-response","184","1009078","0.0-3.0-6.0-1.0-0.16","5bc32eb1518d030001358396","6662009ae78f21dd82fcd179","66620d75eb46cbfbd2bec3b4","1036","","j","","","","","","","","./tasks/HMM-beads/Images/NewTrialWC.png","lowH","1","16","1","1","1","1","true","",""
"image-keyboard-response","185","1009394","0.0-3.0-6.0-1.0-1.16","5bc32eb1518d030001358396","6662009ae78f21dd82fcd179","66620d75eb46cbfbd2bec3b4","null","","null","","","","","","","","./tasks/HMM-beads/Images/WhiteBeadChoice.png","","","","","","","","","",""
"image-keyboard-response","186","1009897","0.0-3.0-6.0-1.0-2.16","5bc32eb1518d030001358396","6662009ae78f21dd82fcd179","66620d75eb46cbfbd2bec3b4","null","","null","","","","","","","","./tasks/HMM-beads/Images/WhiteBeadChoiceCorrect.png","","","","","","","","","",""
"image-keyboard-response","187","1010761","0.0-3.0-6.0-1.0-0.17","5bc32eb1518d030001358396","6662009ae78f21dd82fcd179","66620d75eb46cbfbd2bec3b4","859","","j","","","","","","","","./tasks/HMM-beads/Images/NewTrialWC.png","lowH","1","17","1","1","1","1","true","",""
"image-keyboard-response","188","1011071","0.0-3.0-6.0-1.0-1.17","5bc32eb1518d030001358396","6662009ae78f21dd82fcd179","66620d75eb46cbfbd2bec3b4","null","","null","","","","","","","","./tasks/HMM-beads/Images/WhiteBeadChoice.png","","","","","","","","","",""
"image-keyboard-response","189","1011588","0.0-3.0-6.0-1.0-2.17","5bc32eb1518d030001358396","6662009ae78f21dd82fcd179","66620d75eb46cbfbd2bec3b4","null","","null","","","","","","","","./tasks/HMM-beads/Images/WhiteBeadChoiceCorrect.png","","","","","","","","","",""
"image-keyboard-response","190","1012674","0.0-3.0-6.0-1.0-0.18","5bc32eb1518d030001358396","6662009ae78f21dd82fcd179","66620d75eb46cbfbd2bec3b4","1084","","j","","","","","","","","./tasks/HMM-beads/Images/NewTrialWC.png","lowH","1","18","1","1","1","1","true","",""
"image-keyboard-response","191","1012989","0.0-3.0-6.0-1.0-1.18","5bc32eb1518d030001358396","6662009ae78f21dd82fcd179","66620d75eb46cbfbd2bec3b4","null","","null","","","","","","","","./tasks/HMM-beads/Images/WhiteBeadChoice.png","","","","","","","","","",""
"image-keyboard-response","192","1013491","0.0-3.0-6.0-1.0-2.18","5bc32eb1518d030001358396","6662009ae78f21dd82fcd179","66620d75eb46cbfbd2bec3b4","null","","null","","","","","","","","./tasks/HMM-beads/Images/WhiteBeadChoiceCorrect.png","","","","","","","","","",""
"image-keyboard-response","193","1014996","0.0-3.0-6.0-1.0-0.19","5bc32eb1518d030001358396","6662009ae78f21dd82fcd179","66620d75eb46cbfbd2bec3b4","1501","","j","","","","","","","","./tasks/HMM-beads/Images/NewTrialWC.png","lowH","1","19","1","1","1","1","true","",""
"image-keyboard-response","194","1015306","0.0-3.0-6.0-1.0-1.19","5bc32eb1518d030001358396","6662009ae78f21dd82fcd179","66620d75eb46cbfbd2bec3b4","null","","null","","","","","","","","./tasks/HMM-beads/Images/WhiteBeadChoice.png","","","","","","","","","",""
"image-keyboard-response","195","1015819","0.0-3.0-6.0-1.0-2.19","5bc32eb1518d030001358396","6662009ae78f21dd82fcd179","66620d75eb46cbfbd2bec3b4","null","","null","","","","","","","","./tasks/HMM-beads/Images/WhiteBeadChoiceCorrect.png","","","","","","","","","",""
"image-keyboard-response","196","1016704","0.0-3.0-6.0-1.0-0.20","5bc32eb1518d030001358396","6662009ae78f21dd82fcd179","66620d75eb46cbfbd2bec3b4","881","","j","","","","","","","","./tasks/HMM-beads/Images/NewTrialWC.png","lowH","1","20","1","1","1","1","true","",""
"image-keyboard-response","197","1017008","0.0-3.0-6.0-1.0-1.20","5bc32eb1518d030001358396","6662009ae78f21dd82fcd179","66620d75eb46cbfbd2bec3b4","null","","null","","","","","","","","./tasks/HMM-beads/Images/WhiteBeadChoice.png","","","","","","","","","",""
"image-keyboard-response","198","1017526","0.0-3.0-6.0-1.0-2.20","5bc32eb1518d030001358396","6662009ae78f21dd82fcd179","66620d75eb46cbfbd2bec3b4","null","","null","","","","","","","","./tasks/HMM-beads/Images/WhiteBeadChoiceCorrect.png","","","","","","","","","",""
"image-keyboard-response","199","1018420","0.0-3.0-6.0-1.0-0.21","5bc32eb1518d030001358396","6662009ae78f21dd82fcd179","66620d75eb46cbfbd2bec3b4","889","","j","","","","","","","","./tasks/HMM-beads/Images/NewTrialWC.png","lowH","1","21","1","1","1","1","true","",""
"image-keyboard-response","200","1018728","0.0-3.0-6.0-1.0-1.21","5bc32eb1518d030001358396","6662009ae78f21dd82fcd179","66620d75eb46cbfbd2bec3b4","null","","null","","","","","","","","./tasks/HMM-beads/Images/WhiteBeadChoice.png","","","","","","","","","",""
"image-keyboard-response","201","1019243","0.0-3.0-6.0-1.0-2.21","5bc32eb1518d030001358396","6662009ae78f21dd82fcd179","66620d75eb46cbfbd2bec3b4","null","","null","","","","","","","","./tasks/HMM-beads/Images/WhiteBeadChoiceCorrect.png","","","","","","","","","",""
"image-keyboard-response","202","1020438","0.0-3.0-6.0-1.0-0.22","5bc32eb1518d030001358396","6662009ae78f21dd82fcd179","66620d75eb46cbfbd2bec3b4","1191","","j","","","","","","","","./tasks/HMM-beads/Images/NewTrialWC.png","lowH","1","22","1","1","1","1","true","",""
"image-keyboard-response","203","1020746","0.0-3.0-6.0-1.0-1.22","5bc32eb1518d030001358396","6662009ae78f21dd82fcd179","66620d75eb46cbfbd2bec3b4","null","","null","","","","","","","","./tasks/HMM-beads/Images/WhiteBeadChoice.png","","","","","","","","","",""
"image-keyboard-response","204","1021261","0.0-3.0-6.0-1.0-2.22","5bc32eb1518d030001358396","6662009ae78f21dd82fcd179","66620d75eb46cbfbd2bec3b4","null","","null","","","","","","","","./tasks/HMM-beads/Images/WhiteBeadChoiceCorrect.png","","","","","","","","","",""
"image-keyboard-response","205","1022458","0.0-3.0-6.0-1.0-0.23","5bc32eb1518d030001358396","6662009ae78f21dd82fcd179","66620d75eb46cbfbd2bec3b4","1194","","j","","","","","","","","./tasks/HMM-beads/Images/NewTrialWC.png","lowH","1","23","1","1","1","1","true","",""
"image-keyboard-response","206","1022766","0.0-3.0-6.0-1.0-1.23","5bc32eb1518d030001358396","6662009ae78f21dd82fcd179","66620d75eb46cbfbd2bec3b4","null","","null","","","","","","","","./tasks/HMM-beads/Images/WhiteBeadChoice.png","","","","","","","","","",""
"image-keyboard-response","207","1023271","0.0-3.0-6.0-1.0-2.23","5bc32eb1518d030001358396","6662009ae78f21dd82fcd179","66620d75eb46cbfbd2bec3b4","null","","null","","","","","","","","./tasks/HMM-beads/Images/WhiteBeadChoiceCorrect.png","","","","","","","","","",""
"image-keyboard-response","208","1024393","0.0-3.0-6.0-1.0-0.24","5bc32eb1518d030001358396","6662009ae78f21dd82fcd179","66620d75eb46cbfbd2bec3b4","1118","","j","","","","","","","","./tasks/HMM-beads/Images/NewTrialWC.png","lowH","1","24","1","0","1","1","false","",""
"image-keyboard-response","209","1024701","0.0-3.0-6.0-1.0-1.24","5bc32eb1518d030001358396","6662009ae78f21dd82fcd179","66620d75eb46cbfbd2bec3b4","null","","null","","","","","","","","./tasks/HMM-beads/Images/WhiteBeadChoice.png","","","","","","","","","",""
"image-keyboard-response","210","1025203","0.0-3.0-6.0-1.0-2.24","5bc32eb1518d030001358396","6662009ae78f21dd82fcd179","66620d75eb46cbfbd2bec3b4","null","","null","","","","","","","","./tasks/HMM-beads/Images/WhiteBeadChoiceWrong.png","","","","","","","","","",""
"image-keyboard-response","211","1025950","0.0-3.0-6.0-1.0-0.25","5bc32eb1518d030001358396","6662009ae78f21dd82fcd179","66620d75eb46cbfbd2bec3b4","745","","f","","","","","","","","./tasks/HMM-beads/Images/NewTrialBC.png","lowH","1","25","1","1","0","0","false","",""
"image-keyboard-response","212","1026260","0.0-3.0-6.0-1.0-1.25","5bc32eb1518d030001358396","6662009ae78f21dd82fcd179","66620d75eb46cbfbd2bec3b4","null","","null","","","","","","","","./tasks/HMM-beads/Images/BlackBeadChoice.png","","","","","","","","","",""
"image-keyboard-response","213","1026762","0.0-3.0-6.0-1.0-2.25","5bc32eb1518d030001358396","6662009ae78f21dd82fcd179","66620d75eb46cbfbd2bec3b4","null","","null","","","","","","","","./tasks/HMM-beads/Images/BlackBeadChoiceWrong.png","","","","","","","","","",""
"image-keyboard-response","214","1027645","0.0-3.0-6.0-1.0-0.26","5bc32eb1518d030001358396","6662009ae78f21dd82fcd179","66620d75eb46cbfbd2bec3b4","881","","j","","","","","","","","./tasks/HMM-beads/Images/NewTrialWC.png","lowH","1","26","1","0","1","1","false","",""
"image-keyboard-response","215","1027952","0.0-3.0-6.0-1.0-1.26","5bc32eb1518d030001358396","6662009ae78f21dd82fcd179","66620d75eb46cbfbd2bec3b4","null","","null","","","","","","","","./tasks/HMM-beads/Images/WhiteBeadChoice.png","","","","","","","","","",""
"image-keyboard-response","216","1028457","0.0-3.0-6.0-1.0-2.26","5bc32eb1518d030001358396","6662009ae78f21dd82fcd179","66620d75eb46cbfbd2bec3b4","null","","null","","","","","","","","./tasks/HMM-beads/Images/WhiteBeadChoiceWrong.png","","","","","","","","","",""
"image-keyboard-response","217","1029550","0.0-3.0-6.0-1.0-0.27","5bc32eb1518d030001358396","6662009ae78f21dd82fcd179","66620d75eb46cbfbd2bec3b4","1089","","j","","","","","","","","./tasks/HMM-beads/Images/NewTrialBC.png","lowH","1","27","1","1","0","1","true","",""
"image-keyboard-response","218","1029864","0.0-3.0-6.0-1.0-1.27","5bc32eb1518d030001358396","6662009ae78f21dd82fcd179","66620d75eb46cbfbd2bec3b4","null","","null","","","","","","","","./tasks/HMM-beads/Images/WhiteBeadChoice.png","","","","","","","","","",""
"image-keyboard-response","219","1030371","0.0-3.0-6.0-1.0-2.27","5bc32eb1518d030001358396","6662009ae78f21dd82fcd179","66620d75eb46cbfbd2bec3b4","null","","null","","","","","","","","./tasks/HMM-beads/Images/WhiteBeadChoiceCorrect.png","","","","","","","","","",""
"image-keyboard-response","220","1032152","0.0-3.0-6.0-1.0-0.28","5bc32eb1518d030001358396","6662009ae78f21dd82fcd179","66620d75eb46cbfbd2bec3b4","1777","","j","","","","","","","","./tasks/HMM-beads/Images/NewTrialWC.png","lowH","1","28","1","1","1","1","true","",""
"image-keyboard-response","221","1032462","0.0-3.0-6.0-1.0-1.28","5bc32eb1518d030001358396","6662009ae78f21dd82fcd179","66620d75eb46cbfbd2bec3b4","null","","null","","","","","","","","./tasks/HMM-beads/Images/WhiteBeadChoice.png","","","","","","","","","",""
"image-keyboard-response","222","1032970","0.0-3.0-6.0-1.0-2.28","5bc32eb1518d030001358396","6662009ae78f21dd82fcd179","66620d75eb46cbfbd2bec3b4","null","","null","","","","","","","","./tasks/HMM-beads/Images/WhiteBeadChoiceCorrect.png","","","","","","","","","",""
"image-keyboard-response","223","1034088","0.0-3.0-6.0-1.0-0.29","5bc32eb1518d030001358396","6662009ae78f21dd82fcd179","66620d75eb46cbfbd2bec3b4","1114","","j","","","","","","","","./tasks/HMM-beads/Images/NewTrialWC.png","lowH","1","29","1","1","1","1","true","",""
"image-keyboard-response","224","1034409","0.0-3.0-6.0-1.0-1.29","5bc32eb1518d030001358396","6662009ae78f21dd82fcd179","66620d75eb46cbfbd2bec3b4","null","","null","","","","","","","","./tasks/HMM-beads/Images/WhiteBeadChoice.png","","","","","","","","","",""
"image-keyboard-response","225","1034914","0.0-3.0-6.0-1.0-2.29","5bc32eb1518d030001358396","6662009ae78f21dd82fcd179","66620d75eb46cbfbd2bec3b4","null","","null","","","","","","","","./tasks/HMM-beads/Images/WhiteBeadChoiceCorrect.png","","","","","","","","","",""
"image-keyboard-response","226","1036325","0.0-3.0-6.0-1.0-0.30","5bc32eb1518d030001358396","6662009ae78f21dd82fcd179","66620d75eb46cbfbd2bec3b4","1408","","j","","","","","","","","./tasks/HMM-beads/Images/NewTrialWC.png","lowH","1","30","1","1","1","1","true","",""
"image-keyboard-response","227","1036632","0.0-3.0-6.0-1.0-1.30","5bc32eb1518d030001358396","6662009ae78f21dd82fcd179","66620d75eb46cbfbd2bec3b4","null","","null","","","","","","","","./tasks/HMM-beads/Images/WhiteBeadChoice.png","","","","","","","","","",""
"image-keyboard-response","228","1037138","0.0-3.0-6.0-1.0-2.30","5bc32eb1518d030001358396","6662009ae78f21dd82fcd179","66620d75eb46cbfbd2bec3b4","null","","null","","","","","","","","./tasks/HMM-beads/Images/WhiteBeadChoiceCorrect.png","","","","","","","","","",""
"image-keyboard-response","229","1038285","0.0-3.0-6.0-1.0-0.31","5bc32eb1518d030001358396","6662009ae78f21dd82fcd179","66620d75eb46cbfbd2bec3b4","1144","","j","","","","","","","","./tasks/HMM-beads/Images/NewTrialWC.png","lowH","1","31","1","1","1","1","true","",""
"image-keyboard-response","230","1038592","0.0-3.0-6.0-1.0-1.31","5bc32eb1518d030001358396","6662009ae78f21dd82fcd179","66620d75eb46cbfbd2bec3b4","null","","null","","","","","","","","./tasks/HMM-beads/Images/WhiteBeadChoice.png","","","","","","","","","",""
"image-keyboard-response","231","1039102","0.0-3.0-6.0-1.0-2.31","5bc32eb1518d030001358396","6662009ae78f21dd82fcd179","66620d75eb46cbfbd2bec3b4","null","","null","","","","","","","","./tasks/HMM-beads/Images/WhiteBeadChoiceCorrect.png","","","","","","","","","",""
"image-keyboard-response","232","1040100","0.0-3.0-6.0-1.0-0.32","5bc32eb1518d030001358396","6662009ae78f21dd82fcd179","66620d75eb46cbfbd2bec3b4","994","","j","","","","","","","","./tasks/HMM-beads/Images/NewTrialWC.png","lowH","1","32","1","1","1","1","true","",""
"image-keyboard-response","233","1040420","0.0-3.0-6.0-1.0-1.32","5bc32eb1518d030001358396","6662009ae78f21dd82fcd179","66620d75eb46cbfbd2bec3b4","null","","null","","","","","","","","./tasks/HMM-beads/Images/WhiteBeadChoice.png","","","","","","","","","",""
"image-keyboard-response","234","1040939","0.0-3.0-6.0-1.0-2.32","5bc32eb1518d030001358396","6662009ae78f21dd82fcd179","66620d75eb46cbfbd2bec3b4","null","","null","","","","","","","","./tasks/HMM-beads/Images/WhiteBeadChoiceCorrect.png","","","","","","","","","",""
"image-keyboard-response","235","1041828","0.0-3.0-6.0-1.0-0.33","5bc32eb1518d030001358396","6662009ae78f21dd82fcd179","66620d75eb46cbfbd2bec3b4","885","","j","","","","","","","","./tasks/HMM-beads/Images/NewTrialWC.png","lowH","1","33","1","1","1","1","true","",""
"image-keyboard-response","236","1042140","0.0-3.0-6.0-1.0-1.33","5bc32eb1518d030001358396","6662009ae78f21dd82fcd179","66620d75eb46cbfbd2bec3b4","null","","null","","","","","","","","./tasks/HMM-beads/Images/WhiteBeadChoice.png","","","","","","","","","",""
"image-keyboard-response","237","1042662","0.0-3.0-6.0-1.0-2.33","5bc32eb1518d030001358396","6662009ae78f21dd82fcd179","66620d75eb46cbfbd2bec3b4","null","","null","","","","","","","","./tasks/HMM-beads/Images/WhiteBeadChoiceCorrect.png","","","","","","","","","",""
"image-keyboard-response","238","1043287","0.0-3.0-6.0-1.0-0.34","5bc32eb1518d030001358396","6662009ae78f21dd82fcd179","66620d75eb46cbfbd2bec3b4","622","","j","","","","","","","","./tasks/HMM-beads/Images/NewTrialWC.png","lowH","1","34","1","1","1","1","true","",""
"image-keyboard-response","239","1043598","0.0-3.0-6.0-1.0-1.34","5bc32eb1518d030001358396","6662009ae78f21dd82fcd179","66620d75eb46cbfbd2bec3b4","null","","null","","","","","","","","./tasks/HMM-beads/Images/WhiteBeadChoice.png","","","","","","","","","",""
"image-keyboard-response","240","1044103","0.0-3.0-6.0-1.0-2.34","5bc32eb1518d030001358396","6662009ae78f21dd82fcd179","66620d75eb46cbfbd2bec3b4","null","","null","","","","","","","","./tasks/HMM-beads/Images/WhiteBeadChoiceCorrect.png","","","","","","","","","",""
"image-keyboard-response","241","1044829","0.0-3.0-6.0-1.0-0.35","5bc32eb1518d030001358396","6662009ae78f21dd82fcd179","66620d75eb46cbfbd2bec3b4","725","","j","","","","","","","","./tasks/HMM-beads/Images/NewTrialWC.png","lowH","1","35","1","1","1","1","true","",""
"image-keyboard-response","242","1045131","0.0-3.0-6.0-1.0-1.35","5bc32eb1518d030001358396","6662009ae78f21dd82fcd179","66620d75eb46cbfbd2bec3b4","null","","null","","","","","","","","./tasks/HMM-beads/Images/WhiteBeadChoice.png","","","","","","","","","",""
"image-keyboard-response","243","1045641","0.0-3.0-6.0-1.0-2.35","5bc32eb1518d030001358396","6662009ae78f21dd82fcd179","66620d75eb46cbfbd2bec3b4","null","","null","","","","","","","","./tasks/HMM-beads/Images/WhiteBeadChoiceCorrect.png","","","","","","","","","",""
"image-keyboard-response","244","1046211","0.0-3.0-6.0-1.0-0.36","5bc32eb1518d030001358396","6662009ae78f21dd82fcd179","66620d75eb46cbfbd2bec3b4","568","","j","","","","","","","","./tasks/HMM-beads/Images/NewTrialWC.png","lowH","1","36","1","1","1","1","true","",""
"image-keyboard-response","245","1046517","0.0-3.0-6.0-1.0-1.36","5bc32eb1518d030001358396","6662009ae78f21dd82fcd179","66620d75eb46cbfbd2bec3b4","null","","null","","","","","","","","./tasks/HMM-beads/Images/WhiteBeadChoice.png","","","","","","","","","",""
"image-keyboard-response","246","1047031","0.0-3.0-6.0-1.0-2.36","5bc32eb1518d030001358396","6662009ae78f21dd82fcd179","66620d75eb46cbfbd2bec3b4","null","","null","","","","","","","","./tasks/HMM-beads/Images/WhiteBeadChoiceCorrect.png","","","","","","","","","",""
"image-keyboard-response","247","1048266","0.0-3.0-6.0-1.0-0.37","5bc32eb1518d030001358396","6662009ae78f21dd82fcd179","66620d75eb46cbfbd2bec3b4","1231","","j","","","","","","","","./tasks/HMM-beads/Images/NewTrialWC.png","lowH","1","37","1","1","1","1","true","",""
"image-keyboard-response","248","1048585","0.0-3.0-6.0-1.0-1.37","5bc32eb1518d030001358396","6662009ae78f21dd82fcd179","66620d75eb46cbfbd2bec3b4","null","","null","","","","","","","","./tasks/HMM-beads/Images/WhiteBeadChoice.png","","","","","","","","","",""
"image-keyboard-response","249","1049099","0.0-3.0-6.0-1.0-2.37","5bc32eb1518d030001358396","6662009ae78f21dd82fcd179","66620d75eb46cbfbd2bec3b4","null","","null","","","","","","","","./tasks/HMM-beads/Images/WhiteBeadChoiceCorrect.png","","","","","","","","","",""
"image-keyboard-response","250","1050029","0.0-3.0-6.0-1.0-0.38","5bc32eb1518d030001358396","6662009ae78f21dd82fcd179","66620d75eb46cbfbd2bec3b4","926","","j","","","","","","","","./tasks/HMM-beads/Images/NewTrialWC.png","lowH","1","38","1","1","1","1","true","",""
"image-keyboard-response","251","1050340","0.0-3.0-6.0-1.0-1.38","5bc32eb1518d030001358396","6662009ae78f21dd82fcd179","66620d75eb46cbfbd2bec3b4","null","","null","","","","","","","","./tasks/HMM-beads/Images/WhiteBeadChoice.png","","","","","","","","","",""
"image-keyboard-response","252","1050846","0.0-3.0-6.0-1.0-2.38","5bc32eb1518d030001358396","6662009ae78f21dd82fcd179","66620d75eb46cbfbd2bec3b4","null","","null","","","","","","","","./tasks/HMM-beads/Images/WhiteBeadChoiceCorrect.png","","","","","","","","","",""
"image-keyboard-response","253","1051528","0.0-3.0-6.0-1.0-0.39","5bc32eb1518d030001358396","6662009ae78f21dd82fcd179","66620d75eb46cbfbd2bec3b4","678","","j","","","","","","","","./tasks/HMM-beads/Images/NewTrialWC.png","lowH","1","39","1","1","1","1","true","",""
"image-keyboard-response","254","1051846","0.0-3.0-6.0-1.0-1.39","5bc32eb1518d030001358396","6662009ae78f21dd82fcd179","66620d75eb46cbfbd2bec3b4","null","","null","","","","","","","","./tasks/HMM-beads/Images/WhiteBeadChoice.png","","","","","","","","","",""
"image-keyboard-response","255","1052350","0.0-3.0-6.0-1.0-2.39","5bc32eb1518d030001358396","6662009ae78f21dd82fcd179","66620d75eb46cbfbd2bec3b4","null","","null","","","","","","","","./tasks/HMM-beads/Images/WhiteBeadChoiceCorrect.png","","","","","","","","","",""
"image-keyboard-response","256","1053490","0.0-3.0-6.0-1.0-0.40","5bc32eb1518d030001358396","6662009ae78f21dd82fcd179","66620d75eb46cbfbd2bec3b4","1137","","j","","","","","","","","./tasks/HMM-beads/Images/NewTrialWC.png","lowH","1","40","1","1","1","1","true","",""
"image-keyboard-response","257","1053802","0.0-3.0-6.0-1.0-1.40","5bc32eb1518d030001358396","6662009ae78f21dd82fcd179","66620d75eb46cbfbd2bec3b4","null","","null","","","","","","","","./tasks/HMM-beads/Images/WhiteBeadChoice.png","","","","","","","","","",""
"image-keyboard-response","258","1054310","0.0-3.0-6.0-1.0-2.40","5bc32eb1518d030001358396","6662009ae78f21dd82fcd179","66620d75eb46cbfbd2bec3b4","null","","null","","","","","","","","./tasks/HMM-beads/Images/WhiteBeadChoiceCorrect.png","","","","","","","","","",""
"image-keyboard-response","259","1055430","0.0-3.0-6.0-1.0-0.41","5bc32eb1518d030001358396","6662009ae78f21dd82fcd179","66620d75eb46cbfbd2bec3b4","1116","","j","","","","","","","","./tasks/HMM-beads/Images/NewTrialWC.png","lowH","1","41","1","1","1","1","true","",""
"image-keyboard-response","260","1055740","0.0-3.0-6.0-1.0-1.41","5bc32eb1518d030001358396","6662009ae78f21dd82fcd179","66620d75eb46cbfbd2bec3b4","null","","null","","","","","","","","./tasks/HMM-beads/Images/WhiteBeadChoice.png","","","","","","","","","",""
"image-keyboard-response","261","1056243","0.0-3.0-6.0-1.0-2.41","5bc32eb1518d030001358396","6662009ae78f21dd82fcd179","66620d75eb46cbfbd2bec3b4","null","","null","","","","","","","","./tasks/HMM-beads/Images/WhiteBeadChoiceCorrect.png","","","","","","","","","",""
"image-keyboard-response","262","1056947","0.0-3.0-6.0-1.0-0.42","5bc32eb1518d030001358396","6662009ae78f21dd82fcd179","66620d75eb46cbfbd2bec3b4","700","","j","","","","","","","","./tasks/HMM-beads/Images/NewTrialWC.png","lowH","1","42","1","1","1","1","true","",""
"image-keyboard-response","263","1057271","0.0-3.0-6.0-1.0-1.42","5bc32eb1518d030001358396","6662009ae78f21dd82fcd179","66620d75eb46cbfbd2bec3b4","null","","null","","","","","","","","./tasks/HMM-beads/Images/WhiteBeadChoice.png","","","","","","","","","",""
"image-keyboard-response","264","1057778","0.0-3.0-6.0-1.0-2.42","5bc32eb1518d030001358396","6662009ae78f21dd82fcd179","66620d75eb46cbfbd2bec3b4","null","","null","","","","","","","","./tasks/HMM-beads/Images/WhiteBeadChoiceCorrect.png","","","","","","","","","",""
"image-keyboard-response","265","1058924","0.0-3.0-6.0-1.0-0.43","5bc32eb1518d030001358396","6662009ae78f21dd82fcd179","66620d75eb46cbfbd2bec3b4","1142","","j","","","","","","","","./tasks/HMM-beads/Images/NewTrialWC.png","lowH","1","43","1","1","1","1","true","",""
"image-keyboard-response","266","1059230","0.0-3.0-6.0-1.0-1.43","5bc32eb1518d030001358396","6662009ae78f21dd82fcd179","66620d75eb46cbfbd2bec3b4","null","","null","","","","","","","","./tasks/HMM-beads/Images/WhiteBeadChoice.png","","","","","","","","","",""
"image-keyboard-response","267","1059749","0.0-3.0-6.0-1.0-2.43","5bc32eb1518d030001358396","6662009ae78f21dd82fcd179","66620d75eb46cbfbd2bec3b4","null","","null","","","","","","","","./tasks/HMM-beads/Images/WhiteBeadChoiceCorrect.png","","","","","","","","","",""
"image-keyboard-response","268","1060434","0.0-3.0-6.0-1.0-0.44","5bc32eb1518d030001358396","6662009ae78f21dd82fcd179","66620d75eb46cbfbd2bec3b4","681","","j","","","","","","","","./tasks/HMM-beads/Images/NewTrialWC.png","lowH","1","44","1","1","1","1","true","",""
"image-keyboard-response","269","1060747","0.0-3.0-6.0-1.0-1.44","5bc32eb1518d030001358396","6662009ae78f21dd82fcd179","66620d75eb46cbfbd2bec3b4","null","","null","","","","","","","","./tasks/HMM-beads/Images/WhiteBeadChoice.png","","","","","","","","","",""
"image-keyboard-response","270","1061263","0.0-3.0-6.0-1.0-2.44","5bc32eb1518d030001358396","6662009ae78f21dd82fcd179","66620d75eb46cbfbd2bec3b4","null","","null","","","","","","","","./tasks/HMM-beads/Images/WhiteBeadChoiceCorrect.png","","","","","","","","","",""
"image-keyboard-response","271","1061936","0.0-3.0-6.0-1.0-0.45","5bc32eb1518d030001358396","6662009ae78f21dd82fcd179","66620d75eb46cbfbd2bec3b4","677","","j","","","","","","","","./tasks/HMM-beads/Images/NewTrialWC.png","lowH","1","45","1","1","1","1","true","",""
"image-keyboard-response","272","1062251","0.0-3.0-6.0-1.0-1.45","5bc32eb1518d030001358396","6662009ae78f21dd82fcd179","66620d75eb46cbfbd2bec3b4","null","","null","","","","","","","","./tasks/HMM-beads/Images/WhiteBeadChoice.png","","","","","","","","","",""
"image-keyboard-response","273","1062759","0.0-3.0-6.0-1.0-2.45","5bc32eb1518d030001358396","6662009ae78f21dd82fcd179","66620d75eb46cbfbd2bec3b4","null","","null","","","","","","","","./tasks/HMM-beads/Images/WhiteBeadChoiceCorrect.png","","","","","","","","","",""
"image-keyboard-response","274","1063568","0.0-3.0-6.0-1.0-0.46","5bc32eb1518d030001358396","6662009ae78f21dd82fcd179","66620d75eb46cbfbd2bec3b4","807","","j","","","","","","","","./tasks/HMM-beads/Images/NewTrialWC.png","lowH","1","46","1","1","1","1","true","",""
"image-keyboard-response","275","1063875","0.0-3.0-6.0-1.0-1.46","5bc32eb1518d030001358396","6662009ae78f21dd82fcd179","66620d75eb46cbfbd2bec3b4","null","","null","","","","","","","","./tasks/HMM-beads/Images/WhiteBeadChoice.png","","","","","","","","","",""
"image-keyboard-response","276","1064382","0.0-3.0-6.0-1.0-2.46","5bc32eb1518d030001358396","6662009ae78f21dd82fcd179","66620d75eb46cbfbd2bec3b4","null","","null","","","","","","","","./tasks/HMM-beads/Images/WhiteBeadChoiceCorrect.png","","","","","","","","","",""
"image-keyboard-response","277","1065858","0.0-3.0-6.0-1.0-0.47","5bc32eb1518d030001358396","6662009ae78f21dd82fcd179","66620d75eb46cbfbd2bec3b4","1472","","j","","","","","","","","./tasks/HMM-beads/Images/NewTrialWC.png","lowH","1","47","1","0","1","1","false","",""
"image-keyboard-response","278","1066168","0.0-3.0-6.0-1.0-1.47","5bc32eb1518d030001358396","6662009ae78f21dd82fcd179","66620d75eb46cbfbd2bec3b4","null","","null","","","","","","","","./tasks/HMM-beads/Images/WhiteBeadChoice.png","","","","","","","","","",""
"image-keyboard-response","279","1066681","0.0-3.0-6.0-1.0-2.47","5bc32eb1518d030001358396","6662009ae78f21dd82fcd179","66620d75eb46cbfbd2bec3b4","null","","null","","","","","","","","./tasks/HMM-beads/Images/WhiteBeadChoiceWrong.png","","","","","","","","","",""
"image-keyboard-response","280","1067776","0.0-3.0-6.0-1.0-0.48","5bc32eb1518d030001358396","6662009ae78f21dd82fcd179","66620d75eb46cbfbd2bec3b4","1093","","j","","","","","","","","./tasks/HMM-beads/Images/NewTrialBC.png","lowH","1","48","1","0","0","1","false","",""
"image-keyboard-response","281","1068082","0.0-3.0-6.0-1.0-1.48","5bc32eb1518d030001358396","6662009ae78f21dd82fcd179","66620d75eb46cbfbd2bec3b4","null","","null","","","","","","","","./tasks/HMM-beads/Images/WhiteBeadChoice.png","","","","","","","","","",""
"image-keyboard-response","282","1068589","0.0-3.0-6.0-1.0-2.48","5bc32eb1518d030001358396","6662009ae78f21dd82fcd179","66620d75eb46cbfbd2bec3b4","null","","null","","","","","","","","./tasks/HMM-beads/Images/WhiteBeadChoiceWrong.png","","","","","","","","","",""
"image-keyboard-response","283","1069924","0.0-3.0-6.0-1.0-0.49","5bc32eb1518d030001358396","6662009ae78f21dd82fcd179","66620d75eb46cbfbd2bec3b4","1334","","f","","","","","","","","./tasks/HMM-beads/Images/NewTrialBC.png","lowH","1","49","1","0","0","0","true","",""
"image-keyboard-response","284","1070232","0.0-3.0-6.0-1.0-1.49","5bc32eb1518d030001358396","6662009ae78f21dd82fcd179","66620d75eb46cbfbd2bec3b4","null","","null","","","","","","","","./tasks/HMM-beads/Images/BlackBeadChoice.png","","","","","","","","","",""
"image-keyboard-response","285","1070744","0.0-3.0-6.0-1.0-2.49","5bc32eb1518d030001358396","6662009ae78f21dd82fcd179","66620d75eb46cbfbd2bec3b4","null","","null","","","","","","","","./tasks/HMM-beads/Images/BlackBeadChoiceCorrect.png","","","","","","","","","",""
"image-keyboard-response","286","1071715","0.0-3.0-6.0-1.0-0.50","5bc32eb1518d030001358396","6662009ae78f21dd82fcd179","66620d75eb46cbfbd2bec3b4","967","","f","","","","","","","","./tasks/HMM-beads/Images/NewTrialBC.png","lowH","1","50","1","1","0","0","false","",""
"image-keyboard-response","287","1072030","0.0-3.0-6.0-1.0-1.50","5bc32eb1518d030001358396","6662009ae78f21dd82fcd179","66620d75eb46cbfbd2bec3b4","null","","null","","","","","","","","./tasks/HMM-beads/Images/BlackBeadChoice.png","","","","","","","","","",""
"image-keyboard-response","288","1072542","0.0-3.0-6.0-1.0-2.50","5bc32eb1518d030001358396","6662009ae78f21dd82fcd179","66620d75eb46cbfbd2bec3b4","null","","null","","","","","","","","./tasks/HMM-beads/Images/BlackBeadChoiceWrong.png","","","","","","","","","",""
"image-keyboard-response","289","1073936","0.0-3.0-6.0-1.0-0.51","5bc32eb1518d030001358396","6662009ae78f21dd82fcd179","66620d75eb46cbfbd2bec3b4","1389","","j","","","","","","","","./tasks/HMM-beads/Images/NewTrialWC.png","lowH","1","51","1","1","1","1","true","",""
"image-keyboard-response","290","1074241","0.0-3.0-6.0-1.0-1.51","5bc32eb1518d030001358396","6662009ae78f21dd82fcd179","66620d75eb46cbfbd2bec3b4","null","","null","","","","","","","","./tasks/HMM-beads/Images/WhiteBeadChoice.png","","","","","","","","","",""
"image-keyboard-response","291","1074756","0.0-3.0-6.0-1.0-2.51","5bc32eb1518d030001358396","6662009ae78f21dd82fcd179","66620d75eb46cbfbd2bec3b4","null","","null","","","","","","","","./tasks/HMM-beads/Images/WhiteBeadChoiceCorrect.png","","","","","","","","","",""
"image-keyboard-response","292","1076122","0.0-3.0-6.0-1.0-0.52","5bc32eb1518d030001358396","6662009ae78f21dd82fcd179","66620d75eb46cbfbd2bec3b4","1363","","j","","","","","","","","./tasks/HMM-beads/Images/NewTrialWC.png","lowH","1","52","1","1","1","1","true","",""
"image-keyboard-response","293","1076427","0.0-3.0-6.0-1.0-1.52","5bc32eb1518d030001358396","6662009ae78f21dd82fcd179","66620d75eb46cbfbd2bec3b4","null","","null","","","","","","","","./tasks/HMM-beads/Images/WhiteBeadChoice.png","","","","","","","","","",""
"image-keyboard-response","294","1076933","0.0-3.0-6.0-1.0-2.52","5bc32eb1518d030001358396","6662009ae78f21dd82fcd179","66620d75eb46cbfbd2bec3b4","null","","null","","","","","","","","./tasks/HMM-beads/Images/WhiteBeadChoiceCorrect.png","","","","","","","","","",""
"image-keyboard-response","295","1077539","0.0-3.0-6.0-1.0-0.53","5bc32eb1518d030001358396","6662009ae78f21dd82fcd179","66620d75eb46cbfbd2bec3b4","602","","j","","","","","","","","./tasks/HMM-beads/Images/NewTrialWC.png","lowH","1","53","1","1","1","1","true","",""
"image-keyboard-response","296","1077856","0.0-3.0-6.0-1.0-1.53","5bc32eb1518d030001358396","6662009ae78f21dd82fcd179","66620d75eb46cbfbd2bec3b4","null","","null","","","","","","","","./tasks/HMM-beads/Images/WhiteBeadChoice.png","","","","","","","","","",""
"image-keyboard-response","297","1078362","0.0-3.0-6.0-1.0-2.53","5bc32eb1518d030001358396","6662009ae78f21dd82fcd179","66620d75eb46cbfbd2bec3b4","null","","null","","","","","","","","./tasks/HMM-beads/Images/WhiteBeadChoiceCorrect.png","","","","","","","","","",""
"image-keyboard-response","298","1080079","0.0-3.0-6.0-1.0-0.54","5bc32eb1518d030001358396","6662009ae78f21dd82fcd179","66620d75eb46cbfbd2bec3b4","1713","","j","","","","","","","","./tasks/HMM-beads/Images/NewTrialWC.png","lowH","1","54","1","1","1","1","true","",""
"image-keyboard-response","299","1080394","0.0-3.0-6.0-1.0-1.54","5bc32eb1518d030001358396","6662009ae78f21dd82fcd179","66620d75eb46cbfbd2bec3b4","null","","null","","","","","","","","./tasks/HMM-beads/Images/WhiteBeadChoice.png","","","","","","","","","",""
"image-keyboard-response","300","1080907","0.0-3.0-6.0-1.0-2.54","5bc32eb1518d030001358396","6662009ae78f21dd82fcd179","66620d75eb46cbfbd2bec3b4","null","","null","","","","","","","","./tasks/HMM-beads/Images/WhiteBeadChoiceCorrect.png","","","","","","","","","",""
"image-keyboard-response","301","1081699","0.0-3.0-6.0-1.0-0.55","5bc32eb1518d030001358396","6662009ae78f21dd82fcd179","66620d75eb46cbfbd2bec3b4","788","","j","","","","","","","","./tasks/HMM-beads/Images/NewTrialWC.png","lowH","1","55","1","1","1","1","true","",""
"image-keyboard-response","302","1082002","0.0-3.0-6.0-1.0-1.55","5bc32eb1518d030001358396","6662009ae78f21dd82fcd179","66620d75eb46cbfbd2bec3b4","null","","null","","","","","","","","./tasks/HMM-beads/Images/WhiteBeadChoice.png","","","","","","","","","",""
"image-keyboard-response","303","1082510","0.0-3.0-6.0-1.0-2.55","5bc32eb1518d030001358396","6662009ae78f21dd82fcd179","66620d75eb46cbfbd2bec3b4","null","","null","","","","","","","","./tasks/HMM-beads/Images/WhiteBeadChoiceCorrect.png","","","","","","","","","",""
"image-keyboard-response","304","1083107","0.0-3.0-6.0-1.0-0.56","5bc32eb1518d030001358396","6662009ae78f21dd82fcd179","66620d75eb46cbfbd2bec3b4","592","","j","","","","","","","","./tasks/HMM-beads/Images/NewTrialWC.png","lowH","1","56","1","1","1","1","true","",""
"image-keyboard-response","305","1083412","0.0-3.0-6.0-1.0-1.56","5bc32eb1518d030001358396","6662009ae78f21dd82fcd179","66620d75eb46cbfbd2bec3b4","null","","null","","","","","","","","./tasks/HMM-beads/Images/WhiteBeadChoice.png","","","","","","","","","",""
"image-keyboard-response","306","1083917","0.0-3.0-6.0-1.0-2.56","5bc32eb1518d030001358396","6662009ae78f21dd82fcd179","66620d75eb46cbfbd2bec3b4","null","","null","","","","","","","","./tasks/HMM-beads/Images/WhiteBeadChoiceCorrect.png","","","","","","","","","",""
"image-keyboard-response","307","1084284","0.0-3.0-6.0-1.0-0.57","5bc32eb1518d030001358396","6662009ae78f21dd82fcd179","66620d75eb46cbfbd2bec3b4","365","","j","","","","","","","","./tasks/HMM-beads/Images/NewTrialWC.png","lowH","1","57","1","1","1","1","true","",""
"image-keyboard-response","308","1084593","0.0-3.0-6.0-1.0-1.57","5bc32eb1518d030001358396","6662009ae78f21dd82fcd179","66620d75eb46cbfbd2bec3b4","null","","null","","","","","","","","./tasks/HMM-beads/Images/WhiteBeadChoice.png","","","","","","","","","",""
"image-keyboard-response","309","1085110","0.0-3.0-6.0-1.0-2.57","5bc32eb1518d030001358396","6662009ae78f21dd82fcd179","66620d75eb46cbfbd2bec3b4","null","","null","","","","","","","","./tasks/HMM-beads/Images/WhiteBeadChoiceCorrect.png","","","","","","","","","",""
"image-keyboard-response","310","1086169","0.0-3.0-6.0-1.0-0.58","5bc32eb1518d030001358396","6662009ae78f21dd82fcd179","66620d75eb46cbfbd2bec3b4","1057","","j","","","","","","","","./tasks/HMM-beads/Images/NewTrialWC.png","lowH","1","58","1","1","1","1","true","",""
"image-keyboard-response","311","1086484","0.0-3.0-6.0-1.0-1.58","5bc32eb1518d030001358396","6662009ae78f21dd82fcd179","66620d75eb46cbfbd2bec3b4","null","","null","","","","","","","","./tasks/HMM-beads/Images/WhiteBeadChoice.png","","","","","","","","","",""
"image-keyboard-response","312","1086989","0.0-3.0-6.0-1.0-2.58","5bc32eb1518d030001358396","6662009ae78f21dd82fcd179","66620d75eb46cbfbd2bec3b4","null","","null","","","","","","","","./tasks/HMM-beads/Images/WhiteBeadChoiceCorrect.png","","","","","","","","","",""
"image-keyboard-response","313","1088023","0.0-3.0-6.0-1.0-0.59","5bc32eb1518d030001358396","6662009ae78f21dd82fcd179","66620d75eb46cbfbd2bec3b4","1030","","j","","","","","","","","./tasks/HMM-beads/Images/NewTrialWC.png","lowH","1","59","1","0","1","1","false","",""
"image-keyboard-response","314","1088337","0.0-3.0-6.0-1.0-1.59","5bc32eb1518d030001358396","6662009ae78f21dd82fcd179","66620d75eb46cbfbd2bec3b4","null","","null","","","","","","","","./tasks/HMM-beads/Images/WhiteBeadChoice.png","","","","","","","","","",""
"image-keyboard-response","315","1088857","0.0-3.0-6.0-1.0-2.59","5bc32eb1518d030001358396","6662009ae78f21dd82fcd179","66620d75eb46cbfbd2bec3b4","null","","null","","","","","","","","./tasks/HMM-beads/Images/WhiteBeadChoiceWrong.png","","","","","","","","","",""
"image-keyboard-response","316","1091059","0.0-3.0-6.0-1.0-0.60","5bc32eb1518d030001358396","6662009ae78f21dd82fcd179","66620d75eb46cbfbd2bec3b4","2201","","j","","","","","","","","./tasks/HMM-beads/Images/NewTrialBC.png","lowH","1","60","1","1","0","1","true","",""
"image-keyboard-response","317","1091364","0.0-3.0-6.0-1.0-1.60","5bc32eb1518d030001358396","6662009ae78f21dd82fcd179","66620d75eb46cbfbd2bec3b4","null","","null","","","","","","","","./tasks/HMM-beads/Images/WhiteBeadChoice.png","","","","","","","","","",""
"image-keyboard-response","318","1091879","0.0-3.0-6.0-1.0-2.60","5bc32eb1518d030001358396","6662009ae78f21dd82fcd179","66620d75eb46cbfbd2bec3b4","null","","null","","","","","","","","./tasks/HMM-beads/Images/WhiteBeadChoiceCorrect.png","","","","","","","","","",""
"image-keyboard-response","319","1093569","0.0-3.0-6.0-1.0-0.61","5bc32eb1518d030001358396","6662009ae78f21dd82fcd179","66620d75eb46cbfbd2bec3b4","1686","","j","","","","","","","","./tasks/HMM-beads/Images/NewTrialWC.png","lowH","1","61","1","1","1","1","true","",""
"image-keyboard-response","320","1093877","0.0-3.0-6.0-1.0-1.61","5bc32eb1518d030001358396","6662009ae78f21dd82fcd179","66620d75eb46cbfbd2bec3b4","null","","null","","","","","","","","./tasks/HMM-beads/Images/WhiteBeadChoice.png","","","","","","","","","",""
"image-keyboard-response","321","1094380","0.0-3.0-6.0-1.0-2.61","5bc32eb1518d030001358396","6662009ae78f21dd82fcd179","66620d75eb46cbfbd2bec3b4","null","","null","","","","","","","","./tasks/HMM-beads/Images/WhiteBeadChoiceCorrect.png","","","","","","","","","",""
"image-keyboard-response","322","1095717","0.0-3.0-6.0-1.0-0.62","5bc32eb1518d030001358396","6662009ae78f21dd82fcd179","66620d75eb46cbfbd2bec3b4","1333","","j","","","","","","","","./tasks/HMM-beads/Images/NewTrialWC.png","lowH","1","62","1","0","1","1","false","",""
"image-keyboard-response","323","1096034","0.0-3.0-6.0-1.0-1.62","5bc32eb1518d030001358396","6662009ae78f21dd82fcd179","66620d75eb46cbfbd2bec3b4","null","","null","","","","","","","","./tasks/HMM-beads/Images/WhiteBeadChoice.png","","","","","","","","","",""
"image-keyboard-response","324","1096553","0.0-3.0-6.0-1.0-2.62","5bc32eb1518d030001358396","6662009ae78f21dd82fcd179","66620d75eb46cbfbd2bec3b4","null","","null","","","","","","","","./tasks/HMM-beads/Images/WhiteBeadChoiceWrong.png","","","","","","","","","",""
"image-keyboard-response","325","1099647","0.0-3.0-6.0-1.0-0.63","5bc32eb1518d030001358396","6662009ae78f21dd82fcd179","66620d75eb46cbfbd2bec3b4","3090","","f","","","","","","","","./tasks/HMM-beads/Images/NewTrialBC.png","lowH","1","63","1","1","0","0","false","",""
"image-keyboard-response","326","1099962","0.0-3.0-6.0-1.0-1.63","5bc32eb1518d030001358396","6662009ae78f21dd82fcd179","66620d75eb46cbfbd2bec3b4","null","","null","","","","","","","","./tasks/HMM-beads/Images/BlackBeadChoice.png","","","","","","","","","",""
"image-keyboard-response","327","1100477","0.0-3.0-6.0-1.0-2.63","5bc32eb1518d030001358396","6662009ae78f21dd82fcd179","66620d75eb46cbfbd2bec3b4","null","","null","","","","","","","","./tasks/HMM-beads/Images/BlackBeadChoiceWrong.png","","","","","","","","","",""
"image-keyboard-response","328","1101012","0.0-3.0-6.0-1.0-0.64","5bc32eb1518d030001358396","6662009ae78f21dd82fcd179","66620d75eb46cbfbd2bec3b4","531","","j","","","","","","","","./tasks/HMM-beads/Images/NewTrialWC.png","lowH","1","64","1","1","1","1","true","",""
"image-keyboard-response","329","1101330","0.0-3.0-6.0-1.0-1.64","5bc32eb1518d030001358396","6662009ae78f21dd82fcd179","66620d75eb46cbfbd2bec3b4","null","","null","","","","","","","","./tasks/HMM-beads/Images/WhiteBeadChoice.png","","","","","","","","","",""
"image-keyboard-response","330","1101843","0.0-3.0-6.0-1.0-2.64","5bc32eb1518d030001358396","6662009ae78f21dd82fcd179","66620d75eb46cbfbd2bec3b4","null","","null","","","","","","","","./tasks/HMM-beads/Images/WhiteBeadChoiceCorrect.png","","","","","","","","","",""
"image-keyboard-response","331","1102447","0.0-3.0-6.0-1.0-0.65","5bc32eb1518d030001358396","6662009ae78f21dd82fcd179","66620d75eb46cbfbd2bec3b4","603","","j","","","","","","","","./tasks/HMM-beads/Images/NewTrialWC.png","lowH","1","65","1","1","1","1","true","",""
"image-keyboard-response","332","1102763","0.0-3.0-6.0-1.0-1.65","5bc32eb1518d030001358396","6662009ae78f21dd82fcd179","66620d75eb46cbfbd2bec3b4","null","","null","","","","","","","","./tasks/HMM-beads/Images/WhiteBeadChoice.png","","","","","","","","","",""
"image-keyboard-response","333","1103277","0.0-3.0-6.0-1.0-2.65","5bc32eb1518d030001358396","6662009ae78f21dd82fcd179","66620d75eb46cbfbd2bec3b4","null","","null","","","","","","","","./tasks/HMM-beads/Images/WhiteBeadChoiceCorrect.png","","","","","","","","","",""
"image-keyboard-response","334","1104466","0.0-3.0-6.0-1.0-0.66","5bc32eb1518d030001358396","6662009ae78f21dd82fcd179","66620d75eb46cbfbd2bec3b4","1185","","j","","","","","","","","./tasks/HMM-beads/Images/NewTrialWC.png","lowH","1","66","1","1","1","1","true","",""
"image-keyboard-response","335","1104776","0.0-3.0-6.0-1.0-1.66","5bc32eb1518d030001358396","6662009ae78f21dd82fcd179","66620d75eb46cbfbd2bec3b4","null","","null","","","","","","","","./tasks/HMM-beads/Images/WhiteBeadChoice.png","","","","","","","","","",""
"image-keyboard-response","336","1105288","0.0-3.0-6.0-1.0-2.66","5bc32eb1518d030001358396","6662009ae78f21dd82fcd179","66620d75eb46cbfbd2bec3b4","null","","null","","","","","","","","./tasks/HMM-beads/Images/WhiteBeadChoiceCorrect.png","","","","","","","","","",""
"image-keyboard-response","337","1106438","0.0-3.0-6.0-1.0-0.67","5bc32eb1518d030001358396","6662009ae78f21dd82fcd179","66620d75eb46cbfbd2bec3b4","1146","","j","","","","","","","","./tasks/HMM-beads/Images/NewTrialWC.png","lowH","1","67","1","0","1","1","false","",""
"image-keyboard-response","338","1106745","0.0-3.0-6.0-1.0-1.67","5bc32eb1518d030001358396","6662009ae78f21dd82fcd179","66620d75eb46cbfbd2bec3b4","null","","null","","","","","","","","./tasks/HMM-beads/Images/WhiteBeadChoice.png","","","","","","","","","",""
"image-keyboard-response","339","1107260","0.0-3.0-6.0-1.0-2.67","5bc32eb1518d030001358396","6662009ae78f21dd82fcd179","66620d75eb46cbfbd2bec3b4","null","","null","","","","","","","","./tasks/HMM-beads/Images/WhiteBeadChoiceWrong.png","","","","","","","","","",""
"image-keyboard-response","340","1108963","0.0-3.0-6.0-1.0-0.68","5bc32eb1518d030001358396","6662009ae78f21dd82fcd179","66620d75eb46cbfbd2bec3b4","1701","","f","","","","","","","","./tasks/HMM-beads/Images/NewTrialBC.png","lowH","1","68","1","1","0","0","false","",""
"image-keyboard-response","341","1109281","0.0-3.0-6.0-1.0-1.68","5bc32eb1518d030001358396","6662009ae78f21dd82fcd179","66620d75eb46cbfbd2bec3b4","null","","null","","","","","","","","./tasks/HMM-beads/Images/BlackBeadChoice.png","","","","","","","","","",""
"image-keyboard-response","342","1109792","0.0-3.0-6.0-1.0-2.68","5bc32eb1518d030001358396","6662009ae78f21dd82fcd179","66620d75eb46cbfbd2bec3b4","null","","null","","","","","","","","./tasks/HMM-beads/Images/BlackBeadChoiceWrong.png","","","","","","","","","",""
"image-keyboard-response","343","1110472","0.0-3.0-6.0-1.0-0.69","5bc32eb1518d030001358396","6662009ae78f21dd82fcd179","66620d75eb46cbfbd2bec3b4","676","","j","","","","","","","","./tasks/HMM-beads/Images/NewTrialWC.png","lowH","1","69","0","1","1","1","true","",""
"image-keyboard-response","344","1110786","0.0-3.0-6.0-1.0-1.69","5bc32eb1518d030001358396","6662009ae78f21dd82fcd179","66620d75eb46cbfbd2bec3b4","null","","null","","","","","","","","./tasks/HMM-beads/Images/WhiteBeadChoice.png","","","","","","","","","",""
"image-keyboard-response","345","1111288","0.0-3.0-6.0-1.0-2.69","5bc32eb1518d030001358396","6662009ae78f21dd82fcd179","66620d75eb46cbfbd2bec3b4","null","","null","","","","","","","","./tasks/HMM-beads/Images/WhiteBeadChoiceCorrect.png","","","","","","","","","",""
"image-keyboard-response","346","1112384","0.0-3.0-6.0-1.0-0.70","5bc32eb1518d030001358396","6662009ae78f21dd82fcd179","66620d75eb46cbfbd2bec3b4","1093","","j","","","","","","","","./tasks/HMM-beads/Images/NewTrialWC.png","lowH","1","70","0","1","1","1","true","",""
"image-keyboard-response","347","1112690","0.0-3.0-6.0-1.0-1.70","5bc32eb1518d030001358396","6662009ae78f21dd82fcd179","66620d75eb46cbfbd2bec3b4","null","","null","","","","","","","","./tasks/HMM-beads/Images/WhiteBeadChoice.png","","","","","","","","","",""
"image-keyboard-response","348","1113200","0.0-3.0-6.0-1.0-2.70","5bc32eb1518d030001358396","6662009ae78f21dd82fcd179","66620d75eb46cbfbd2bec3b4","null","","null","","","","","","","","./tasks/HMM-beads/Images/WhiteBeadChoiceCorrect.png","","","","","","","","","",""
"image-keyboard-response","349","1114551","0.0-3.0-6.0-1.0-0.71","5bc32eb1518d030001358396","6662009ae78f21dd82fcd179","66620d75eb46cbfbd2bec3b4","1348","","j","","","","","","","","./tasks/HMM-beads/Images/NewTrialWC.png","lowH","1","71","0","0","1","1","false","",""
"image-keyboard-response","350","1114857","0.0-3.0-6.0-1.0-1.71","5bc32eb1518d030001358396","6662009ae78f21dd82fcd179","66620d75eb46cbfbd2bec3b4","null","","null","","","","","","","","./tasks/HMM-beads/Images/WhiteBeadChoice.png","","","","","","","","","",""
"image-keyboard-response","351","1115371","0.0-3.0-6.0-1.0-2.71","5bc32eb1518d030001358396","6662009ae78f21dd82fcd179","66620d75eb46cbfbd2bec3b4","null","","null","","","","","","","","./tasks/HMM-beads/Images/WhiteBeadChoiceWrong.png","","","","","","","","","",""
"image-keyboard-response","352","1116074","0.0-3.0-6.0-1.0-0.72","5bc32eb1518d030001358396","6662009ae78f21dd82fcd179","66620d75eb46cbfbd2bec3b4","698","","j","","","","","","","","./tasks/HMM-beads/Images/NewTrialBC.png","lowH","1","72","0","0","0","1","false","",""
"image-keyboard-response","353","1116381","0.0-3.0-6.0-1.0-1.72","5bc32eb1518d030001358396","6662009ae78f21dd82fcd179","66620d75eb46cbfbd2bec3b4","null","","null","","","","","","","","./tasks/HMM-beads/Images/WhiteBeadChoice.png","","","","","","","","","",""
"image-keyboard-response","354","1116903","0.0-3.0-6.0-1.0-2.72","5bc32eb1518d030001358396","6662009ae78f21dd82fcd179","66620d75eb46cbfbd2bec3b4","null","","null","","","","","","","","./tasks/HMM-beads/Images/WhiteBeadChoiceWrong.png","","","","","","","","","",""
"image-keyboard-response","355","1117309","0.0-3.0-6.0-1.0-0.73","5bc32eb1518d030001358396","6662009ae78f21dd82fcd179","66620d75eb46cbfbd2bec3b4","403","","f","","","","","","","","./tasks/HMM-beads/Images/NewTrialBC.png","lowH","1","73","0","1","0","0","false","",""
"image-keyboard-response","356","1117615","0.0-3.0-6.0-1.0-1.73","5bc32eb1518d030001358396","6662009ae78f21dd82fcd179","66620d75eb46cbfbd2bec3b4","null","","null","","","","","","","","./tasks/HMM-beads/Images/BlackBeadChoice.png","","","","","","","","","",""
"image-keyboard-response","357","1118130","0.0-3.0-6.0-1.0-2.73","5bc32eb1518d030001358396","6662009ae78f21dd82fcd179","66620d75eb46cbfbd2bec3b4","null","","null","","","","","","","","./tasks/HMM-beads/Images/BlackBeadChoiceWrong.png","","","","","","","","","",""
"image-keyboard-response","358","1118954","0.0-3.0-6.0-1.0-0.74","5bc32eb1518d030001358396","6662009ae78f21dd82fcd179","66620d75eb46cbfbd2bec3b4","821","","j","","","","","","","","./tasks/HMM-beads/Images/NewTrialWC.png","lowH","1","74","0","0","1","1","false","",""
"image-keyboard-response","359","1119256","0.0-3.0-6.0-1.0-1.74","5bc32eb1518d030001358396","6662009ae78f21dd82fcd179","66620d75eb46cbfbd2bec3b4","null","","null","","","","","","","","./tasks/HMM-beads/Images/WhiteBeadChoice.png","","","","","","","","","",""
"image-keyboard-response","360","1119770","0.0-3.0-6.0-1.0-2.74","5bc32eb1518d030001358396","6662009ae78f21dd82fcd179","66620d75eb46cbfbd2bec3b4","null","","null","","","","","","","","./tasks/HMM-beads/Images/WhiteBeadChoiceWrong.png","","","","","","","","","",""
"image-keyboard-response","361","1120416","0.0-3.0-6.0-1.0-0.75","5bc32eb1518d030001358396","6662009ae78f21dd82fcd179","66620d75eb46cbfbd2bec3b4","642","","j","","","","","","","","./tasks/HMM-beads/Images/NewTrialBC.png","lowH","1","75","0","1","0","1","true","",""
"image-keyboard-response","362","1120736","0.0-3.0-6.0-1.0-1.75","5bc32eb1518d030001358396","6662009ae78f21dd82fcd179","66620d75eb46cbfbd2bec3b4","null","","null","","","","","","","","./tasks/HMM-beads/Images/WhiteBeadChoice.png","","","","","","","","","",""
"image-keyboard-response","363","1121255","0.0-3.0-6.0-1.0-2.75","5bc32eb1518d030001358396","6662009ae78f21dd82fcd179","66620d75eb46cbfbd2bec3b4","null","","null","","","","","","","","./tasks/HMM-beads/Images/WhiteBeadChoiceCorrect.png","","","","","","","","","",""
"image-keyboard-response","364","1122067","0.0-3.0-6.0-1.0-0.76","5bc32eb1518d030001358396","6662009ae78f21dd82fcd179","66620d75eb46cbfbd2bec3b4","807","","j","","","","","","","","./tasks/HMM-beads/Images/NewTrialWC.png","lowH","1","76","0","1","1","1","true","",""
"image-keyboard-response","365","1122386","0.0-3.0-6.0-1.0-1.76","5bc32eb1518d030001358396","6662009ae78f21dd82fcd179","66620d75eb46cbfbd2bec3b4","null","","null","","","","","","","","./tasks/HMM-beads/Images/WhiteBeadChoice.png","","","","","","","","","",""
"image-keyboard-response","366","1122892","0.0-3.0-6.0-1.0-2.76","5bc32eb1518d030001358396","6662009ae78f21dd82fcd179","66620d75eb46cbfbd2bec3b4","null","","null","","","","","","","","./tasks/HMM-beads/Images/WhiteBeadChoiceCorrect.png","","","","","","","","","",""
"image-keyboard-response","367","1124232","0.0-3.0-6.0-1.0-0.77","5bc32eb1518d030001358396","6662009ae78f21dd82fcd179","66620d75eb46cbfbd2bec3b4","1336","","j","","","","","","","","./tasks/HMM-beads/Images/NewTrialWC.png","lowH","1","77","0","0","1","1","false","",""
"image-keyboard-response","368","1124550","0.0-3.0-6.0-1.0-1.77","5bc32eb1518d030001358396","6662009ae78f21dd82fcd179","66620d75eb46cbfbd2bec3b4","null","","null","","","","","","","","./tasks/HMM-beads/Images/WhiteBeadChoice.png","","","","","","","","","",""
"image-keyboard-response","369","1125063","0.0-3.0-6.0-1.0-2.77","5bc32eb1518d030001358396","6662009ae78f21dd82fcd179","66620d75eb46cbfbd2bec3b4","null","","null","","","","","","","","./tasks/HMM-beads/Images/WhiteBeadChoiceWrong.png","","","","","","","","","",""
"image-keyboard-response","370","1127086","0.0-3.0-6.0-1.0-0.78","5bc32eb1518d030001358396","6662009ae78f21dd82fcd179","66620d75eb46cbfbd2bec3b4","2021","","j","","","","","","","","./tasks/HMM-beads/Images/NewTrialBC.png","lowH","1","78","0","0","0","1","false","",""
"image-keyboard-response","371","1127402","0.0-3.0-6.0-1.0-1.78","5bc32eb1518d030001358396","6662009ae78f21dd82fcd179","66620d75eb46cbfbd2bec3b4","null","","null","","","","","","","","./tasks/HMM-beads/Images/WhiteBeadChoice.png","","","","","","","","","",""
"image-keyboard-response","372","1127907","0.0-3.0-6.0-1.0-2.78","5bc32eb1518d030001358396","6662009ae78f21dd82fcd179","66620d75eb46cbfbd2bec3b4","null","","null","","","","","","","","./tasks/HMM-beads/Images/WhiteBeadChoiceWrong.png","","","","","","","","","",""
"image-keyboard-response","373","1130830","0.0-3.0-6.0-1.0-0.79","5bc32eb1518d030001358396","6662009ae78f21dd82fcd179","66620d75eb46cbfbd2bec3b4","2919","","f","","","","","","","","./tasks/HMM-beads/Images/NewTrialBC.png","lowH","1","79","0","0","0","0","true","",""
