"trial_type","trial_index","time_elapsed","internal_node_id","subject_id","study_id","session_id","rt","url","response","question_order","view_history","success","timeout","failed_images","failed_audio","failed_video","stimulus","block","block_rep","trial_number","jar","bead","previous_bead","choice","correct","lowH_score","total_bonus"
"pavlovia","0","1045","0.0-0.0","650917227df766f0de543c1c","6662009ae78f21dd82fcd179","66620aef48a5138315f27020","","","","","","","","","","","","","","","","","","","","",""
"external-html","1","7141","0.0-1.0-0.0","650917227df766f0de543c1c","6662009ae78f21dd82fcd179","66620aef48a5138315f27020","5974","new_consent.html","","","","","","","","","","","","","","","","","","",""
"survey-multi-choice","2","11471","0.0-1.0-1.0","650917227df766f0de543c1c","6662009ae78f21dd82fcd179","66620aef48a5138315f27020","4329","","{""Q0"":""Male"",""Q1"":""White""}","[0,1]","","","","","","","","","","","","","","","","",""
"survey-text","3","13151","0.0-1.0-2.0","650917227df766f0de543c1c","6662009ae78f21dd82fcd179","66620aef48a5138315f27020","1678","","{""Q0"":""37""}","","","","","","","","","","","","","","","","","",""
"instructions","4","14954","0.0-2.0","650917227df766f0de543c1c","6662009ae78f21dd82fcd179","66620aef48a5138315f27020","1689","","","","[{""page_index"":0,""viewing_time"":1689}]","","","","","","","","","","","","","","","",""
"preload","5","15858","0.0-3.0-0.0","650917227df766f0de543c1c","6662009ae78f21dd82fcd179","66620aef48a5138315f27020","","","","","","true","false","[]","[]","[]","","","","","","","","","","",""
"instructions","6","81436","0.0-3.0-1.0","650917227df766f0de543c1c","6662009ae78f21dd82fcd179","66620aef48a5138315f27020","65578","","","","[{""page_index"":0,""viewing_time"":9746},{""page_index"":1,""viewing_time"":4171},{""page_index"":2,""viewing_time"":3408},{""page_index"":3,""viewing_time"":1595},{""page_index"":4,""viewing_time"":6611},{""page_index"":5,""viewing_time"":15771},{""page_index"":6,""viewing_time"":4846},{""page_index"":7,""viewing_time"":3712},{""page_index"":8,""viewing_time"":4658},{""page_index"":9,""viewing_time"":2844},{""page_index"":10,""viewing_time"":6157},{""page_index"":11,""viewing_time"":2059}]","","","","","","","","","","","","","","","",""
"html-button-response","7","83485","0.0-3.0-2.0-0.0-0.0","650917227df766f0de543c1c","6662009ae78f21dd82fcd179","66620aef48a5138315f27020","2049","","1","","","","","","","","<div align=center>Your goal is to predict…?<br><br></div>","","","","","","","","","",""
"html-button-response","8","87907","0.0-3.0-2.0-1.0-0.0","650917227df766f0de543c1c","6662009ae78f21dd82fcd179","66620aef48a5138315f27020","3006","","2","","","","","","","","<div align=center>In the jar with mostly white beads, there are ___% white beads and ___% black beads?<br><br></div>","","","","","","","","","",""
"html-button-response","9","92889","0.0-3.0-2.0-2.0-0.0","650917227df766f0de543c1c","6662009ae78f21dd82fcd179","66620aef48a5138315f27020","3852","","0","","","","","","","","<div align=center>When there is a 1% probability that the jars will switch, the next bead will most likely be drawn from the…<br><br></div>","","","","","","","","","",""
"html-button-response","10","96794","0.0-3.0-2.0-3.0-0.0","650917227df766f0de543c1c","6662009ae78f21dd82fcd179","66620aef48a5138315f27020","2777","","1","","","","","","","","<div align=center>When there is a 99% probability that the jars will switch, the next bead will most likely be drawn from the…<br><br></div>","","","","","","","","","",""
"instructions","11","102228","0.0-3.0-3.0","650917227df766f0de543c1c","6662009ae78f21dd82fcd179","66620aef48a5138315f27020","4402","","","","[{""page_index"":0,""viewing_time"":4401}]","","","","","","","","","","","","","","","",""
"html-keyboard-response","12","109052","0.0-3.0-4.0-0.0","650917227df766f0de543c1c","6662009ae78f21dd82fcd179","66620aef48a5138315f27020","6823",""," ","","","","","","","","<div align=center>In this practice block, there will be a <b>1% chance</b> that the jar on the next trial will be different from the jar on the current trial.<br><br></div>","","","","","","","","","",""
"image-keyboard-response","13","113778","0.0-3.0-4.0-1.0-0.0","650917227df766f0de543c1c","6662009ae78f21dd82fcd179","66620aef48a5138315f27020","4724","","f","","","","","","","","./tasks/HMM-beads/Images/NoChoice.png","practice","0","0","0","0","9","0","true","",""
"image-keyboard-response","14","114087","0.0-3.0-4.0-1.0-1.0","650917227df766f0de543c1c","6662009ae78f21dd82fcd179","66620aef48a5138315f27020","null","","null","","","","","","","","./tasks/HMM-beads/Images/BlackBeadChoice.png","","","","","","","","","",""
"image-keyboard-response","15","114597","0.0-3.0-4.0-1.0-2.0","650917227df766f0de543c1c","6662009ae78f21dd82fcd179","66620aef48a5138315f27020","null","","null","","","","","","","","./tasks/HMM-beads/Images/BlackBeadChoiceCorrect.png","","","","","","","","","",""
"image-keyboard-response","16","115638","0.0-3.0-4.0-1.0-0.1","650917227df766f0de543c1c","6662009ae78f21dd82fcd179","66620aef48a5138315f27020","1041","","f","","","","","","","","./tasks/HMM-beads/Images/NewTrialBC.png","practice","0","1","0","0","0","0","true","",""
"image-keyboard-response","17","115948","0.0-3.0-4.0-1.0-1.1","650917227df766f0de543c1c","6662009ae78f21dd82fcd179","66620aef48a5138315f27020","null","","null","","","","","","","","./tasks/HMM-beads/Images/BlackBeadChoice.png","","","","","","","","","",""
"image-keyboard-response","18","116458","0.0-3.0-4.0-1.0-2.1","650917227df766f0de543c1c","6662009ae78f21dd82fcd179","66620aef48a5138315f27020","null","","null","","","","","","","","./tasks/HMM-beads/Images/BlackBeadChoiceCorrect.png","","","","","","","","","",""
"image-keyboard-response","19","117248","0.0-3.0-4.0-1.0-0.2","650917227df766f0de543c1c","6662009ae78f21dd82fcd179","66620aef48a5138315f27020","789","","f","","","","","","","","./tasks/HMM-beads/Images/NewTrialBC.png","practice","0","2","0","1","0","0","false","",""
"image-keyboard-response","20","117559","0.0-3.0-4.0-1.0-1.2","650917227df766f0de543c1c","6662009ae78f21dd82fcd179","66620aef48a5138315f27020","null","","null","","","","","","","","./tasks/HMM-beads/Images/BlackBeadChoice.png","","","","","","","","","",""
"image-keyboard-response","21","118069","0.0-3.0-4.0-1.0-2.2","650917227df766f0de543c1c","6662009ae78f21dd82fcd179","66620aef48a5138315f27020","null","","null","","","","","","","","./tasks/HMM-beads/Images/BlackBeadChoiceWrong.png","","","","","","","","","",""
"image-keyboard-response","22","118815","0.0-3.0-4.0-1.0-0.3","650917227df766f0de543c1c","6662009ae78f21dd82fcd179","66620aef48a5138315f27020","746","","f","","","","","","","","./tasks/HMM-beads/Images/NewTrialWC.png","practice","0","3","0","0","1","0","true","",""
"image-keyboard-response","23","119123","0.0-3.0-4.0-1.0-1.3","650917227df766f0de543c1c","6662009ae78f21dd82fcd179","66620aef48a5138315f27020","null","","null","","","","","","","","./tasks/HMM-beads/Images/BlackBeadChoice.png","","","","","","","","","",""
"image-keyboard-response","24","119634","0.0-3.0-4.0-1.0-2.3","650917227df766f0de543c1c","6662009ae78f21dd82fcd179","66620aef48a5138315f27020","null","","null","","","","","","","","./tasks/HMM-beads/Images/BlackBeadChoiceCorrect.png","","","","","","","","","",""
"image-keyboard-response","25","120384","0.0-3.0-4.0-1.0-0.4","650917227df766f0de543c1c","6662009ae78f21dd82fcd179","66620aef48a5138315f27020","745","","f","","","","","","","","./tasks/HMM-beads/Images/NewTrialBC.png","practice","0","4","0","0","0","0","true","",""
"image-keyboard-response","26","120686","0.0-3.0-4.0-1.0-1.4","650917227df766f0de543c1c","6662009ae78f21dd82fcd179","66620aef48a5138315f27020","null","","null","","","","","","","","./tasks/HMM-beads/Images/BlackBeadChoice.png","","","","","","","","","",""
"image-keyboard-response","27","121198","0.0-3.0-4.0-1.0-2.4","650917227df766f0de543c1c","6662009ae78f21dd82fcd179","66620aef48a5138315f27020","null","","null","","","","","","","","./tasks/HMM-beads/Images/BlackBeadChoiceCorrect.png","","","","","","","","","",""
"image-keyboard-response","28","122029","0.0-3.0-4.0-1.0-0.5","650917227df766f0de543c1c","6662009ae78f21dd82fcd179","66620aef48a5138315f27020","831","","j","","","","","","","","./tasks/HMM-beads/Images/NewTrialBC.png","practice","0","5","0","1","0","1","true","",""
"image-keyboard-response","29","122341","0.0-3.0-4.0-1.0-1.5","650917227df766f0de543c1c","6662009ae78f21dd82fcd179","66620aef48a5138315f27020","null","","null","","","","","","","","./tasks/HMM-beads/Images/WhiteBeadChoice.png","","","","","","","","","",""
"image-keyboard-response","30","122852","0.0-3.0-4.0-1.0-2.5","650917227df766f0de543c1c","6662009ae78f21dd82fcd179","66620aef48a5138315f27020","null","","null","","","","","","","","./tasks/HMM-beads/Images/WhiteBeadChoiceCorrect.png","","","","","","","","","",""
"image-keyboard-response","31","123508","0.0-3.0-4.0-1.0-0.6","650917227df766f0de543c1c","6662009ae78f21dd82fcd179","66620aef48a5138315f27020","655","","f","","","","","","","","./tasks/HMM-beads/Images/NewTrialWC.png","practice","0","6","0","0","1","0","true","",""
"image-keyboard-response","32","123816","0.0-3.0-4.0-1.0-1.6","650917227df766f0de543c1c","6662009ae78f21dd82fcd179","66620aef48a5138315f27020","null","","null","","","","","","","","./tasks/HMM-beads/Images/BlackBeadChoice.png","","","","","","","","","",""
"image-keyboard-response","33","124327","0.0-3.0-4.0-1.0-2.6","650917227df766f0de543c1c","6662009ae78f21dd82fcd179","66620aef48a5138315f27020","null","","null","","","","","","","","./tasks/HMM-beads/Images/BlackBeadChoiceCorrect.png","","","","","","","","","",""
"image-keyboard-response","34","124850","0.0-3.0-4.0-1.0-0.7","650917227df766f0de543c1c","6662009ae78f21dd82fcd179","66620aef48a5138315f27020","522","","f","","","","","","","","./tasks/HMM-beads/Images/NewTrialBC.png","practice","0","7","0","0","0","0","true","",""
"image-keyboard-response","35","125156","0.0-3.0-4.0-1.0-1.7","650917227df766f0de543c1c","6662009ae78f21dd82fcd179","66620aef48a5138315f27020","null","","null","","","","","","","","./tasks/HMM-beads/Images/BlackBeadChoice.png","","","","","","","","","",""
"image-keyboard-response","36","125667","0.0-3.0-4.0-1.0-2.7","650917227df766f0de543c1c","6662009ae78f21dd82fcd179","66620aef48a5138315f27020","null","","null","","","","","","","","./tasks/HMM-beads/Images/BlackBeadChoiceCorrect.png","","","","","","","","","",""
"image-keyboard-response","37","126287","0.0-3.0-4.0-1.0-0.8","650917227df766f0de543c1c","6662009ae78f21dd82fcd179","66620aef48a5138315f27020","620","","f","","","","","","","","./tasks/HMM-beads/Images/NewTrialBC.png","practice","0","8","0","0","0","0","true","",""
"image-keyboard-response","38","126598","0.0-3.0-4.0-1.0-1.8","650917227df766f0de543c1c","6662009ae78f21dd82fcd179","66620aef48a5138315f27020","null","","null","","","","","","","","./tasks/HMM-beads/Images/BlackBeadChoice.png","","","","","","","","","",""
"image-keyboard-response","39","127109","0.0-3.0-4.0-1.0-2.8","650917227df766f0de543c1c","6662009ae78f21dd82fcd179","66620aef48a5138315f27020","null","","null","","","","","","","","./tasks/HMM-beads/Images/BlackBeadChoiceCorrect.png","","","","","","","","","",""
"image-keyboard-response","40","127611","0.0-3.0-4.0-1.0-0.9","650917227df766f0de543c1c","6662009ae78f21dd82fcd179","66620aef48a5138315f27020","502","","j","","","","","","","","./tasks/HMM-beads/Images/NewTrialBC.png","practice","0","9","0","1","0","1","true","",""
"image-keyboard-response","41","127921","0.0-3.0-4.0-1.0-1.9","650917227df766f0de543c1c","6662009ae78f21dd82fcd179","66620aef48a5138315f27020","null","","null","","","","","","","","./tasks/HMM-beads/Images/WhiteBeadChoice.png","","","","","","","","","",""
"image-keyboard-response","42","128434","0.0-3.0-4.0-1.0-2.9","650917227df766f0de543c1c","6662009ae78f21dd82fcd179","66620aef48a5138315f27020","null","","null","","","","","","","","./tasks/HMM-beads/Images/WhiteBeadChoiceCorrect.png","","","","","","","","","",""
"image-keyboard-response","43","128889","0.0-3.0-4.0-1.0-0.10","650917227df766f0de543c1c","6662009ae78f21dd82fcd179","66620aef48a5138315f27020","455","","f","","","","","","","","./tasks/HMM-beads/Images/NewTrialWC.png","practice","0","10","0","0","1","0","true","",""
"image-keyboard-response","44","129200","0.0-3.0-4.0-1.0-1.10","650917227df766f0de543c1c","6662009ae78f21dd82fcd179","66620aef48a5138315f27020","null","","null","","","","","","","","./tasks/HMM-beads/Images/BlackBeadChoice.png","","","","","","","","","",""
"image-keyboard-response","45","129711","0.0-3.0-4.0-1.0-2.10","650917227df766f0de543c1c","6662009ae78f21dd82fcd179","66620aef48a5138315f27020","null","","null","","","","","","","","./tasks/HMM-beads/Images/BlackBeadChoiceCorrect.png","","","","","","","","","",""
"image-keyboard-response","46","130132","0.0-3.0-4.0-1.0-0.11","650917227df766f0de543c1c","6662009ae78f21dd82fcd179","66620aef48a5138315f27020","421","","f","","","","","","","","./tasks/HMM-beads/Images/NewTrialBC.png","practice","0","11","0","1","0","0","false","",""
"image-keyboard-response","47","130446","0.0-3.0-4.0-1.0-1.11","650917227df766f0de543c1c","6662009ae78f21dd82fcd179","66620aef48a5138315f27020","null","","null","","","","","","","","./tasks/HMM-beads/Images/BlackBeadChoice.png","","","","","","","","","",""
"image-keyboard-response","48","130956","0.0-3.0-4.0-1.0-2.11","650917227df766f0de543c1c","6662009ae78f21dd82fcd179","66620aef48a5138315f27020","null","","null","","","","","","","","./tasks/HMM-beads/Images/BlackBeadChoiceWrong.png","","","","","","","","","",""
"image-keyboard-response","49","131444","0.0-3.0-4.0-1.0-0.12","650917227df766f0de543c1c","6662009ae78f21dd82fcd179","66620aef48a5138315f27020","487","","f","","","","","","","","./tasks/HMM-beads/Images/NewTrialWC.png","practice","0","12","0","0","1","0","true","",""
"image-keyboard-response","50","131754","0.0-3.0-4.0-1.0-1.12","650917227df766f0de543c1c","6662009ae78f21dd82fcd179","66620aef48a5138315f27020","null","","null","","","","","","","","./tasks/HMM-beads/Images/BlackBeadChoice.png","","","","","","","","","",""
"image-keyboard-response","51","132264","0.0-3.0-4.0-1.0-2.12","650917227df766f0de543c1c","6662009ae78f21dd82fcd179","66620aef48a5138315f27020","null","","null","","","","","","","","./tasks/HMM-beads/Images/BlackBeadChoiceCorrect.png","","","","","","","","","",""
"image-keyboard-response","52","132678","0.0-3.0-4.0-1.0-0.13","650917227df766f0de543c1c","6662009ae78f21dd82fcd179","66620aef48a5138315f27020","413","","f","","","","","","","","./tasks/HMM-beads/Images/NewTrialBC.png","practice","0","13","0","0","0","0","true","",""
"image-keyboard-response","53","132987","0.0-3.0-4.0-1.0-1.13","650917227df766f0de543c1c","6662009ae78f21dd82fcd179","66620aef48a5138315f27020","null","","null","","","","","","","","./tasks/HMM-beads/Images/BlackBeadChoice.png","","","","","","","","","",""
"image-keyboard-response","54","133496","0.0-3.0-4.0-1.0-2.13","650917227df766f0de543c1c","6662009ae78f21dd82fcd179","66620aef48a5138315f27020","null","","null","","","","","","","","./tasks/HMM-beads/Images/BlackBeadChoiceCorrect.png","","","","","","","","","",""
"image-keyboard-response","55","133959","0.0-3.0-4.0-1.0-0.14","650917227df766f0de543c1c","6662009ae78f21dd82fcd179","66620aef48a5138315f27020","462","","f","","","","","","","","./tasks/HMM-beads/Images/NewTrialBC.png","practice","0","14","0","0","0","0","true","",""
"image-keyboard-response","56","134263","0.0-3.0-4.0-1.0-1.14","650917227df766f0de543c1c","6662009ae78f21dd82fcd179","66620aef48a5138315f27020","null","","null","","","","","","","","./tasks/HMM-beads/Images/BlackBeadChoice.png","","","","","","","","","",""
"image-keyboard-response","57","134775","0.0-3.0-4.0-1.0-2.14","650917227df766f0de543c1c","6662009ae78f21dd82fcd179","66620aef48a5138315f27020","null","","null","","","","","","","","./tasks/HMM-beads/Images/BlackBeadChoiceCorrect.png","","","","","","","","","",""
"image-keyboard-response","58","135217","0.0-3.0-4.0-1.0-0.15","650917227df766f0de543c1c","6662009ae78f21dd82fcd179","66620aef48a5138315f27020","441","","j","","","","","","","","./tasks/HMM-beads/Images/NewTrialBC.png","practice","0","15","0","0","0","1","false","",""
"image-keyboard-response","59","135526","0.0-3.0-4.0-1.0-1.15","650917227df766f0de543c1c","6662009ae78f21dd82fcd179","66620aef48a5138315f27020","null","","null","","","","","","","","./tasks/HMM-beads/Images/WhiteBeadChoice.png","","","","","","","","","",""
"image-keyboard-response","60","136038","0.0-3.0-4.0-1.0-2.15","650917227df766f0de543c1c","6662009ae78f21dd82fcd179","66620aef48a5138315f27020","null","","null","","","","","","","","./tasks/HMM-beads/Images/WhiteBeadChoiceWrong.png","","","","","","","","","",""
"image-keyboard-response","61","136608","0.0-3.0-4.0-1.0-0.16","650917227df766f0de543c1c","6662009ae78f21dd82fcd179","66620aef48a5138315f27020","569","","f","","","","","","","","./tasks/HMM-beads/Images/NewTrialBC.png","practice","0","16","0","0","0","0","true","",""
"image-keyboard-response","62","136910","0.0-3.0-4.0-1.0-1.16","650917227df766f0de543c1c","6662009ae78f21dd82fcd179","66620aef48a5138315f27020","null","","null","","","","","","","","./tasks/HMM-beads/Images/BlackBeadChoice.png","","","","","","","","","",""
"image-keyboard-response","63","137420","0.0-3.0-4.0-1.0-2.16","650917227df766f0de543c1c","6662009ae78f21dd82fcd179","66620aef48a5138315f27020","null","","null","","","","","","","","./tasks/HMM-beads/Images/BlackBeadChoiceCorrect.png","","","","","","","","","",""
"image-keyboard-response","64","137813","0.0-3.0-4.0-1.0-0.17","650917227df766f0de543c1c","6662009ae78f21dd82fcd179","66620aef48a5138315f27020","388","","j","","","","","","","","./tasks/HMM-beads/Images/NewTrialBC.png","practice","0","17","0","0","0","1","false","",""
"image-keyboard-response","65","138127","0.0-3.0-4.0-1.0-1.17","650917227df766f0de543c1c","6662009ae78f21dd82fcd179","66620aef48a5138315f27020","null","","null","","","","","","","","./tasks/HMM-beads/Images/WhiteBeadChoice.png","","","","","","","","","",""
"image-keyboard-response","66","138639","0.0-3.0-4.0-1.0-2.17","650917227df766f0de543c1c","6662009ae78f21dd82fcd179","66620aef48a5138315f27020","null","","null","","","","","","","","./tasks/HMM-beads/Images/WhiteBeadChoiceWrong.png","","","","","","","","","",""
"image-keyboard-response","67","139093","0.0-3.0-4.0-1.0-0.18","650917227df766f0de543c1c","6662009ae78f21dd82fcd179","66620aef48a5138315f27020","453","","f","","","","","","","","./tasks/HMM-beads/Images/NewTrialBC.png","practice","0","18","0","1","0","0","false","",""
"image-keyboard-response","68","139407","0.0-3.0-4.0-1.0-1.18","650917227df766f0de543c1c","6662009ae78f21dd82fcd179","66620aef48a5138315f27020","null","","null","","","","","","","","./tasks/HMM-beads/Images/BlackBeadChoice.png","","","","","","","","","",""
"image-keyboard-response","69","139917","0.0-3.0-4.0-1.0-2.18","650917227df766f0de543c1c","6662009ae78f21dd82fcd179","66620aef48a5138315f27020","null","","null","","","","","","","","./tasks/HMM-beads/Images/BlackBeadChoiceWrong.png","","","","","","","","","",""
"image-keyboard-response","70","140358","0.0-3.0-4.0-1.0-0.19","650917227df766f0de543c1c","6662009ae78f21dd82fcd179","66620aef48a5138315f27020","441","","f","","","","","","","","./tasks/HMM-beads/Images/NewTrialWC.png","practice","0","19","0","0","1","0","true","",""
"image-keyboard-response","71","140669","0.0-3.0-4.0-1.0-1.19","650917227df766f0de543c1c","6662009ae78f21dd82fcd179","66620aef48a5138315f27020","null","","null","","","","","","","","./tasks/HMM-beads/Images/BlackBeadChoice.png","","","","","","","","","",""
"image-keyboard-response","72","141179","0.0-3.0-4.0-1.0-2.19","650917227df766f0de543c1c","6662009ae78f21dd82fcd179","66620aef48a5138315f27020","null","","null","","","","","","","","./tasks/HMM-beads/Images/BlackBeadChoiceCorrect.png","","","","","","","","","",""
"image-keyboard-response","73","141546","0.0-3.0-4.0-1.0-0.20","650917227df766f0de543c1c","6662009ae78f21dd82fcd179","66620aef48a5138315f27020","366","","f","","","","","","","","./tasks/HMM-beads/Images/NewTrialBC.png","practice","0","20","0","0","0","0","true","",""
"image-keyboard-response","74","141855","0.0-3.0-4.0-1.0-1.20","650917227df766f0de543c1c","6662009ae78f21dd82fcd179","66620aef48a5138315f27020","null","","null","","","","","","","","./tasks/HMM-beads/Images/BlackBeadChoice.png","","","","","","","","","",""
"image-keyboard-response","75","142365","0.0-3.0-4.0-1.0-2.20","650917227df766f0de543c1c","6662009ae78f21dd82fcd179","66620aef48a5138315f27020","null","","null","","","","","","","","./tasks/HMM-beads/Images/BlackBeadChoiceCorrect.png","","","","","","","","","",""
"image-keyboard-response","76","142775","0.0-3.0-4.0-1.0-0.21","650917227df766f0de543c1c","6662009ae78f21dd82fcd179","66620aef48a5138315f27020","410","","f","","","","","","","","./tasks/HMM-beads/Images/NewTrialBC.png","practice","0","21","0","1","0","0","false","",""
"image-keyboard-response","77","143086","0.0-3.0-4.0-1.0-1.21","650917227df766f0de543c1c","6662009ae78f21dd82fcd179","66620aef48a5138315f27020","null","","null","","","","","","","","./tasks/HMM-beads/Images/BlackBeadChoice.png","","","","","","","","","",""
"image-keyboard-response","78","143597","0.0-3.0-4.0-1.0-2.21","650917227df766f0de543c1c","6662009ae78f21dd82fcd179","66620aef48a5138315f27020","null","","null","","","","","","","","./tasks/HMM-beads/Images/BlackBeadChoiceWrong.png","","","","","","","","","",""
"image-keyboard-response","79","144015","0.0-3.0-4.0-1.0-0.22","650917227df766f0de543c1c","6662009ae78f21dd82fcd179","66620aef48a5138315f27020","417","","f","","","","","","","","./tasks/HMM-beads/Images/NewTrialWC.png","practice","0","22","1","1","1","0","false","",""
"image-keyboard-response","80","144318","0.0-3.0-4.0-1.0-1.22","650917227df766f0de543c1c","6662009ae78f21dd82fcd179","66620aef48a5138315f27020","null","","null","","","","","","","","./tasks/HMM-beads/Images/BlackBeadChoice.png","","","","","","","","","",""
"image-keyboard-response","81","144828","0.0-3.0-4.0-1.0-2.22","650917227df766f0de543c1c","6662009ae78f21dd82fcd179","66620aef48a5138315f27020","null","","null","","","","","","","","./tasks/HMM-beads/Images/BlackBeadChoiceWrong.png","","","","","","","","","",""
"image-keyboard-response","82","145212","0.0-3.0-4.0-1.0-0.23","650917227df766f0de543c1c","6662009ae78f21dd82fcd179","66620aef48a5138315f27020","384","","f","","","","","","","","./tasks/HMM-beads/Images/NewTrialWC.png","practice","0","23","1","0","1","0","true","",""
"image-keyboard-response","83","145519","0.0-3.0-4.0-1.0-1.23","650917227df766f0de543c1c","6662009ae78f21dd82fcd179","66620aef48a5138315f27020","null","","null","","","","","","","","./tasks/HMM-beads/Images/BlackBeadChoice.png","","","","","","","","","",""
"image-keyboard-response","84","146029","0.0-3.0-4.0-1.0-2.23","650917227df766f0de543c1c","6662009ae78f21dd82fcd179","66620aef48a5138315f27020","null","","null","","","","","","","","./tasks/HMM-beads/Images/BlackBeadChoiceCorrect.png","","","","","","","","","",""
"image-keyboard-response","85","146520","0.0-3.0-4.0-1.0-0.24","650917227df766f0de543c1c","6662009ae78f21dd82fcd179","66620aef48a5138315f27020","487","","f","","","","","","","","./tasks/HMM-beads/Images/NewTrialBC.png","practice","0","24","1","1","0","0","false","",""
"image-keyboard-response","86","146826","0.0-3.0-4.0-1.0-1.24","650917227df766f0de543c1c","6662009ae78f21dd82fcd179","66620aef48a5138315f27020","null","","null","","","","","","","","./tasks/HMM-beads/Images/BlackBeadChoice.png","","","","","","","","","",""
"image-keyboard-response","87","147336","0.0-3.0-4.0-1.0-2.24","650917227df766f0de543c1c","6662009ae78f21dd82fcd179","66620aef48a5138315f27020","null","","null","","","","","","","","./tasks/HMM-beads/Images/BlackBeadChoiceWrong.png","","","","","","","","","",""
"image-keyboard-response","88","147795","0.0-3.0-4.0-1.0-0.25","650917227df766f0de543c1c","6662009ae78f21dd82fcd179","66620aef48a5138315f27020","459","","j","","","","","","","","./tasks/HMM-beads/Images/NewTrialWC.png","practice","0","25","1","1","1","1","true","",""
"image-keyboard-response","89","148102","0.0-3.0-4.0-1.0-1.25","650917227df766f0de543c1c","6662009ae78f21dd82fcd179","66620aef48a5138315f27020","null","","null","","","","","","","","./tasks/HMM-beads/Images/WhiteBeadChoice.png","","","","","","","","","",""
"image-keyboard-response","90","148612","0.0-3.0-4.0-1.0-2.25","650917227df766f0de543c1c","6662009ae78f21dd82fcd179","66620aef48a5138315f27020","null","","null","","","","","","","","./tasks/HMM-beads/Images/WhiteBeadChoiceCorrect.png","","","","","","","","","",""
"image-keyboard-response","91","149133","0.0-3.0-4.0-1.0-0.26","650917227df766f0de543c1c","6662009ae78f21dd82fcd179","66620aef48a5138315f27020","520","","j","","","","","","","","./tasks/HMM-beads/Images/NewTrialWC.png","practice","0","26","1","1","1","1","true","",""
"image-keyboard-response","92","149438","0.0-3.0-4.0-1.0-1.26","650917227df766f0de543c1c","6662009ae78f21dd82fcd179","66620aef48a5138315f27020","null","","null","","","","","","","","./tasks/HMM-beads/Images/WhiteBeadChoice.png","","","","","","","","","",""
"image-keyboard-response","93","149948","0.0-3.0-4.0-1.0-2.26","650917227df766f0de543c1c","6662009ae78f21dd82fcd179","66620aef48a5138315f27020","null","","null","","","","","","","","./tasks/HMM-beads/Images/WhiteBeadChoiceCorrect.png","","","","","","","","","",""
"image-keyboard-response","94","150366","0.0-3.0-4.0-1.0-0.27","650917227df766f0de543c1c","6662009ae78f21dd82fcd179","66620aef48a5138315f27020","417","","j","","","","","","","","./tasks/HMM-beads/Images/NewTrialWC.png","practice","0","27","1","1","1","1","true","",""
"image-keyboard-response","95","150671","0.0-3.0-4.0-1.0-1.27","650917227df766f0de543c1c","6662009ae78f21dd82fcd179","66620aef48a5138315f27020","null","","null","","","","","","","","./tasks/HMM-beads/Images/WhiteBeadChoice.png","","","","","","","","","",""
"image-keyboard-response","96","151182","0.0-3.0-4.0-1.0-2.27","650917227df766f0de543c1c","6662009ae78f21dd82fcd179","66620aef48a5138315f27020","null","","null","","","","","","","","./tasks/HMM-beads/Images/WhiteBeadChoiceCorrect.png","","","","","","","","","",""
"image-keyboard-response","97","151562","0.0-3.0-4.0-1.0-0.28","650917227df766f0de543c1c","6662009ae78f21dd82fcd179","66620aef48a5138315f27020","379","","j","","","","","","","","./tasks/HMM-beads/Images/NewTrialWC.png","practice","0","28","1","0","1","1","false","",""
"image-keyboard-response","98","151876","0.0-3.0-4.0-1.0-1.28","650917227df766f0de543c1c","6662009ae78f21dd82fcd179","66620aef48a5138315f27020","null","","null","","","","","","","","./tasks/HMM-beads/Images/WhiteBeadChoice.png","","","","","","","","","",""
"image-keyboard-response","99","152389","0.0-3.0-4.0-1.0-2.28","650917227df766f0de543c1c","6662009ae78f21dd82fcd179","66620aef48a5138315f27020","null","","null","","","","","","","","./tasks/HMM-beads/Images/WhiteBeadChoiceWrong.png","","","","","","","","","",""
"image-keyboard-response","100","152811","0.0-3.0-4.0-1.0-0.29","650917227df766f0de543c1c","6662009ae78f21dd82fcd179","66620aef48a5138315f27020","422","","j","","","","","","","","./tasks/HMM-beads/Images/NewTrialBC.png","practice","0","29","1","1","0","1","true","",""
"image-keyboard-response","101","153127","0.0-3.0-4.0-1.0-1.29","650917227df766f0de543c1c","6662009ae78f21dd82fcd179","66620aef48a5138315f27020","null","","null","","","","","","","","./tasks/HMM-beads/Images/WhiteBeadChoice.png","","","","","","","","","",""
"image-keyboard-response","102","153637","0.0-3.0-4.0-1.0-2.29","650917227df766f0de543c1c","6662009ae78f21dd82fcd179","66620aef48a5138315f27020","null","","null","","","","","","","","./tasks/HMM-beads/Images/WhiteBeadChoiceCorrect.png","","","","","","","","","",""
"image-keyboard-response","103","154008","0.0-3.0-4.0-1.0-0.30","650917227df766f0de543c1c","6662009ae78f21dd82fcd179","66620aef48a5138315f27020","371","","j","","","","","","","","./tasks/HMM-beads/Images/NewTrialWC.png","practice","0","30","1","0","1","1","false","",""
"image-keyboard-response","104","154312","0.0-3.0-4.0-1.0-1.30","650917227df766f0de543c1c","6662009ae78f21dd82fcd179","66620aef48a5138315f27020","null","","null","","","","","","","","./tasks/HMM-beads/Images/WhiteBeadChoice.png","","","","","","","","","",""
"image-keyboard-response","105","154823","0.0-3.0-4.0-1.0-2.30","650917227df766f0de543c1c","6662009ae78f21dd82fcd179","66620aef48a5138315f27020","null","","null","","","","","","","","./tasks/HMM-beads/Images/WhiteBeadChoiceWrong.png","","","","","","","","","",""
"image-keyboard-response","106","155197","0.0-3.0-4.0-1.0-0.31","650917227df766f0de543c1c","6662009ae78f21dd82fcd179","66620aef48a5138315f27020","373","","j","","","","","","","","./tasks/HMM-beads/Images/NewTrialBC.png","practice","0","31","1","1","0","1","true","",""
"image-keyboard-response","107","155499","0.0-3.0-4.0-1.0-1.31","650917227df766f0de543c1c","6662009ae78f21dd82fcd179","66620aef48a5138315f27020","null","","null","","","","","","","","./tasks/HMM-beads/Images/WhiteBeadChoice.png","","","","","","","","","",""
"image-keyboard-response","108","156009","0.0-3.0-4.0-1.0-2.31","650917227df766f0de543c1c","6662009ae78f21dd82fcd179","66620aef48a5138315f27020","null","","null","","","","","","","","./tasks/HMM-beads/Images/WhiteBeadChoiceCorrect.png","","","","","","","","","",""
"image-keyboard-response","109","156378","0.0-3.0-4.0-1.0-0.32","650917227df766f0de543c1c","6662009ae78f21dd82fcd179","66620aef48a5138315f27020","369","","j","","","","","","","","./tasks/HMM-beads/Images/NewTrialWC.png","practice","0","32","1","1","1","1","true","",""
"image-keyboard-response","110","156686","0.0-3.0-4.0-1.0-1.32","650917227df766f0de543c1c","6662009ae78f21dd82fcd179","66620aef48a5138315f27020","null","","null","","","","","","","","./tasks/HMM-beads/Images/WhiteBeadChoice.png","","","","","","","","","",""
"image-keyboard-response","111","157197","0.0-3.0-4.0-1.0-2.32","650917227df766f0de543c1c","6662009ae78f21dd82fcd179","66620aef48a5138315f27020","null","","null","","","","","","","","./tasks/HMM-beads/Images/WhiteBeadChoiceCorrect.png","","","","","","","","","",""
"image-keyboard-response","112","157556","0.0-3.0-4.0-1.0-0.33","650917227df766f0de543c1c","6662009ae78f21dd82fcd179","66620aef48a5138315f27020","358","","j","","","","","","","","./tasks/HMM-beads/Images/NewTrialWC.png","practice","0","33","1","1","1","1","true","",""
"image-keyboard-response","113","157858","0.0-3.0-4.0-1.0-1.33","650917227df766f0de543c1c","6662009ae78f21dd82fcd179","66620aef48a5138315f27020","null","","null","","","","","","","","./tasks/HMM-beads/Images/WhiteBeadChoice.png","","","","","","","","","",""
"image-keyboard-response","114","158369","0.0-3.0-4.0-1.0-2.33","650917227df766f0de543c1c","6662009ae78f21dd82fcd179","66620aef48a5138315f27020","null","","null","","","","","","","","./tasks/HMM-beads/Images/WhiteBeadChoiceCorrect.png","","","","","","","","","",""
"image-keyboard-response","115","158714","0.0-3.0-4.0-1.0-0.34","650917227df766f0de543c1c","6662009ae78f21dd82fcd179","66620aef48a5138315f27020","344","","j","","","","","","","","./tasks/HMM-beads/Images/NewTrialWC.png","practice","0","34","1","1","1","1","true","",""
"image-keyboard-response","116","159016","0.0-3.0-4.0-1.0-1.34","650917227df766f0de543c1c","6662009ae78f21dd82fcd179","66620aef48a5138315f27020","null","","null","","","","","","","","./tasks/HMM-beads/Images/WhiteBeadChoice.png","","","","","","","","","",""
"image-keyboard-response","117","159527","0.0-3.0-4.0-1.0-2.34","650917227df766f0de543c1c","6662009ae78f21dd82fcd179","66620aef48a5138315f27020","null","","null","","","","","","","","./tasks/HMM-beads/Images/WhiteBeadChoiceCorrect.png","","","","","","","","","",""
"image-keyboard-response","118","159848","0.0-3.0-4.0-1.0-0.35","650917227df766f0de543c1c","6662009ae78f21dd82fcd179","66620aef48a5138315f27020","321","","j","","","","","","","","./tasks/HMM-beads/Images/NewTrialWC.png","practice","0","35","1","1","1","1","true","",""
"image-keyboard-response","119","160158","0.0-3.0-4.0-1.0-1.35","650917227df766f0de543c1c","6662009ae78f21dd82fcd179","66620aef48a5138315f27020","null","","null","","","","","","","","./tasks/HMM-beads/Images/WhiteBeadChoice.png","","","","","","","","","",""
"image-keyboard-response","120","160670","0.0-3.0-4.0-1.0-2.35","650917227df766f0de543c1c","6662009ae78f21dd82fcd179","66620aef48a5138315f27020","null","","null","","","","","","","","./tasks/HMM-beads/Images/WhiteBeadChoiceCorrect.png","","","","","","","","","",""
"image-keyboard-response","121","160991","0.0-3.0-4.0-1.0-0.36","650917227df766f0de543c1c","6662009ae78f21dd82fcd179","66620aef48a5138315f27020","321","","j","","","","","","","","./tasks/HMM-beads/Images/NewTrialWC.png","practice","0","36","1","0","1","1","false","",""
"image-keyboard-response","122","161302","0.0-3.0-4.0-1.0-1.36","650917227df766f0de543c1c","6662009ae78f21dd82fcd179","66620aef48a5138315f27020","null","","null","","","","","","","","./tasks/HMM-beads/Images/WhiteBeadChoice.png","","","","","","","","","",""
"image-keyboard-response","123","161813","0.0-3.0-4.0-1.0-2.36","650917227df766f0de543c1c","6662009ae78f21dd82fcd179","66620aef48a5138315f27020","null","","null","","","","","","","","./tasks/HMM-beads/Images/WhiteBeadChoiceWrong.png","","","","","","","","","",""
"image-keyboard-response","124","162920","0.0-3.0-4.0-1.0-0.37","650917227df766f0de543c1c","6662009ae78f21dd82fcd179","66620aef48a5138315f27020","1107","","f","","","","","","","","./tasks/HMM-beads/Images/NewTrialBC.png","practice","0","37","1","1","0","0","false","",""
"image-keyboard-response","125","163223","0.0-3.0-4.0-1.0-1.37","650917227df766f0de543c1c","6662009ae78f21dd82fcd179","66620aef48a5138315f27020","null","","null","","","","","","","","./tasks/HMM-beads/Images/BlackBeadChoice.png","","","","","","","","","",""
"image-keyboard-response","126","163733","0.0-3.0-4.0-1.0-2.37","650917227df766f0de543c1c","6662009ae78f21dd82fcd179","66620aef48a5138315f27020","null","","null","","","","","","","","./tasks/HMM-beads/Images/BlackBeadChoiceWrong.png","","","","","","","","","",""
"image-keyboard-response","127","164233","0.0-3.0-4.0-1.0-0.38","650917227df766f0de543c1c","6662009ae78f21dd82fcd179","66620aef48a5138315f27020","500","","j","","","","","","","","./tasks/HMM-beads/Images/NewTrialWC.png","practice","0","38","1","1","1","1","true","",""
"image-keyboard-response","128","164544","0.0-3.0-4.0-1.0-1.38","650917227df766f0de543c1c","6662009ae78f21dd82fcd179","66620aef48a5138315f27020","null","","null","","","","","","","","./tasks/HMM-beads/Images/WhiteBeadChoice.png","","","","","","","","","",""
"image-keyboard-response","129","165054","0.0-3.0-4.0-1.0-2.38","650917227df766f0de543c1c","6662009ae78f21dd82fcd179","66620aef48a5138315f27020","null","","null","","","","","","","","./tasks/HMM-beads/Images/WhiteBeadChoiceCorrect.png","","","","","","","","","",""
"image-keyboard-response","130","165342","0.0-3.0-4.0-1.0-0.39","650917227df766f0de543c1c","6662009ae78f21dd82fcd179","66620aef48a5138315f27020","288","","j","","","","","","","","./tasks/HMM-beads/Images/NewTrialWC.png","practice","0","39","1","1","1","1","true","",""
"image-keyboard-response","131","165654","0.0-3.0-4.0-1.0-1.39","650917227df766f0de543c1c","6662009ae78f21dd82fcd179","66620aef48a5138315f27020","null","","null","","","","","","","","./tasks/HMM-beads/Images/WhiteBeadChoice.png","","","","","","","","","",""
"image-keyboard-response","132","166165","0.0-3.0-4.0-1.0-2.39","650917227df766f0de543c1c","6662009ae78f21dd82fcd179","66620aef48a5138315f27020","null","","null","","","","","","","","./tasks/HMM-beads/Images/WhiteBeadChoiceCorrect.png","","","","","","","","","",""
"html-keyboard-response","133","168482","0.0-3.0-4.0-2.0","650917227df766f0de543c1c","6662009ae78f21dd82fcd179","66620aef48a5138315f27020","2317",""," ","","","","","","","","","","","","","","","","","",""
"instructions","134","179731","0.0-3.0-5.0","650917227df766f0de543c1c","6662009ae78f21dd82fcd179","66620aef48a5138315f27020","11249","","","","[{""page_index"":0,""viewing_time"":7879},{""page_index"":1,""viewing_time"":3370}]","","","","","","","","","","","","","","","",""
"html-keyboard-response","135","181699","0.0-3.0-6.0-0.0","650917227df766f0de543c1c","6662009ae78f21dd82fcd179","66620aef48a5138315f27020","1967",""," ","","","","","","","","<div align=center>In this block, there will be a <b>1% chance</b> that the jar on the next trial will be different from the jar on the current trial.<br><br></div>","","","","","","","","","",""
"image-keyboard-response","136","182649","0.0-3.0-6.0-1.0-0.0","650917227df766f0de543c1c","6662009ae78f21dd82fcd179","66620aef48a5138315f27020","950","","f","","","","","","","","./tasks/HMM-beads/Images/NoChoice.png","lowH","1","0","1","0","9","0","true","",""
"image-keyboard-response","137","182955","0.0-3.0-6.0-1.0-1.0","650917227df766f0de543c1c","6662009ae78f21dd82fcd179","66620aef48a5138315f27020","null","","null","","","","","","","","./tasks/HMM-beads/Images/BlackBeadChoice.png","","","","","","","","","",""
"image-keyboard-response","138","183467","0.0-3.0-6.0-1.0-2.0","650917227df766f0de543c1c","6662009ae78f21dd82fcd179","66620aef48a5138315f27020","null","","null","","","","","","","","./tasks/HMM-beads/Images/BlackBeadChoiceCorrect.png","","","","","","","","","",""
"image-keyboard-response","139","183828","0.0-3.0-6.0-1.0-0.1","650917227df766f0de543c1c","6662009ae78f21dd82fcd179","66620aef48a5138315f27020","360","","f","","","","","","","","./tasks/HMM-beads/Images/NewTrialBC.png","lowH","1","1","1","1","0","0","false","",""
"image-keyboard-response","140","184144","0.0-3.0-6.0-1.0-1.1","650917227df766f0de543c1c","6662009ae78f21dd82fcd179","66620aef48a5138315f27020","null","","null","","","","","","","","./tasks/HMM-beads/Images/BlackBeadChoice.png","","","","","","","","","",""
"image-keyboard-response","141","184655","0.0-3.0-6.0-1.0-2.1","650917227df766f0de543c1c","6662009ae78f21dd82fcd179","66620aef48a5138315f27020","null","","null","","","","","","","","./tasks/HMM-beads/Images/BlackBeadChoiceWrong.png","","","","","","","","","",""
"image-keyboard-response","142","185514","0.0-3.0-6.0-1.0-0.2","650917227df766f0de543c1c","6662009ae78f21dd82fcd179","66620aef48a5138315f27020","858","","f","","","","","","","","./tasks/HMM-beads/Images/NewTrialWC.png","lowH","1","2","1","1","1","0","false","",""
"image-keyboard-response","143","185829","0.0-3.0-6.0-1.0-1.2","650917227df766f0de543c1c","6662009ae78f21dd82fcd179","66620aef48a5138315f27020","null","","null","","","","","","","","./tasks/HMM-beads/Images/BlackBeadChoice.png","","","","","","","","","",""
"image-keyboard-response","144","186341","0.0-3.0-6.0-1.0-2.2","650917227df766f0de543c1c","6662009ae78f21dd82fcd179","66620aef48a5138315f27020","null","","null","","","","","","","","./tasks/HMM-beads/Images/BlackBeadChoiceWrong.png","","","","","","","","","",""
"image-keyboard-response","145","186651","0.0-3.0-6.0-1.0-0.3","650917227df766f0de543c1c","6662009ae78f21dd82fcd179","66620aef48a5138315f27020","310","","j","","","","","","","","./tasks/HMM-beads/Images/NewTrialWC.png","lowH","1","3","1","1","1","1","true","",""
"image-keyboard-response","146","186958","0.0-3.0-6.0-1.0-1.3","650917227df766f0de543c1c","6662009ae78f21dd82fcd179","66620aef48a5138315f27020","null","","null","","","","","","","","./tasks/HMM-beads/Images/WhiteBeadChoice.png","","","","","","","","","",""
"image-keyboard-response","147","187469","0.0-3.0-6.0-1.0-2.3","650917227df766f0de543c1c","6662009ae78f21dd82fcd179","66620aef48a5138315f27020","null","","null","","","","","","","","./tasks/HMM-beads/Images/WhiteBeadChoiceCorrect.png","","","","","","","","","",""
"image-keyboard-response","148","187816","0.0-3.0-6.0-1.0-0.4","650917227df766f0de543c1c","6662009ae78f21dd82fcd179","66620aef48a5138315f27020","346","","j","","","","","","","","./tasks/HMM-beads/Images/NewTrialWC.png","lowH","1","4","1","1","1","1","true","",""
"image-keyboard-response","149","188132","0.0-3.0-6.0-1.0-1.4","650917227df766f0de543c1c","6662009ae78f21dd82fcd179","66620aef48a5138315f27020","null","","null","","","","","","","","./tasks/HMM-beads/Images/WhiteBeadChoice.png","","","","","","","","","",""
"image-keyboard-response","150","188644","0.0-3.0-6.0-1.0-2.4","650917227df766f0de543c1c","6662009ae78f21dd82fcd179","66620aef48a5138315f27020","null","","null","","","","","","","","./tasks/HMM-beads/Images/WhiteBeadChoiceCorrect.png","","","","","","","","","",""
"image-keyboard-response","151","189114","0.0-3.0-6.0-1.0-0.5","650917227df766f0de543c1c","6662009ae78f21dd82fcd179","66620aef48a5138315f27020","469","","f","","","","","","","","./tasks/HMM-beads/Images/NewTrialWC.png","lowH","1","5","1","1","1","0","false","",""
"image-keyboard-response","152","189424","0.0-3.0-6.0-1.0-1.5","650917227df766f0de543c1c","6662009ae78f21dd82fcd179","66620aef48a5138315f27020","null","","null","","","","","","","","./tasks/HMM-beads/Images/BlackBeadChoice.png","","","","","","","","","",""
"image-keyboard-response","153","189935","0.0-3.0-6.0-1.0-2.5","650917227df766f0de543c1c","6662009ae78f21dd82fcd179","66620aef48a5138315f27020","null","","null","","","","","","","","./tasks/HMM-beads/Images/BlackBeadChoiceWrong.png","","","","","","","","","",""
"image-keyboard-response","154","190301","0.0-3.0-6.0-1.0-0.6","650917227df766f0de543c1c","6662009ae78f21dd82fcd179","66620aef48a5138315f27020","366","","f","","","","","","","","./tasks/HMM-beads/Images/NewTrialWC.png","lowH","1","6","1","0","1","0","true","",""
"image-keyboard-response","155","190610","0.0-3.0-6.0-1.0-1.6","650917227df766f0de543c1c","6662009ae78f21dd82fcd179","66620aef48a5138315f27020","null","","null","","","","","","","","./tasks/HMM-beads/Images/BlackBeadChoice.png","","","","","","","","","",""
"image-keyboard-response","156","191120","0.0-3.0-6.0-1.0-2.6","650917227df766f0de543c1c","6662009ae78f21dd82fcd179","66620aef48a5138315f27020","null","","null","","","","","","","","./tasks/HMM-beads/Images/BlackBeadChoiceCorrect.png","","","","","","","","","",""
"image-keyboard-response","157","191444","0.0-3.0-6.0-1.0-0.7","650917227df766f0de543c1c","6662009ae78f21dd82fcd179","66620aef48a5138315f27020","322","","j","","","","","","","","./tasks/HMM-beads/Images/NewTrialBC.png","lowH","1","7","1","1","0","1","true","",""
"image-keyboard-response","158","191752","0.0-3.0-6.0-1.0-1.7","650917227df766f0de543c1c","6662009ae78f21dd82fcd179","66620aef48a5138315f27020","null","","null","","","","","","","","./tasks/HMM-beads/Images/WhiteBeadChoice.png","","","","","","","","","",""
"image-keyboard-response","159","192263","0.0-3.0-6.0-1.0-2.7","650917227df766f0de543c1c","6662009ae78f21dd82fcd179","66620aef48a5138315f27020","null","","null","","","","","","","","./tasks/HMM-beads/Images/WhiteBeadChoiceCorrect.png","","","","","","","","","",""
"image-keyboard-response","160","192570","0.0-3.0-6.0-1.0-0.8","650917227df766f0de543c1c","6662009ae78f21dd82fcd179","66620aef48a5138315f27020","306","","j","","","","","","","","./tasks/HMM-beads/Images/NewTrialWC.png","lowH","1","8","1","1","1","1","true","",""
"image-keyboard-response","161","192881","0.0-3.0-6.0-1.0-1.8","650917227df766f0de543c1c","6662009ae78f21dd82fcd179","66620aef48a5138315f27020","null","","null","","","","","","","","./tasks/HMM-beads/Images/WhiteBeadChoice.png","","","","","","","","","",""
"image-keyboard-response","162","193392","0.0-3.0-6.0-1.0-2.8","650917227df766f0de543c1c","6662009ae78f21dd82fcd179","66620aef48a5138315f27020","null","","null","","","","","","","","./tasks/HMM-beads/Images/WhiteBeadChoiceCorrect.png","","","","","","","","","",""
"image-keyboard-response","163","193674","0.0-3.0-6.0-1.0-0.9","650917227df766f0de543c1c","6662009ae78f21dd82fcd179","66620aef48a5138315f27020","282","","j","","","","","","","","./tasks/HMM-beads/Images/NewTrialWC.png","lowH","1","9","1","1","1","1","true","",""
"image-keyboard-response","164","193979","0.0-3.0-6.0-1.0-1.9","650917227df766f0de543c1c","6662009ae78f21dd82fcd179","66620aef48a5138315f27020","null","","null","","","","","","","","./tasks/HMM-beads/Images/WhiteBeadChoice.png","","","","","","","","","",""
"image-keyboard-response","165","194490","0.0-3.0-6.0-1.0-2.9","650917227df766f0de543c1c","6662009ae78f21dd82fcd179","66620aef48a5138315f27020","null","","null","","","","","","","","./tasks/HMM-beads/Images/WhiteBeadChoiceCorrect.png","","","","","","","","","",""
"image-keyboard-response","166","194835","0.0-3.0-6.0-1.0-0.10","650917227df766f0de543c1c","6662009ae78f21dd82fcd179","66620aef48a5138315f27020","341","","j","","","","","","","","./tasks/HMM-beads/Images/NewTrialWC.png","lowH","1","10","1","1","1","1","true","",""
"image-keyboard-response","167","195136","0.0-3.0-6.0-1.0-1.10","650917227df766f0de543c1c","6662009ae78f21dd82fcd179","66620aef48a5138315f27020","null","","null","","","","","","","","./tasks/HMM-beads/Images/WhiteBeadChoice.png","","","","","","","","","",""
"image-keyboard-response","168","195648","0.0-3.0-6.0-1.0-2.10","650917227df766f0de543c1c","6662009ae78f21dd82fcd179","66620aef48a5138315f27020","null","","null","","","","","","","","./tasks/HMM-beads/Images/WhiteBeadChoiceCorrect.png","","","","","","","","","",""
"image-keyboard-response","169","195985","0.0-3.0-6.0-1.0-0.11","650917227df766f0de543c1c","6662009ae78f21dd82fcd179","66620aef48a5138315f27020","337","","f","","","","","","","","./tasks/HMM-beads/Images/NewTrialWC.png","lowH","1","11","1","1","1","0","false","",""
"image-keyboard-response","170","196293","0.0-3.0-6.0-1.0-1.11","650917227df766f0de543c1c","6662009ae78f21dd82fcd179","66620aef48a5138315f27020","null","","null","","","","","","","","./tasks/HMM-beads/Images/BlackBeadChoice.png","","","","","","","","","",""
"image-keyboard-response","171","196804","0.0-3.0-6.0-1.0-2.11","650917227df766f0de543c1c","6662009ae78f21dd82fcd179","66620aef48a5138315f27020","null","","null","","","","","","","","./tasks/HMM-beads/Images/BlackBeadChoiceWrong.png","","","","","","","","","",""
"image-keyboard-response","172","197145","0.0-3.0-6.0-1.0-0.12","650917227df766f0de543c1c","6662009ae78f21dd82fcd179","66620aef48a5138315f27020","341","","f","","","","","","","","./tasks/HMM-beads/Images/NewTrialWC.png","lowH","1","12","1","1","1","0","false","",""
"image-keyboard-response","173","197449","0.0-3.0-6.0-1.0-1.12","650917227df766f0de543c1c","6662009ae78f21dd82fcd179","66620aef48a5138315f27020","null","","null","","","","","","","","./tasks/HMM-beads/Images/BlackBeadChoice.png","","","","","","","","","",""
"image-keyboard-response","174","197959","0.0-3.0-6.0-1.0-2.12","650917227df766f0de543c1c","6662009ae78f21dd82fcd179","66620aef48a5138315f27020","null","","null","","","","","","","","./tasks/HMM-beads/Images/BlackBeadChoiceWrong.png","","","","","","","","","",""
"image-keyboard-response","175","198270","0.0-3.0-6.0-1.0-0.13","650917227df766f0de543c1c","6662009ae78f21dd82fcd179","66620aef48a5138315f27020","311","","j","","","","","","","","./tasks/HMM-beads/Images/NewTrialWC.png","lowH","1","13","1","0","1","1","false","",""
"image-keyboard-response","176","198574","0.0-3.0-6.0-1.0-1.13","650917227df766f0de543c1c","6662009ae78f21dd82fcd179","66620aef48a5138315f27020","null","","null","","","","","","","","./tasks/HMM-beads/Images/WhiteBeadChoice.png","","","","","","","","","",""
"image-keyboard-response","177","199085","0.0-3.0-6.0-1.0-2.13","650917227df766f0de543c1c","6662009ae78f21dd82fcd179","66620aef48a5138315f27020","null","","null","","","","","","","","./tasks/HMM-beads/Images/WhiteBeadChoiceWrong.png","","","","","","","","","",""
"image-keyboard-response","178","199379","0.0-3.0-6.0-1.0-0.14","650917227df766f0de543c1c","6662009ae78f21dd82fcd179","66620aef48a5138315f27020","293","","j","","","","","","","","./tasks/HMM-beads/Images/NewTrialBC.png","lowH","1","14","1","0","0","1","false","",""
"image-keyboard-response","179","199687","0.0-3.0-6.0-1.0-1.14","650917227df766f0de543c1c","6662009ae78f21dd82fcd179","66620aef48a5138315f27020","null","","null","","","","","","","","./tasks/HMM-beads/Images/WhiteBeadChoice.png","","","","","","","","","",""
"image-keyboard-response","180","200197","0.0-3.0-6.0-1.0-2.14","650917227df766f0de543c1c","6662009ae78f21dd82fcd179","66620aef48a5138315f27020","null","","null","","","","","","","","./tasks/HMM-beads/Images/WhiteBeadChoiceWrong.png","","","","","","","","","",""
"image-keyboard-response","181","200555","0.0-3.0-6.0-1.0-0.15","650917227df766f0de543c1c","6662009ae78f21dd82fcd179","66620aef48a5138315f27020","357","","j","","","","","","","","./tasks/HMM-beads/Images/NewTrialBC.png","lowH","1","15","1","1","0","1","true","",""
"image-keyboard-response","182","200862","0.0-3.0-6.0-1.0-1.15","650917227df766f0de543c1c","6662009ae78f21dd82fcd179","66620aef48a5138315f27020","null","","null","","","","","","","","./tasks/HMM-beads/Images/WhiteBeadChoice.png","","","","","","","","","",""
"image-keyboard-response","183","201373","0.0-3.0-6.0-1.0-2.15","650917227df766f0de543c1c","6662009ae78f21dd82fcd179","66620aef48a5138315f27020","null","","null","","","","","","","","./tasks/HMM-beads/Images/WhiteBeadChoiceCorrect.png","","","","","","","","","",""
"image-keyboard-response","184","201616","0.0-3.0-6.0-1.0-0.16","650917227df766f0de543c1c","6662009ae78f21dd82fcd179","66620aef48a5138315f27020","242","","j","","","","","","","","./tasks/HMM-beads/Images/NewTrialWC.png","lowH","1","16","1","1","1","1","true","",""
"image-keyboard-response","185","201917","0.0-3.0-6.0-1.0-1.16","650917227df766f0de543c1c","6662009ae78f21dd82fcd179","66620aef48a5138315f27020","null","","null","","","","","","","","./tasks/HMM-beads/Images/WhiteBeadChoice.png","","","","","","","","","",""
"image-keyboard-response","186","202428","0.0-3.0-6.0-1.0-2.16","650917227df766f0de543c1c","6662009ae78f21dd82fcd179","66620aef48a5138315f27020","null","","null","","","","","","","","./tasks/HMM-beads/Images/WhiteBeadChoiceCorrect.png","","","","","","","","","",""
"image-keyboard-response","187","202736","0.0-3.0-6.0-1.0-0.17","650917227df766f0de543c1c","6662009ae78f21dd82fcd179","66620aef48a5138315f27020","308","","j","","","","","","","","./tasks/HMM-beads/Images/NewTrialWC.png","lowH","1","17","1","1","1","1","true","",""
"image-keyboard-response","188","203042","0.0-3.0-6.0-1.0-1.17","650917227df766f0de543c1c","6662009ae78f21dd82fcd179","66620aef48a5138315f27020","null","","null","","","","","","","","./tasks/HMM-beads/Images/WhiteBeadChoice.png","","","","","","","","","",""
"image-keyboard-response","189","203554","0.0-3.0-6.0-1.0-2.17","650917227df766f0de543c1c","6662009ae78f21dd82fcd179","66620aef48a5138315f27020","null","","null","","","","","","","","./tasks/HMM-beads/Images/WhiteBeadChoiceCorrect.png","","","","","","","","","",""
"image-keyboard-response","190","203831","0.0-3.0-6.0-1.0-0.18","650917227df766f0de543c1c","6662009ae78f21dd82fcd179","66620aef48a5138315f27020","276","","j","","","","","","","","./tasks/HMM-beads/Images/NewTrialWC.png","lowH","1","18","1","1","1","1","true","",""
"image-keyboard-response","191","204140","0.0-3.0-6.0-1.0-1.18","650917227df766f0de543c1c","6662009ae78f21dd82fcd179","66620aef48a5138315f27020","null","","null","","","","","","","","./tasks/HMM-beads/Images/WhiteBeadChoice.png","","","","","","","","","",""
"image-keyboard-response","192","204650","0.0-3.0-6.0-1.0-2.18","650917227df766f0de543c1c","6662009ae78f21dd82fcd179","66620aef48a5138315f27020","null","","null","","","","","","","","./tasks/HMM-beads/Images/WhiteBeadChoiceCorrect.png","","","","","","","","","",""
"image-keyboard-response","193","204861","0.0-3.0-6.0-1.0-0.19","650917227df766f0de543c1c","6662009ae78f21dd82fcd179","66620aef48a5138315f27020","210","","j","","","","","","","","./tasks/HMM-beads/Images/NewTrialWC.png","lowH","1","19","1","1","1","1","true","",""
"image-keyboard-response","194","205176","0.0-3.0-6.0-1.0-1.19","650917227df766f0de543c1c","6662009ae78f21dd82fcd179","66620aef48a5138315f27020","null","","null","","","","","","","","./tasks/HMM-beads/Images/WhiteBeadChoice.png","","","","","","","","","",""
"image-keyboard-response","195","205687","0.0-3.0-6.0-1.0-2.19","650917227df766f0de543c1c","6662009ae78f21dd82fcd179","66620aef48a5138315f27020","null","","null","","","","","","","","./tasks/HMM-beads/Images/WhiteBeadChoiceCorrect.png","","","","","","","","","",""
"image-keyboard-response","196","205948","0.0-3.0-6.0-1.0-0.20","650917227df766f0de543c1c","6662009ae78f21dd82fcd179","66620aef48a5138315f27020","261","","f","","","","","","","","./tasks/HMM-beads/Images/NewTrialWC.png","lowH","1","20","1","1","1","0","false","",""
"image-keyboard-response","197","206258","0.0-3.0-6.0-1.0-1.20","650917227df766f0de543c1c","6662009ae78f21dd82fcd179","66620aef48a5138315f27020","null","","null","","","","","","","","./tasks/HMM-beads/Images/BlackBeadChoice.png","","","","","","","","","",""
"image-keyboard-response","198","206770","0.0-3.0-6.0-1.0-2.20","650917227df766f0de543c1c","6662009ae78f21dd82fcd179","66620aef48a5138315f27020","null","","null","","","","","","","","./tasks/HMM-beads/Images/BlackBeadChoiceWrong.png","","","","","","","","","",""
"image-keyboard-response","199","207001","0.0-3.0-6.0-1.0-0.21","650917227df766f0de543c1c","6662009ae78f21dd82fcd179","66620aef48a5138315f27020","231","","f","","","","","","","","./tasks/HMM-beads/Images/NewTrialWC.png","lowH","1","21","1","1","1","0","false","",""
"image-keyboard-response","200","207312","0.0-3.0-6.0-1.0-1.21","650917227df766f0de543c1c","6662009ae78f21dd82fcd179","66620aef48a5138315f27020","null","","null","","","","","","","","./tasks/HMM-beads/Images/BlackBeadChoice.png","","","","","","","","","",""
"image-keyboard-response","201","207823","0.0-3.0-6.0-1.0-2.21","650917227df766f0de543c1c","6662009ae78f21dd82fcd179","66620aef48a5138315f27020","null","","null","","","","","","","","./tasks/HMM-beads/Images/BlackBeadChoiceWrong.png","","","","","","","","","",""
"image-keyboard-response","202","208115","0.0-3.0-6.0-1.0-0.22","650917227df766f0de543c1c","6662009ae78f21dd82fcd179","66620aef48a5138315f27020","292","","j","","","","","","","","./tasks/HMM-beads/Images/NewTrialWC.png","lowH","1","22","1","1","1","1","true","",""
"image-keyboard-response","203","208425","0.0-3.0-6.0-1.0-1.22","650917227df766f0de543c1c","6662009ae78f21dd82fcd179","66620aef48a5138315f27020","null","","null","","","","","","","","./tasks/HMM-beads/Images/WhiteBeadChoice.png","","","","","","","","","",""
"image-keyboard-response","204","208935","0.0-3.0-6.0-1.0-2.22","650917227df766f0de543c1c","6662009ae78f21dd82fcd179","66620aef48a5138315f27020","null","","null","","","","","","","","./tasks/HMM-beads/Images/WhiteBeadChoiceCorrect.png","","","","","","","","","",""
"image-keyboard-response","205","209212","0.0-3.0-6.0-1.0-0.23","650917227df766f0de543c1c","6662009ae78f21dd82fcd179","66620aef48a5138315f27020","273","","j","","","","","","","","./tasks/HMM-beads/Images/NewTrialWC.png","lowH","1","23","1","1","1","1","true","",""
"image-keyboard-response","206","209521","0.0-3.0-6.0-1.0-1.23","650917227df766f0de543c1c","6662009ae78f21dd82fcd179","66620aef48a5138315f27020","null","","null","","","","","","","","./tasks/HMM-beads/Images/WhiteBeadChoice.png","","","","","","","","","",""
"image-keyboard-response","207","210031","0.0-3.0-6.0-1.0-2.23","650917227df766f0de543c1c","6662009ae78f21dd82fcd179","66620aef48a5138315f27020","null","","null","","","","","","","","./tasks/HMM-beads/Images/WhiteBeadChoiceCorrect.png","","","","","","","","","",""
"image-keyboard-response","208","210471","0.0-3.0-6.0-1.0-0.24","650917227df766f0de543c1c","6662009ae78f21dd82fcd179","66620aef48a5138315f27020","440","","f","","","","","","","","./tasks/HMM-beads/Images/NewTrialWC.png","lowH","1","24","1","0","1","0","true","",""
"image-keyboard-response","209","210783","0.0-3.0-6.0-1.0-1.24","650917227df766f0de543c1c","6662009ae78f21dd82fcd179","66620aef48a5138315f27020","null","","null","","","","","","","","./tasks/HMM-beads/Images/BlackBeadChoice.png","","","","","","","","","",""
"image-keyboard-response","210","211294","0.0-3.0-6.0-1.0-2.24","650917227df766f0de543c1c","6662009ae78f21dd82fcd179","66620aef48a5138315f27020","null","","null","","","","","","","","./tasks/HMM-beads/Images/BlackBeadChoiceCorrect.png","","","","","","","","","",""
"image-keyboard-response","211","211497","0.0-3.0-6.0-1.0-0.25","650917227df766f0de543c1c","6662009ae78f21dd82fcd179","66620aef48a5138315f27020","202","","j","","","","","","","","./tasks/HMM-beads/Images/NewTrialBC.png","lowH","1","25","1","1","0","1","true","",""
"image-keyboard-response","212","211804","0.0-3.0-6.0-1.0-1.25","650917227df766f0de543c1c","6662009ae78f21dd82fcd179","66620aef48a5138315f27020","null","","null","","","","","","","","./tasks/HMM-beads/Images/WhiteBeadChoice.png","","","","","","","","","",""
"image-keyboard-response","213","212315","0.0-3.0-6.0-1.0-2.25","650917227df766f0de543c1c","6662009ae78f21dd82fcd179","66620aef48a5138315f27020","null","","null","","","","","","","","./tasks/HMM-beads/Images/WhiteBeadChoiceCorrect.png","","","","","","","","","",""
"image-keyboard-response","214","212463","0.0-3.0-6.0-1.0-0.26","650917227df766f0de543c1c","6662009ae78f21dd82fcd179","66620aef48a5138315f27020","147","","j","","","","","","","","./tasks/HMM-beads/Images/NewTrialWC.png","lowH","1","26","1","0","1","1","false","",""
"image-keyboard-response","215","212766","0.0-3.0-6.0-1.0-1.26","650917227df766f0de543c1c","6662009ae78f21dd82fcd179","66620aef48a5138315f27020","null","","null","","","","","","","","./tasks/HMM-beads/Images/WhiteBeadChoice.png","","","","","","","","","",""
"image-keyboard-response","216","213278","0.0-3.0-6.0-1.0-2.26","650917227df766f0de543c1c","6662009ae78f21dd82fcd179","66620aef48a5138315f27020","null","","null","","","","","","","","./tasks/HMM-beads/Images/WhiteBeadChoiceWrong.png","","","","","","","","","",""
"image-keyboard-response","217","213599","0.0-3.0-6.0-1.0-0.27","650917227df766f0de543c1c","6662009ae78f21dd82fcd179","66620aef48a5138315f27020","320","","j","","","","","","","","./tasks/HMM-beads/Images/NewTrialBC.png","lowH","1","27","1","1","0","1","true","",""
"image-keyboard-response","218","213910","0.0-3.0-6.0-1.0-1.27","650917227df766f0de543c1c","6662009ae78f21dd82fcd179","66620aef48a5138315f27020","null","","null","","","","","","","","./tasks/HMM-beads/Images/WhiteBeadChoice.png","","","","","","","","","",""
"image-keyboard-response","219","214422","0.0-3.0-6.0-1.0-2.27","650917227df766f0de543c1c","6662009ae78f21dd82fcd179","66620aef48a5138315f27020","null","","null","","","","","","","","./tasks/HMM-beads/Images/WhiteBeadChoiceCorrect.png","","","","","","","","","",""
"image-keyboard-response","220","214711","0.0-3.0-6.0-1.0-0.28","650917227df766f0de543c1c","6662009ae78f21dd82fcd179","66620aef48a5138315f27020","289","","j","","","","","","","","./tasks/HMM-beads/Images/NewTrialWC.png","lowH","1","28","1","1","1","1","true","",""
"image-keyboard-response","221","215024","0.0-3.0-6.0-1.0-1.28","650917227df766f0de543c1c","6662009ae78f21dd82fcd179","66620aef48a5138315f27020","null","","null","","","","","","","","./tasks/HMM-beads/Images/WhiteBeadChoice.png","","","","","","","","","",""
"image-keyboard-response","222","215534","0.0-3.0-6.0-1.0-2.28","650917227df766f0de543c1c","6662009ae78f21dd82fcd179","66620aef48a5138315f27020","null","","null","","","","","","","","./tasks/HMM-beads/Images/WhiteBeadChoiceCorrect.png","","","","","","","","","",""
"image-keyboard-response","223","215788","0.0-3.0-6.0-1.0-0.29","650917227df766f0de543c1c","6662009ae78f21dd82fcd179","66620aef48a5138315f27020","253","","j","","","","","","","","./tasks/HMM-beads/Images/NewTrialWC.png","lowH","1","29","1","1","1","1","true","",""
"image-keyboard-response","224","216089","0.0-3.0-6.0-1.0-1.29","650917227df766f0de543c1c","6662009ae78f21dd82fcd179","66620aef48a5138315f27020","null","","null","","","","","","","","./tasks/HMM-beads/Images/WhiteBeadChoice.png","","","","","","","","","",""
"image-keyboard-response","225","216601","0.0-3.0-6.0-1.0-2.29","650917227df766f0de543c1c","6662009ae78f21dd82fcd179","66620aef48a5138315f27020","null","","null","","","","","","","","./tasks/HMM-beads/Images/WhiteBeadChoiceCorrect.png","","","","","","","","","",""
"image-keyboard-response","226","216867","0.0-3.0-6.0-1.0-0.30","650917227df766f0de543c1c","6662009ae78f21dd82fcd179","66620aef48a5138315f27020","266","","j","","","","","","","","./tasks/HMM-beads/Images/NewTrialWC.png","lowH","1","30","1","1","1","1","true","",""
"image-keyboard-response","227","217172","0.0-3.0-6.0-1.0-1.30","650917227df766f0de543c1c","6662009ae78f21dd82fcd179","66620aef48a5138315f27020","null","","null","","","","","","","","./tasks/HMM-beads/Images/WhiteBeadChoice.png","","","","","","","","","",""
"image-keyboard-response","228","217685","0.0-3.0-6.0-1.0-2.30","650917227df766f0de543c1c","6662009ae78f21dd82fcd179","66620aef48a5138315f27020","null","","null","","","","","","","","./tasks/HMM-beads/Images/WhiteBeadChoiceCorrect.png","","","","","","","","","",""
"image-keyboard-response","229","217903","0.0-3.0-6.0-1.0-0.31","650917227df766f0de543c1c","6662009ae78f21dd82fcd179","66620aef48a5138315f27020","218","","j","","","","","","","","./tasks/HMM-beads/Images/NewTrialWC.png","lowH","1","31","1","1","1","1","true","",""
"image-keyboard-response","230","218210","0.0-3.0-6.0-1.0-1.31","650917227df766f0de543c1c","6662009ae78f21dd82fcd179","66620aef48a5138315f27020","null","","null","","","","","","","","./tasks/HMM-beads/Images/WhiteBeadChoice.png","","","","","","","","","",""
"image-keyboard-response","231","218720","0.0-3.0-6.0-1.0-2.31","650917227df766f0de543c1c","6662009ae78f21dd82fcd179","66620aef48a5138315f27020","null","","null","","","","","","","","./tasks/HMM-beads/Images/WhiteBeadChoiceCorrect.png","","","","","","","","","",""
"image-keyboard-response","232","218983","0.0-3.0-6.0-1.0-0.32","650917227df766f0de543c1c","6662009ae78f21dd82fcd179","66620aef48a5138315f27020","262","","j","","","","","","","","./tasks/HMM-beads/Images/NewTrialWC.png","lowH","1","32","1","1","1","1","true","",""
"image-keyboard-response","233","219290","0.0-3.0-6.0-1.0-1.32","650917227df766f0de543c1c","6662009ae78f21dd82fcd179","66620aef48a5138315f27020","null","","null","","","","","","","","./tasks/HMM-beads/Images/WhiteBeadChoice.png","","","","","","","","","",""
"image-keyboard-response","234","219802","0.0-3.0-6.0-1.0-2.32","650917227df766f0de543c1c","6662009ae78f21dd82fcd179","66620aef48a5138315f27020","null","","null","","","","","","","","./tasks/HMM-beads/Images/WhiteBeadChoiceCorrect.png","","","","","","","","","",""
"image-keyboard-response","235","219970","0.0-3.0-6.0-1.0-0.33","650917227df766f0de543c1c","6662009ae78f21dd82fcd179","66620aef48a5138315f27020","167","","j","","","","","","","","./tasks/HMM-beads/Images/NewTrialWC.png","lowH","1","33","1","1","1","1","true","",""
"image-keyboard-response","236","220283","0.0-3.0-6.0-1.0-1.33","650917227df766f0de543c1c","6662009ae78f21dd82fcd179","66620aef48a5138315f27020","null","","null","","","","","","","","./tasks/HMM-beads/Images/WhiteBeadChoice.png","","","","","","","","","",""
"image-keyboard-response","237","220794","0.0-3.0-6.0-1.0-2.33","650917227df766f0de543c1c","6662009ae78f21dd82fcd179","66620aef48a5138315f27020","null","","null","","","","","","","","./tasks/HMM-beads/Images/WhiteBeadChoiceCorrect.png","","","","","","","","","",""
"image-keyboard-response","238","221194","0.0-3.0-6.0-1.0-0.34","650917227df766f0de543c1c","6662009ae78f21dd82fcd179","66620aef48a5138315f27020","400","","f","","","","","","","","./tasks/HMM-beads/Images/NewTrialWC.png","lowH","1","34","1","1","1","0","false","",""
"image-keyboard-response","239","221502","0.0-3.0-6.0-1.0-1.34","650917227df766f0de543c1c","6662009ae78f21dd82fcd179","66620aef48a5138315f27020","null","","null","","","","","","","","./tasks/HMM-beads/Images/BlackBeadChoice.png","","","","","","","","","",""
"image-keyboard-response","240","222016","0.0-3.0-6.0-1.0-2.34","650917227df766f0de543c1c","6662009ae78f21dd82fcd179","66620aef48a5138315f27020","null","","null","","","","","","","","./tasks/HMM-beads/Images/BlackBeadChoiceWrong.png","","","","","","","","","",""
"image-keyboard-response","241","222639","0.0-3.0-6.0-1.0-0.35","650917227df766f0de543c1c","6662009ae78f21dd82fcd179","66620aef48a5138315f27020","623","","f","","","","","","","","./tasks/HMM-beads/Images/NewTrialWC.png","lowH","1","35","1","1","1","0","false","",""
"image-keyboard-response","242","222950","0.0-3.0-6.0-1.0-1.35","650917227df766f0de543c1c","6662009ae78f21dd82fcd179","66620aef48a5138315f27020","null","","null","","","","","","","","./tasks/HMM-beads/Images/BlackBeadChoice.png","","","","","","","","","",""
"image-keyboard-response","243","223461","0.0-3.0-6.0-1.0-2.35","650917227df766f0de543c1c","6662009ae78f21dd82fcd179","66620aef48a5138315f27020","null","","null","","","","","","","","./tasks/HMM-beads/Images/BlackBeadChoiceWrong.png","","","","","","","","","",""
"image-keyboard-response","244","223522","0.0-3.0-6.0-1.0-0.36","650917227df766f0de543c1c","6662009ae78f21dd82fcd179","66620aef48a5138315f27020","57","","j","","","","","","","","./tasks/HMM-beads/Images/NewTrialWC.png","lowH","1","36","1","1","1","1","true","",""
"image-keyboard-response","245","223837","0.0-3.0-6.0-1.0-1.36","650917227df766f0de543c1c","6662009ae78f21dd82fcd179","66620aef48a5138315f27020","null","","null","","","","","","","","./tasks/HMM-beads/Images/WhiteBeadChoice.png","","","","","","","","","",""
"image-keyboard-response","246","224347","0.0-3.0-6.0-1.0-2.36","650917227df766f0de543c1c","6662009ae78f21dd82fcd179","66620aef48a5138315f27020","null","","null","","","","","","","","./tasks/HMM-beads/Images/WhiteBeadChoiceCorrect.png","","","","","","","","","",""
"image-keyboard-response","247","224515","0.0-3.0-6.0-1.0-0.37","650917227df766f0de543c1c","6662009ae78f21dd82fcd179","66620aef48a5138315f27020","168","","j","","","","","","","","./tasks/HMM-beads/Images/NewTrialWC.png","lowH","1","37","1","1","1","1","true","",""
"image-keyboard-response","248","224828","0.0-3.0-6.0-1.0-1.37","650917227df766f0de543c1c","6662009ae78f21dd82fcd179","66620aef48a5138315f27020","null","","null","","","","","","","","./tasks/HMM-beads/Images/WhiteBeadChoice.png","","","","","","","","","",""
"image-keyboard-response","249","225340","0.0-3.0-6.0-1.0-2.37","650917227df766f0de543c1c","6662009ae78f21dd82fcd179","66620aef48a5138315f27020","null","","null","","","","","","","","./tasks/HMM-beads/Images/WhiteBeadChoiceCorrect.png","","","","","","","","","",""
"image-keyboard-response","250","225588","0.0-3.0-6.0-1.0-0.38","650917227df766f0de543c1c","6662009ae78f21dd82fcd179","66620aef48a5138315f27020","247","","j","","","","","","","","./tasks/HMM-beads/Images/NewTrialWC.png","lowH","1","38","1","1","1","1","true","",""
"image-keyboard-response","251","225896","0.0-3.0-6.0-1.0-1.38","650917227df766f0de543c1c","6662009ae78f21dd82fcd179","66620aef48a5138315f27020","null","","null","","","","","","","","./tasks/HMM-beads/Images/WhiteBeadChoice.png","","","","","","","","","",""
"image-keyboard-response","252","226406","0.0-3.0-6.0-1.0-2.38","650917227df766f0de543c1c","6662009ae78f21dd82fcd179","66620aef48a5138315f27020","null","","null","","","","","","","","./tasks/HMM-beads/Images/WhiteBeadChoiceCorrect.png","","","","","","","","","",""
"image-keyboard-response","253","226698","0.0-3.0-6.0-1.0-0.39","650917227df766f0de543c1c","6662009ae78f21dd82fcd179","66620aef48a5138315f27020","291","","j","","","","","","","","./tasks/HMM-beads/Images/NewTrialWC.png","lowH","1","39","1","1","1","1","true","",""
"image-keyboard-response","254","227008","0.0-3.0-6.0-1.0-1.39","650917227df766f0de543c1c","6662009ae78f21dd82fcd179","66620aef48a5138315f27020","null","","null","","","","","","","","./tasks/HMM-beads/Images/WhiteBeadChoice.png","","","","","","","","","",""
"image-keyboard-response","255","227518","0.0-3.0-6.0-1.0-2.39","650917227df766f0de543c1c","6662009ae78f21dd82fcd179","66620aef48a5138315f27020","null","","null","","","","","","","","./tasks/HMM-beads/Images/WhiteBeadChoiceCorrect.png","","","","","","","","","",""
"image-keyboard-response","256","227747","0.0-3.0-6.0-1.0-0.40","650917227df766f0de543c1c","6662009ae78f21dd82fcd179","66620aef48a5138315f27020","229","","j","","","","","","","","./tasks/HMM-beads/Images/NewTrialWC.png","lowH","1","40","1","1","1","1","true","",""
"image-keyboard-response","257","228058","0.0-3.0-6.0-1.0-1.40","650917227df766f0de543c1c","6662009ae78f21dd82fcd179","66620aef48a5138315f27020","null","","null","","","","","","","","./tasks/HMM-beads/Images/WhiteBeadChoice.png","","","","","","","","","",""
"image-keyboard-response","258","228571","0.0-3.0-6.0-1.0-2.40","650917227df766f0de543c1c","6662009ae78f21dd82fcd179","66620aef48a5138315f27020","null","","null","","","","","","","","./tasks/HMM-beads/Images/WhiteBeadChoiceCorrect.png","","","","","","","","","",""
"image-keyboard-response","259","228848","0.0-3.0-6.0-1.0-0.41","650917227df766f0de543c1c","6662009ae78f21dd82fcd179","66620aef48a5138315f27020","277","","j","","","","","","","","./tasks/HMM-beads/Images/NewTrialWC.png","lowH","1","41","1","1","1","1","true","",""
"image-keyboard-response","260","229159","0.0-3.0-6.0-1.0-1.41","650917227df766f0de543c1c","6662009ae78f21dd82fcd179","66620aef48a5138315f27020","null","","null","","","","","","","","./tasks/HMM-beads/Images/WhiteBeadChoice.png","","","","","","","","","",""
"image-keyboard-response","261","229668","0.0-3.0-6.0-1.0-2.41","650917227df766f0de543c1c","6662009ae78f21dd82fcd179","66620aef48a5138315f27020","null","","null","","","","","","","","./tasks/HMM-beads/Images/WhiteBeadChoiceCorrect.png","","","","","","","","","",""
"image-keyboard-response","262","229912","0.0-3.0-6.0-1.0-0.42","650917227df766f0de543c1c","6662009ae78f21dd82fcd179","66620aef48a5138315f27020","243","","j","","","","","","","","./tasks/HMM-beads/Images/NewTrialWC.png","lowH","1","42","1","1","1","1","true","",""
"image-keyboard-response","263","230225","0.0-3.0-6.0-1.0-1.42","650917227df766f0de543c1c","6662009ae78f21dd82fcd179","66620aef48a5138315f27020","null","","null","","","","","","","","./tasks/HMM-beads/Images/WhiteBeadChoice.png","","","","","","","","","",""
"image-keyboard-response","264","230736","0.0-3.0-6.0-1.0-2.42","650917227df766f0de543c1c","6662009ae78f21dd82fcd179","66620aef48a5138315f27020","null","","null","","","","","","","","./tasks/HMM-beads/Images/WhiteBeadChoiceCorrect.png","","","","","","","","","",""
"image-keyboard-response","265","230936","0.0-3.0-6.0-1.0-0.43","650917227df766f0de543c1c","6662009ae78f21dd82fcd179","66620aef48a5138315f27020","198","","j","","","","","","","","./tasks/HMM-beads/Images/NewTrialWC.png","lowH","1","43","1","1","1","1","true","",""
"image-keyboard-response","266","231249","0.0-3.0-6.0-1.0-1.43","650917227df766f0de543c1c","6662009ae78f21dd82fcd179","66620aef48a5138315f27020","null","","null","","","","","","","","./tasks/HMM-beads/Images/WhiteBeadChoice.png","","","","","","","","","",""
"image-keyboard-response","267","231760","0.0-3.0-6.0-1.0-2.43","650917227df766f0de543c1c","6662009ae78f21dd82fcd179","66620aef48a5138315f27020","null","","null","","","","","","","","./tasks/HMM-beads/Images/WhiteBeadChoiceCorrect.png","","","","","","","","","",""
"image-keyboard-response","268","231989","0.0-3.0-6.0-1.0-0.44","650917227df766f0de543c1c","6662009ae78f21dd82fcd179","66620aef48a5138315f27020","229","","j","","","","","","","","./tasks/HMM-beads/Images/NewTrialWC.png","lowH","1","44","1","1","1","1","true","",""
"image-keyboard-response","269","232300","0.0-3.0-6.0-1.0-1.44","650917227df766f0de543c1c","6662009ae78f21dd82fcd179","66620aef48a5138315f27020","null","","null","","","","","","","","./tasks/HMM-beads/Images/WhiteBeadChoice.png","","","","","","","","","",""
"image-keyboard-response","270","232814","0.0-3.0-6.0-1.0-2.44","650917227df766f0de543c1c","6662009ae78f21dd82fcd179","66620aef48a5138315f27020","null","","null","","","","","","","","./tasks/HMM-beads/Images/WhiteBeadChoiceCorrect.png","","","","","","","","","",""
"image-keyboard-response","271","233129","0.0-3.0-6.0-1.0-0.45","650917227df766f0de543c1c","6662009ae78f21dd82fcd179","66620aef48a5138315f27020","314","","j","","","","","","","","./tasks/HMM-beads/Images/NewTrialWC.png","lowH","1","45","1","1","1","1","true","",""
"image-keyboard-response","272","233430","0.0-3.0-6.0-1.0-1.45","650917227df766f0de543c1c","6662009ae78f21dd82fcd179","66620aef48a5138315f27020","null","","null","","","","","","","","./tasks/HMM-beads/Images/WhiteBeadChoice.png","","","","","","","","","",""
"image-keyboard-response","273","233940","0.0-3.0-6.0-1.0-2.45","650917227df766f0de543c1c","6662009ae78f21dd82fcd179","66620aef48a5138315f27020","null","","null","","","","","","","","./tasks/HMM-beads/Images/WhiteBeadChoiceCorrect.png","","","","","","","","","",""
"image-keyboard-response","274","234279","0.0-3.0-6.0-1.0-0.46","650917227df766f0de543c1c","6662009ae78f21dd82fcd179","66620aef48a5138315f27020","337","","j","","","","","","","","./tasks/HMM-beads/Images/NewTrialWC.png","lowH","1","46","1","1","1","1","true","",""
"image-keyboard-response","275","234587","0.0-3.0-6.0-1.0-1.46","650917227df766f0de543c1c","6662009ae78f21dd82fcd179","66620aef48a5138315f27020","null","","null","","","","","","","","./tasks/HMM-beads/Images/WhiteBeadChoice.png","","","","","","","","","",""
"image-keyboard-response","276","235098","0.0-3.0-6.0-1.0-2.46","650917227df766f0de543c1c","6662009ae78f21dd82fcd179","66620aef48a5138315f27020","null","","null","","","","","","","","./tasks/HMM-beads/Images/WhiteBeadChoiceCorrect.png","","","","","","","","","",""
"image-keyboard-response","277","235333","0.0-3.0-6.0-1.0-0.47","650917227df766f0de543c1c","6662009ae78f21dd82fcd179","66620aef48a5138315f27020","234","","f","","","","","","","","./tasks/HMM-beads/Images/NewTrialWC.png","lowH","1","47","1","0","1","0","true","",""
"image-keyboard-response","278","235639","0.0-3.0-6.0-1.0-1.47","650917227df766f0de543c1c","6662009ae78f21dd82fcd179","66620aef48a5138315f27020","null","","null","","","","","","","","./tasks/HMM-beads/Images/BlackBeadChoice.png","","","","","","","","","",""
"image-keyboard-response","279","236150","0.0-3.0-6.0-1.0-2.47","650917227df766f0de543c1c","6662009ae78f21dd82fcd179","66620aef48a5138315f27020","null","","null","","","","","","","","./tasks/HMM-beads/Images/BlackBeadChoiceCorrect.png","","","","","","","","","",""
"image-keyboard-response","280","236463","0.0-3.0-6.0-1.0-0.48","650917227df766f0de543c1c","6662009ae78f21dd82fcd179","66620aef48a5138315f27020","312","","j","","","","","","","","./tasks/HMM-beads/Images/NewTrialBC.png","lowH","1","48","1","0","0","1","false","",""
"image-keyboard-response","281","236765","0.0-3.0-6.0-1.0-1.48","650917227df766f0de543c1c","6662009ae78f21dd82fcd179","66620aef48a5138315f27020","null","","null","","","","","","","","./tasks/HMM-beads/Images/WhiteBeadChoice.png","","","","","","","","","",""
"image-keyboard-response","282","237275","0.0-3.0-6.0-1.0-2.48","650917227df766f0de543c1c","6662009ae78f21dd82fcd179","66620aef48a5138315f27020","null","","null","","","","","","","","./tasks/HMM-beads/Images/WhiteBeadChoiceWrong.png","","","","","","","","","",""
"image-keyboard-response","283","237515","0.0-3.0-6.0-1.0-0.49","650917227df766f0de543c1c","6662009ae78f21dd82fcd179","66620aef48a5138315f27020","236","","j","","","","","","","","./tasks/HMM-beads/Images/NewTrialBC.png","lowH","1","49","1","0","0","1","false","",""
"image-keyboard-response","284","237816","0.0-3.0-6.0-1.0-1.49","650917227df766f0de543c1c","6662009ae78f21dd82fcd179","66620aef48a5138315f27020","null","","null","","","","","","","","./tasks/HMM-beads/Images/WhiteBeadChoice.png","","","","","","","","","",""
"image-keyboard-response","285","238326","0.0-3.0-6.0-1.0-2.49","650917227df766f0de543c1c","6662009ae78f21dd82fcd179","66620aef48a5138315f27020","null","","null","","","","","","","","./tasks/HMM-beads/Images/WhiteBeadChoiceWrong.png","","","","","","","","","",""
"image-keyboard-response","286","238466","0.0-3.0-6.0-1.0-0.50","650917227df766f0de543c1c","6662009ae78f21dd82fcd179","66620aef48a5138315f27020","139","","f","","","","","","","","./tasks/HMM-beads/Images/NewTrialBC.png","lowH","1","50","1","1","0","0","false","",""
"image-keyboard-response","287","238777","0.0-3.0-6.0-1.0-1.50","650917227df766f0de543c1c","6662009ae78f21dd82fcd179","66620aef48a5138315f27020","null","","null","","","","","","","","./tasks/HMM-beads/Images/BlackBeadChoice.png","","","","","","","","","",""
"image-keyboard-response","288","239287","0.0-3.0-6.0-1.0-2.50","650917227df766f0de543c1c","6662009ae78f21dd82fcd179","66620aef48a5138315f27020","null","","null","","","","","","","","./tasks/HMM-beads/Images/BlackBeadChoiceWrong.png","","","","","","","","","",""
"image-keyboard-response","289","239542","0.0-3.0-6.0-1.0-0.51","650917227df766f0de543c1c","6662009ae78f21dd82fcd179","66620aef48a5138315f27020","254","","f","","","","","","","","./tasks/HMM-beads/Images/NewTrialWC.png","lowH","1","51","1","1","1","0","false","",""
"image-keyboard-response","290","239844","0.0-3.0-6.0-1.0-1.51","650917227df766f0de543c1c","6662009ae78f21dd82fcd179","66620aef48a5138315f27020","null","","null","","","","","","","","./tasks/HMM-beads/Images/BlackBeadChoice.png","","","","","","","","","",""
"image-keyboard-response","291","240354","0.0-3.0-6.0-1.0-2.51","650917227df766f0de543c1c","6662009ae78f21dd82fcd179","66620aef48a5138315f27020","null","","null","","","","","","","","./tasks/HMM-beads/Images/BlackBeadChoiceWrong.png","","","","","","","","","",""
"image-keyboard-response","292","240705","0.0-3.0-6.0-1.0-0.52","650917227df766f0de543c1c","6662009ae78f21dd82fcd179","66620aef48a5138315f27020","350","","j","","","","","","","","./tasks/HMM-beads/Images/NewTrialWC.png","lowH","1","52","1","1","1","1","true","",""
"image-keyboard-response","293","241015","0.0-3.0-6.0-1.0-1.52","650917227df766f0de543c1c","6662009ae78f21dd82fcd179","66620aef48a5138315f27020","null","","null","","","","","","","","./tasks/HMM-beads/Images/WhiteBeadChoice.png","","","","","","","","","",""
"image-keyboard-response","294","241526","0.0-3.0-6.0-1.0-2.52","650917227df766f0de543c1c","6662009ae78f21dd82fcd179","66620aef48a5138315f27020","null","","null","","","","","","","","./tasks/HMM-beads/Images/WhiteBeadChoiceCorrect.png","","","","","","","","","",""
"image-keyboard-response","295","241723","0.0-3.0-6.0-1.0-0.53","650917227df766f0de543c1c","6662009ae78f21dd82fcd179","66620aef48a5138315f27020","196","","j","","","","","","","","./tasks/HMM-beads/Images/NewTrialWC.png","lowH","1","53","1","1","1","1","true","",""
"image-keyboard-response","296","242037","0.0-3.0-6.0-1.0-1.53","650917227df766f0de543c1c","6662009ae78f21dd82fcd179","66620aef48a5138315f27020","null","","null","","","","","","","","./tasks/HMM-beads/Images/WhiteBeadChoice.png","","","","","","","","","",""
"image-keyboard-response","297","242547","0.0-3.0-6.0-1.0-2.53","650917227df766f0de543c1c","6662009ae78f21dd82fcd179","66620aef48a5138315f27020","null","","null","","","","","","","","./tasks/HMM-beads/Images/WhiteBeadChoiceCorrect.png","","","","","","","","","",""
"image-keyboard-response","298","242676","0.0-3.0-6.0-1.0-0.54","650917227df766f0de543c1c","6662009ae78f21dd82fcd179","66620aef48a5138315f27020","128","","j","","","","","","","","./tasks/HMM-beads/Images/NewTrialWC.png","lowH","1","54","1","1","1","1","true","",""
"image-keyboard-response","299","242983","0.0-3.0-6.0-1.0-1.54","650917227df766f0de543c1c","6662009ae78f21dd82fcd179","66620aef48a5138315f27020","null","","null","","","","","","","","./tasks/HMM-beads/Images/WhiteBeadChoice.png","","","","","","","","","",""
"image-keyboard-response","300","243493","0.0-3.0-6.0-1.0-2.54","650917227df766f0de543c1c","6662009ae78f21dd82fcd179","66620aef48a5138315f27020","null","","null","","","","","","","","./tasks/HMM-beads/Images/WhiteBeadChoiceCorrect.png","","","","","","","","","",""
"image-keyboard-response","301","243683","0.0-3.0-6.0-1.0-0.55","650917227df766f0de543c1c","6662009ae78f21dd82fcd179","66620aef48a5138315f27020","190","","j","","","","","","","","./tasks/HMM-beads/Images/NewTrialWC.png","lowH","1","55","1","1","1","1","true","",""
"image-keyboard-response","302","243989","0.0-3.0-6.0-1.0-1.55","650917227df766f0de543c1c","6662009ae78f21dd82fcd179","66620aef48a5138315f27020","null","","null","","","","","","","","./tasks/HMM-beads/Images/WhiteBeadChoice.png","","","","","","","","","",""
"image-keyboard-response","303","244499","0.0-3.0-6.0-1.0-2.55","650917227df766f0de543c1c","6662009ae78f21dd82fcd179","66620aef48a5138315f27020","null","","null","","","","","","","","./tasks/HMM-beads/Images/WhiteBeadChoiceCorrect.png","","","","","","","","","",""
"image-keyboard-response","304","244609","0.0-3.0-6.0-1.0-0.56","650917227df766f0de543c1c","6662009ae78f21dd82fcd179","66620aef48a5138315f27020","109","","j","","","","","","","","./tasks/HMM-beads/Images/NewTrialWC.png","lowH","1","56","1","1","1","1","true","",""
"image-keyboard-response","305","244920","0.0-3.0-6.0-1.0-1.56","650917227df766f0de543c1c","6662009ae78f21dd82fcd179","66620aef48a5138315f27020","null","","null","","","","","","","","./tasks/HMM-beads/Images/WhiteBeadChoice.png","","","","","","","","","",""
"image-keyboard-response","306","245430","0.0-3.0-6.0-1.0-2.56","650917227df766f0de543c1c","6662009ae78f21dd82fcd179","66620aef48a5138315f27020","null","","null","","","","","","","","./tasks/HMM-beads/Images/WhiteBeadChoiceCorrect.png","","","","","","","","","",""
"image-keyboard-response","307","245534","0.0-3.0-6.0-1.0-0.57","650917227df766f0de543c1c","6662009ae78f21dd82fcd179","66620aef48a5138315f27020","104","","j","","","","","","","","./tasks/HMM-beads/Images/NewTrialWC.png","lowH","1","57","1","1","1","1","true","",""
"image-keyboard-response","308","245836","0.0-3.0-6.0-1.0-1.57","650917227df766f0de543c1c","6662009ae78f21dd82fcd179","66620aef48a5138315f27020","null","","null","","","","","","","","./tasks/HMM-beads/Images/WhiteBeadChoice.png","","","","","","","","","",""
"image-keyboard-response","309","246348","0.0-3.0-6.0-1.0-2.57","650917227df766f0de543c1c","6662009ae78f21dd82fcd179","66620aef48a5138315f27020","null","","null","","","","","","","","./tasks/HMM-beads/Images/WhiteBeadChoiceCorrect.png","","","","","","","","","",""
"image-keyboard-response","310","246479","0.0-3.0-6.0-1.0-0.58","650917227df766f0de543c1c","6662009ae78f21dd82fcd179","66620aef48a5138315f27020","131","","j","","","","","","","","./tasks/HMM-beads/Images/NewTrialWC.png","lowH","1","58","1","1","1","1","true","",""
"image-keyboard-response","311","246784","0.0-3.0-6.0-1.0-1.58","650917227df766f0de543c1c","6662009ae78f21dd82fcd179","66620aef48a5138315f27020","null","","null","","","","","","","","./tasks/HMM-beads/Images/WhiteBeadChoice.png","","","","","","","","","",""
"image-keyboard-response","312","247296","0.0-3.0-6.0-1.0-2.58","650917227df766f0de543c1c","6662009ae78f21dd82fcd179","66620aef48a5138315f27020","null","","null","","","","","","","","./tasks/HMM-beads/Images/WhiteBeadChoiceCorrect.png","","","","","","","","","",""
"image-keyboard-response","313","247460","0.0-3.0-6.0-1.0-0.59","650917227df766f0de543c1c","6662009ae78f21dd82fcd179","66620aef48a5138315f27020","163","","j","","","","","","","","./tasks/HMM-beads/Images/NewTrialWC.png","lowH","1","59","1","0","1","1","false","",""
"image-keyboard-response","314","247761","0.0-3.0-6.0-1.0-1.59","650917227df766f0de543c1c","6662009ae78f21dd82fcd179","66620aef48a5138315f27020","null","","null","","","","","","","","./tasks/HMM-beads/Images/WhiteBeadChoice.png","","","","","","","","","",""
"image-keyboard-response","315","248273","0.0-3.0-6.0-1.0-2.59","650917227df766f0de543c1c","6662009ae78f21dd82fcd179","66620aef48a5138315f27020","null","","null","","","","","","","","./tasks/HMM-beads/Images/WhiteBeadChoiceWrong.png","","","","","","","","","",""
"image-keyboard-response","316","248477","0.0-3.0-6.0-1.0-0.60","650917227df766f0de543c1c","6662009ae78f21dd82fcd179","66620aef48a5138315f27020","204","","j","","","","","","","","./tasks/HMM-beads/Images/NewTrialBC.png","lowH","1","60","1","1","0","1","true","",""
"image-keyboard-response","317","248784","0.0-3.0-6.0-1.0-1.60","650917227df766f0de543c1c","6662009ae78f21dd82fcd179","66620aef48a5138315f27020","null","","null","","","","","","","","./tasks/HMM-beads/Images/WhiteBeadChoice.png","","","","","","","","","",""
"image-keyboard-response","318","249295","0.0-3.0-6.0-1.0-2.60","650917227df766f0de543c1c","6662009ae78f21dd82fcd179","66620aef48a5138315f27020","null","","null","","","","","","","","./tasks/HMM-beads/Images/WhiteBeadChoiceCorrect.png","","","","","","","","","",""
"image-keyboard-response","319","249437","0.0-3.0-6.0-1.0-0.61","650917227df766f0de543c1c","6662009ae78f21dd82fcd179","66620aef48a5138315f27020","142","","j","","","","","","","","./tasks/HMM-beads/Images/NewTrialWC.png","lowH","1","61","1","1","1","1","true","",""
"image-keyboard-response","320","249746","0.0-3.0-6.0-1.0-1.61","650917227df766f0de543c1c","6662009ae78f21dd82fcd179","66620aef48a5138315f27020","null","","null","","","","","","","","./tasks/HMM-beads/Images/WhiteBeadChoice.png","","","","","","","","","",""
"image-keyboard-response","321","250256","0.0-3.0-6.0-1.0-2.61","650917227df766f0de543c1c","6662009ae78f21dd82fcd179","66620aef48a5138315f27020","null","","null","","","","","","","","./tasks/HMM-beads/Images/WhiteBeadChoiceCorrect.png","","","","","","","","","",""
"image-keyboard-response","322","250266","0.0-3.0-6.0-1.0-0.62","650917227df766f0de543c1c","6662009ae78f21dd82fcd179","66620aef48a5138315f27020","6","","j","","","","","","","","./tasks/HMM-beads/Images/NewTrialWC.png","lowH","1","62","1","0","1","1","false","",""
"image-keyboard-response","323","250571","0.0-3.0-6.0-1.0-1.62","650917227df766f0de543c1c","6662009ae78f21dd82fcd179","66620aef48a5138315f27020","null","","null","","","","","","","","./tasks/HMM-beads/Images/WhiteBeadChoice.png","","","","","","","","","",""
"image-keyboard-response","324","251082","0.0-3.0-6.0-1.0-2.62","650917227df766f0de543c1c","6662009ae78f21dd82fcd179","66620aef48a5138315f27020","null","","null","","","","","","","","./tasks/HMM-beads/Images/WhiteBeadChoiceWrong.png","","","","","","","","","",""
"image-keyboard-response","325","251384","0.0-3.0-6.0-1.0-0.63","650917227df766f0de543c1c","6662009ae78f21dd82fcd179","66620aef48a5138315f27020","302","","j","","","","","","","","./tasks/HMM-beads/Images/NewTrialBC.png","lowH","1","63","1","1","0","1","true","",""
"image-keyboard-response","326","251697","0.0-3.0-6.0-1.0-1.63","650917227df766f0de543c1c","6662009ae78f21dd82fcd179","66620aef48a5138315f27020","null","","null","","","","","","","","./tasks/HMM-beads/Images/WhiteBeadChoice.png","","","","","","","","","",""
"image-keyboard-response","327","252207","0.0-3.0-6.0-1.0-2.63","650917227df766f0de543c1c","6662009ae78f21dd82fcd179","66620aef48a5138315f27020","null","","null","","","","","","","","./tasks/HMM-beads/Images/WhiteBeadChoiceCorrect.png","","","","","","","","","",""
"image-keyboard-response","328","252321","0.0-3.0-6.0-1.0-0.64","650917227df766f0de543c1c","6662009ae78f21dd82fcd179","66620aef48a5138315f27020","114","","j","","","","","","","","./tasks/HMM-beads/Images/NewTrialWC.png","lowH","1","64","1","1","1","1","true","",""
"image-keyboard-response","329","252628","0.0-3.0-6.0-1.0-1.64","650917227df766f0de543c1c","6662009ae78f21dd82fcd179","66620aef48a5138315f27020","null","","null","","","","","","","","./tasks/HMM-beads/Images/WhiteBeadChoice.png","","","","","","","","","",""
"image-keyboard-response","330","253139","0.0-3.0-6.0-1.0-2.64","650917227df766f0de543c1c","6662009ae78f21dd82fcd179","66620aef48a5138315f27020","null","","null","","","","","","","","./tasks/HMM-beads/Images/WhiteBeadChoiceCorrect.png","","","","","","","","","",""
"image-keyboard-response","331","253535","0.0-3.0-6.0-1.0-0.65","650917227df766f0de543c1c","6662009ae78f21dd82fcd179","66620aef48a5138315f27020","396","","j","","","","","","","","./tasks/HMM-beads/Images/NewTrialWC.png","lowH","1","65","1","1","1","1","true","",""
"image-keyboard-response","332","253845","0.0-3.0-6.0-1.0-1.65","650917227df766f0de543c1c","6662009ae78f21dd82fcd179","66620aef48a5138315f27020","null","","null","","","","","","","","./tasks/HMM-beads/Images/WhiteBeadChoice.png","","","","","","","","","",""
"image-keyboard-response","333","254357","0.0-3.0-6.0-1.0-2.65","650917227df766f0de543c1c","6662009ae78f21dd82fcd179","66620aef48a5138315f27020","null","","null","","","","","","","","./tasks/HMM-beads/Images/WhiteBeadChoiceCorrect.png","","","","","","","","","",""
"image-keyboard-response","334","254466","0.0-3.0-6.0-1.0-0.66","650917227df766f0de543c1c","6662009ae78f21dd82fcd179","66620aef48a5138315f27020","108","","j","","","","","","","","./tasks/HMM-beads/Images/NewTrialWC.png","lowH","1","66","1","1","1","1","true","",""
"image-keyboard-response","335","254777","0.0-3.0-6.0-1.0-1.66","650917227df766f0de543c1c","6662009ae78f21dd82fcd179","66620aef48a5138315f27020","null","","null","","","","","","","","./tasks/HMM-beads/Images/WhiteBeadChoice.png","","","","","","","","","",""
"image-keyboard-response","336","255287","0.0-3.0-6.0-1.0-2.66","650917227df766f0de543c1c","6662009ae78f21dd82fcd179","66620aef48a5138315f27020","null","","null","","","","","","","","./tasks/HMM-beads/Images/WhiteBeadChoiceCorrect.png","","","","","","","","","",""
"image-keyboard-response","337","255720","0.0-3.0-6.0-1.0-0.67","650917227df766f0de543c1c","6662009ae78f21dd82fcd179","66620aef48a5138315f27020","432","","f","","","","","","","","./tasks/HMM-beads/Images/NewTrialWC.png","lowH","1","67","1","0","1","0","true","",""
"image-keyboard-response","338","256024","0.0-3.0-6.0-1.0-1.67","650917227df766f0de543c1c","6662009ae78f21dd82fcd179","66620aef48a5138315f27020","null","","null","","","","","","","","./tasks/HMM-beads/Images/BlackBeadChoice.png","","","","","","","","","",""
"image-keyboard-response","339","256535","0.0-3.0-6.0-1.0-2.67","650917227df766f0de543c1c","6662009ae78f21dd82fcd179","66620aef48a5138315f27020","null","","null","","","","","","","","./tasks/HMM-beads/Images/BlackBeadChoiceCorrect.png","","","","","","","","","",""
"image-keyboard-response","340","256814","0.0-3.0-6.0-1.0-0.68","650917227df766f0de543c1c","6662009ae78f21dd82fcd179","66620aef48a5138315f27020","278","","j","","","","","","","","./tasks/HMM-beads/Images/NewTrialBC.png","lowH","1","68","1","1","0","1","true","",""
"image-keyboard-response","341","257122","0.0-3.0-6.0-1.0-1.68","650917227df766f0de543c1c","6662009ae78f21dd82fcd179","66620aef48a5138315f27020","null","","null","","","","","","","","./tasks/HMM-beads/Images/WhiteBeadChoice.png","","","","","","","","","",""
"image-keyboard-response","342","257633","0.0-3.0-6.0-1.0-2.68","650917227df766f0de543c1c","6662009ae78f21dd82fcd179","66620aef48a5138315f27020","null","","null","","","","","","","","./tasks/HMM-beads/Images/WhiteBeadChoiceCorrect.png","","","","","","","","","",""
"image-keyboard-response","343","257692","0.0-3.0-6.0-1.0-0.69","650917227df766f0de543c1c","6662009ae78f21dd82fcd179","66620aef48a5138315f27020","59","","j","","","","","","","","./tasks/HMM-beads/Images/NewTrialWC.png","lowH","1","69","0","1","1","1","true","",""
"image-keyboard-response","344","257993","0.0-3.0-6.0-1.0-1.69","650917227df766f0de543c1c","6662009ae78f21dd82fcd179","66620aef48a5138315f27020","null","","null","","","","","","","","./tasks/HMM-beads/Images/WhiteBeadChoice.png","","","","","","","","","",""
"image-keyboard-response","345","258503","0.0-3.0-6.0-1.0-2.69","650917227df766f0de543c1c","6662009ae78f21dd82fcd179","66620aef48a5138315f27020","null","","null","","","","","","","","./tasks/HMM-beads/Images/WhiteBeadChoiceCorrect.png","","","","","","","","","",""
"image-keyboard-response","346","258607","0.0-3.0-6.0-1.0-0.70","650917227df766f0de543c1c","6662009ae78f21dd82fcd179","66620aef48a5138315f27020","104","","j","","","","","","","","./tasks/HMM-beads/Images/NewTrialWC.png","lowH","1","70","0","1","1","1","true","",""
"image-keyboard-response","347","258910","0.0-3.0-6.0-1.0-1.70","650917227df766f0de543c1c","6662009ae78f21dd82fcd179","66620aef48a5138315f27020","null","","null","","","","","","","","./tasks/HMM-beads/Images/WhiteBeadChoice.png","","","","","","","","","",""
"image-keyboard-response","348","259420","0.0-3.0-6.0-1.0-2.70","650917227df766f0de543c1c","6662009ae78f21dd82fcd179","66620aef48a5138315f27020","null","","null","","","","","","","","./tasks/HMM-beads/Images/WhiteBeadChoiceCorrect.png","","","","","","","","","",""
"image-keyboard-response","349","259560","0.0-3.0-6.0-1.0-0.71","650917227df766f0de543c1c","6662009ae78f21dd82fcd179","66620aef48a5138315f27020","139","","j","","","","","","","","./tasks/HMM-beads/Images/NewTrialWC.png","lowH","1","71","0","0","1","1","false","",""
"image-keyboard-response","350","259870","0.0-3.0-6.0-1.0-1.71","650917227df766f0de543c1c","6662009ae78f21dd82fcd179","66620aef48a5138315f27020","null","","null","","","","","","","","./tasks/HMM-beads/Images/WhiteBeadChoice.png","","","","","","","","","",""
"image-keyboard-response","351","260381","0.0-3.0-6.0-1.0-2.71","650917227df766f0de543c1c","6662009ae78f21dd82fcd179","66620aef48a5138315f27020","null","","null","","","","","","","","./tasks/HMM-beads/Images/WhiteBeadChoiceWrong.png","","","","","","","","","",""
"image-keyboard-response","352","260530","0.0-3.0-6.0-1.0-0.72","650917227df766f0de543c1c","6662009ae78f21dd82fcd179","66620aef48a5138315f27020","148","","j","","","","","","","","./tasks/HMM-beads/Images/NewTrialBC.png","lowH","1","72","0","0","0","1","false","",""
"image-keyboard-response","353","260832","0.0-3.0-6.0-1.0-1.72","650917227df766f0de543c1c","6662009ae78f21dd82fcd179","66620aef48a5138315f27020","null","","null","","","","","","","","./tasks/HMM-beads/Images/WhiteBeadChoice.png","","","","","","","","","",""
"image-keyboard-response","354","261342","0.0-3.0-6.0-1.0-2.72","650917227df766f0de543c1c","6662009ae78f21dd82fcd179","66620aef48a5138315f27020","null","","null","","","","","","","","./tasks/HMM-beads/Images/WhiteBeadChoiceWrong.png","","","","","","","","","",""
"image-keyboard-response","355","261500","0.0-3.0-6.0-1.0-0.73","650917227df766f0de543c1c","6662009ae78f21dd82fcd179","66620aef48a5138315f27020","158","","j","","","","","","","","./tasks/HMM-beads/Images/NewTrialBC.png","lowH","1","73","0","1","0","1","true","",""
"image-keyboard-response","356","261807","0.0-3.0-6.0-1.0-1.73","650917227df766f0de543c1c","6662009ae78f21dd82fcd179","66620aef48a5138315f27020","null","","null","","","","","","","","./tasks/HMM-beads/Images/WhiteBeadChoice.png","","","","","","","","","",""
"image-keyboard-response","357","262317","0.0-3.0-6.0-1.0-2.73","650917227df766f0de543c1c","6662009ae78f21dd82fcd179","66620aef48a5138315f27020","null","","null","","","","","","","","./tasks/HMM-beads/Images/WhiteBeadChoiceCorrect.png","","","","","","","","","",""
"image-keyboard-response","358","262441","0.0-3.0-6.0-1.0-0.74","650917227df766f0de543c1c","6662009ae78f21dd82fcd179","66620aef48a5138315f27020","123","","j","","","","","","","","./tasks/HMM-beads/Images/NewTrialWC.png","lowH","1","74","0","0","1","1","false","",""
"image-keyboard-response","359","262754","0.0-3.0-6.0-1.0-1.74","650917227df766f0de543c1c","6662009ae78f21dd82fcd179","66620aef48a5138315f27020","null","","null","","","","","","","","./tasks/HMM-beads/Images/WhiteBeadChoice.png","","","","","","","","","",""
"image-keyboard-response","360","263266","0.0-3.0-6.0-1.0-2.74","650917227df766f0de543c1c","6662009ae78f21dd82fcd179","66620aef48a5138315f27020","null","","null","","","","","","","","./tasks/HMM-beads/Images/WhiteBeadChoiceWrong.png","","","","","","","","","",""
"image-keyboard-response","361","263289","0.0-3.0-6.0-1.0-0.75","650917227df766f0de543c1c","6662009ae78f21dd82fcd179","66620aef48a5138315f27020","22","","f","","","","","","","","./tasks/HMM-beads/Images/NewTrialBC.png","lowH","1","75","0","1","0","0","false","",""
"image-keyboard-response","362","263596","0.0-3.0-6.0-1.0-1.75","650917227df766f0de543c1c","6662009ae78f21dd82fcd179","66620aef48a5138315f27020","null","","null","","","","","","","","./tasks/HMM-beads/Images/BlackBeadChoice.png","","","","","","","","","",""
"image-keyboard-response","363","264107","0.0-3.0-6.0-1.0-2.75","650917227df766f0de543c1c","6662009ae78f21dd82fcd179","66620aef48a5138315f27020","null","","null","","","","","","","","./tasks/HMM-beads/Images/BlackBeadChoiceWrong.png","","","","","","","","","",""
"image-keyboard-response","364","264492","0.0-3.0-6.0-1.0-0.76","650917227df766f0de543c1c","6662009ae78f21dd82fcd179","66620aef48a5138315f27020","384","","f","","","","","","","","./tasks/HMM-beads/Images/NewTrialWC.png","lowH","1","76","0","1","1","0","false","",""
"image-keyboard-response","365","264797","0.0-3.0-6.0-1.0-1.76","650917227df766f0de543c1c","6662009ae78f21dd82fcd179","66620aef48a5138315f27020","null","","null","","","","","","","","./tasks/HMM-beads/Images/BlackBeadChoice.png","","","","","","","","","",""
"image-keyboard-response","366","265308","0.0-3.0-6.0-1.0-2.76","650917227df766f0de543c1c","6662009ae78f21dd82fcd179","66620aef48a5138315f27020","null","","null","","","","","","","","./tasks/HMM-beads/Images/BlackBeadChoiceWrong.png","","","","","","","","","",""
"image-keyboard-response","367","265404","0.0-3.0-6.0-1.0-0.77","650917227df766f0de543c1c","6662009ae78f21dd82fcd179","66620aef48a5138315f27020","95","","j","","","","","","","","./tasks/HMM-beads/Images/NewTrialWC.png","lowH","1","77","0","0","1","1","false","",""
"image-keyboard-response","368","265713","0.0-3.0-6.0-1.0-1.77","650917227df766f0de543c1c","6662009ae78f21dd82fcd179","66620aef48a5138315f27020","null","","null","","","","","","","","./tasks/HMM-beads/Images/WhiteBeadChoice.png","","","","","","","","","",""
"image-keyboard-response","369","266226","0.0-3.0-6.0-1.0-2.77","650917227df766f0de543c1c","6662009ae78f21dd82fcd179","66620aef48a5138315f27020","null","","null","","","","","","","","./tasks/HMM-beads/Images/WhiteBeadChoiceWrong.png","","","","","","","","","",""
"image-keyboard-response","370","266469","0.0-3.0-6.0-1.0-0.78","650917227df766f0de543c1c","6662009ae78f21dd82fcd179","66620aef48a5138315f27020","242","","f","","","","","","","","./tasks/HMM-beads/Images/NewTrialBC.png","lowH","1","78","0","0","0","0","true","",""
"image-keyboard-response","371","266784","0.0-3.0-6.0-1.0-1.78","650917227df766f0de543c1c","6662009ae78f21dd82fcd179","66620aef48a5138315f27020","null","","null","","","","","","","","./tasks/HMM-beads/Images/BlackBeadChoice.png","","","","","","","","","",""
"image-keyboard-response","372","267295","0.0-3.0-6.0-1.0-2.78","650917227df766f0de543c1c","6662009ae78f21dd82fcd179","66620aef48a5138315f27020","null","","null","","","","","","","","./tasks/HMM-beads/Images/BlackBeadChoiceCorrect.png","","","","","","","","","",""
"image-keyboard-response","373","267618","0.0-3.0-6.0-1.0-0.79","650917227df766f0de543c1c","6662009ae78f21dd82fcd179","66620aef48a5138315f27020","322","","f","","","","","","","","./tasks/HMM-beads/Images/NewTrialBC.png","lowH","1","79","0","0","0","0","true","",""
"image-keyboard-response","374","267927","0.0-3.0-6.0-1.0-1.79","650917227df766f0de543c1c","6662009ae78f21dd82fcd179","66620aef48a5138315f27020","null","","null","","","","","","","","./tasks/HMM-beads/Images/BlackBeadChoice.png","","","","","","","","","",""
