"trial_type","trial_index","time_elapsed","internal_node_id","subject_id","study_id","session_id","rt","url","response","question_order","view_history","success","timeout","failed_images","failed_audio","failed_video","stimulus","block","block_rep","trial_number","jar","bead","previous_bead","choice","correct","lowH_score","total_bonus"
"pavlovia","0","1186","0.0-0.0","6107f24d21eaa93618cf9191","6662009ae78f21dd82fcd179","66620bd4f00fd6264e417d49","","","","","","","","","","","","","","","","","","","","",""
"external-html","1","8507","0.0-1.0-0.0","6107f24d21eaa93618cf9191","6662009ae78f21dd82fcd179","66620bd4f00fd6264e417d49","7114","new_consent.html","","","","","","","","","","","","","","","","","","",""
"survey-multi-choice","2","13813","0.0-1.0-1.0","6107f24d21eaa93618cf9191","6662009ae78f21dd82fcd179","66620bd4f00fd6264e417d49","5304","","{""Q0"":""Female"",""Q1"":""White""}","[0,1]","","","","","","","","","","","","","","","","",""
"survey-text","3","16226","0.0-1.0-2.0","6107f24d21eaa93618cf9191","6662009ae78f21dd82fcd179","66620bd4f00fd6264e417d49","2406","","{""Q0"":""25""}","","","","","","","","","","","","","","","","","",""
"instructions","4","18627","0.0-2.0","6107f24d21eaa93618cf9191","6662009ae78f21dd82fcd179","66620bd4f00fd6264e417d49","2292","","","","[{""page_index"":0,""viewing_time"":2292}]","","","","","","","","","","","","","","","",""
"preload","5","20990","0.0-3.0-0.0","6107f24d21eaa93618cf9191","6662009ae78f21dd82fcd179","66620bd4f00fd6264e417d49","","","","","","true","false","[]","[]","[]","","","","","","","","","","",""
"instructions","6","106309","0.0-3.0-1.0","6107f24d21eaa93618cf9191","6662009ae78f21dd82fcd179","66620bd4f00fd6264e417d49","85318","","","","[{""page_index"":0,""viewing_time"":12361},{""page_index"":1,""viewing_time"":7507},{""page_index"":2,""viewing_time"":2625},{""page_index"":3,""viewing_time"":1635},{""page_index"":4,""viewing_time"":6698},{""page_index"":5,""viewing_time"":22545},{""page_index"":6,""viewing_time"":8300},{""page_index"":7,""viewing_time"":5470},{""page_index"":8,""viewing_time"":2854},{""page_index"":9,""viewing_time"":8307},{""page_index"":10,""viewing_time"":4145},{""page_index"":11,""viewing_time"":2870}]","","","","","","","","","","","","","","","",""
"html-button-response","7","109973","0.0-3.0-2.0-0.0-0.0","6107f24d21eaa93618cf9191","6662009ae78f21dd82fcd179","66620bd4f00fd6264e417d49","3662","","1","","","","","","","","<div align=center>Your goal is to predict…?<br><br></div>","","","","","","","","","",""
"html-button-response","8","120583","0.0-3.0-2.0-1.0-0.0","6107f24d21eaa93618cf9191","6662009ae78f21dd82fcd179","66620bd4f00fd6264e417d49","8827","","2","","","","","","","","<div align=center>In the jar with mostly white beads, there are ___% white beads and ___% black beads?<br><br></div>","","","","","","","","","",""
"html-button-response","9","133721","0.0-3.0-2.0-2.0-0.0","6107f24d21eaa93618cf9191","6662009ae78f21dd82fcd179","66620bd4f00fd6264e417d49","11886","","0","","","","","","","","<div align=center>When there is a 1% probability that the jars will switch, the next bead will most likely be drawn from the…<br><br></div>","","","","","","","","","",""
"html-button-response","10","137573","0.0-3.0-2.0-3.0-0.0","6107f24d21eaa93618cf9191","6662009ae78f21dd82fcd179","66620bd4f00fd6264e417d49","2755","","1","","","","","","","","<div align=center>When there is a 99% probability that the jars will switch, the next bead will most likely be drawn from the…<br><br></div>","","","","","","","","","",""
"instructions","11","147537","0.0-3.0-3.0","6107f24d21eaa93618cf9191","6662009ae78f21dd82fcd179","66620bd4f00fd6264e417d49","9015","","","","[{""page_index"":0,""viewing_time"":9015}]","","","","","","","","","","","","","","","",""
"html-keyboard-response","12","157250","0.0-3.0-4.0-0.0","6107f24d21eaa93618cf9191","6662009ae78f21dd82fcd179","66620bd4f00fd6264e417d49","9712",""," ","","","","","","","","<div align=center>In this practice block, there will be a <b>1% chance</b> that the jar on the next trial will be different from the jar on the current trial.<br><br></div>","","","","","","","","","",""
"image-keyboard-response","13","159316","0.0-3.0-4.0-1.0-0.0","6107f24d21eaa93618cf9191","6662009ae78f21dd82fcd179","66620bd4f00fd6264e417d49","2048","","f","","","","","","","","./tasks/HMM-beads/Images/NoChoice.png","practice","0","0","0","0","9","0","true","",""
"image-keyboard-response","14","159619","0.0-3.0-4.0-1.0-1.0","6107f24d21eaa93618cf9191","6662009ae78f21dd82fcd179","66620bd4f00fd6264e417d49","null","","null","","","","","","","","./tasks/HMM-beads/Images/BlackBeadChoice.png","","","","","","","","","",""
"image-keyboard-response","15","160123","0.0-3.0-4.0-1.0-2.0","6107f24d21eaa93618cf9191","6662009ae78f21dd82fcd179","66620bd4f00fd6264e417d49","null","","null","","","","","","","","./tasks/HMM-beads/Images/BlackBeadChoiceCorrect.png","","","","","","","","","",""
"image-keyboard-response","16","161346","0.0-3.0-4.0-1.0-0.1","6107f24d21eaa93618cf9191","6662009ae78f21dd82fcd179","66620bd4f00fd6264e417d49","1222","","f","","","","","","","","./tasks/HMM-beads/Images/NewTrialBC.png","practice","0","1","0","0","0","0","true","",""
"image-keyboard-response","17","161650","0.0-3.0-4.0-1.0-1.1","6107f24d21eaa93618cf9191","6662009ae78f21dd82fcd179","66620bd4f00fd6264e417d49","null","","null","","","","","","","","./tasks/HMM-beads/Images/BlackBeadChoice.png","","","","","","","","","",""
"image-keyboard-response","18","162152","0.0-3.0-4.0-1.0-2.1","6107f24d21eaa93618cf9191","6662009ae78f21dd82fcd179","66620bd4f00fd6264e417d49","null","","null","","","","","","","","./tasks/HMM-beads/Images/BlackBeadChoiceCorrect.png","","","","","","","","","",""
"image-keyboard-response","19","163328","0.0-3.0-4.0-1.0-0.2","6107f24d21eaa93618cf9191","6662009ae78f21dd82fcd179","66620bd4f00fd6264e417d49","1174","","f","","","","","","","","./tasks/HMM-beads/Images/NewTrialBC.png","practice","0","2","0","1","0","0","false","",""
"image-keyboard-response","20","163634","0.0-3.0-4.0-1.0-1.2","6107f24d21eaa93618cf9191","6662009ae78f21dd82fcd179","66620bd4f00fd6264e417d49","null","","null","","","","","","","","./tasks/HMM-beads/Images/BlackBeadChoice.png","","","","","","","","","",""
"image-keyboard-response","21","164135","0.0-3.0-4.0-1.0-2.2","6107f24d21eaa93618cf9191","6662009ae78f21dd82fcd179","66620bd4f00fd6264e417d49","null","","null","","","","","","","","./tasks/HMM-beads/Images/BlackBeadChoiceWrong.png","","","","","","","","","",""
"image-keyboard-response","22","166222","0.0-3.0-4.0-1.0-0.3","6107f24d21eaa93618cf9191","6662009ae78f21dd82fcd179","66620bd4f00fd6264e417d49","2086","","f","","","","","","","","./tasks/HMM-beads/Images/NewTrialWC.png","practice","0","3","0","0","1","0","true","",""
"image-keyboard-response","23","166532","0.0-3.0-4.0-1.0-1.3","6107f24d21eaa93618cf9191","6662009ae78f21dd82fcd179","66620bd4f00fd6264e417d49","null","","null","","","","","","","","./tasks/HMM-beads/Images/BlackBeadChoice.png","","","","","","","","","",""
"image-keyboard-response","24","167045","0.0-3.0-4.0-1.0-2.3","6107f24d21eaa93618cf9191","6662009ae78f21dd82fcd179","66620bd4f00fd6264e417d49","null","","null","","","","","","","","./tasks/HMM-beads/Images/BlackBeadChoiceCorrect.png","","","","","","","","","",""
"image-keyboard-response","25","168289","0.0-3.0-4.0-1.0-0.4","6107f24d21eaa93618cf9191","6662009ae78f21dd82fcd179","66620bd4f00fd6264e417d49","1243","","j","","","","","","","","./tasks/HMM-beads/Images/NewTrialBC.png","practice","0","4","0","0","0","1","false","",""
"image-keyboard-response","26","168594","0.0-3.0-4.0-1.0-1.4","6107f24d21eaa93618cf9191","6662009ae78f21dd82fcd179","66620bd4f00fd6264e417d49","null","","null","","","","","","","","./tasks/HMM-beads/Images/WhiteBeadChoice.png","","","","","","","","","",""
"image-keyboard-response","27","169097","0.0-3.0-4.0-1.0-2.4","6107f24d21eaa93618cf9191","6662009ae78f21dd82fcd179","66620bd4f00fd6264e417d49","null","","null","","","","","","","","./tasks/HMM-beads/Images/WhiteBeadChoiceWrong.png","","","","","","","","","",""
"image-keyboard-response","28","170463","0.0-3.0-4.0-1.0-0.5","6107f24d21eaa93618cf9191","6662009ae78f21dd82fcd179","66620bd4f00fd6264e417d49","1365","","f","","","","","","","","./tasks/HMM-beads/Images/NewTrialBC.png","practice","0","5","0","1","0","0","false","",""
"image-keyboard-response","29","170768","0.0-3.0-4.0-1.0-1.5","6107f24d21eaa93618cf9191","6662009ae78f21dd82fcd179","66620bd4f00fd6264e417d49","null","","null","","","","","","","","./tasks/HMM-beads/Images/BlackBeadChoice.png","","","","","","","","","",""
"image-keyboard-response","30","171271","0.0-3.0-4.0-1.0-2.5","6107f24d21eaa93618cf9191","6662009ae78f21dd82fcd179","66620bd4f00fd6264e417d49","null","","null","","","","","","","","./tasks/HMM-beads/Images/BlackBeadChoiceWrong.png","","","","","","","","","",""
"image-keyboard-response","31","173035","0.0-3.0-4.0-1.0-0.6","6107f24d21eaa93618cf9191","6662009ae78f21dd82fcd179","66620bd4f00fd6264e417d49","1762","","f","","","","","","","","./tasks/HMM-beads/Images/NewTrialWC.png","practice","0","6","0","0","1","0","true","",""
"image-keyboard-response","32","173337","0.0-3.0-4.0-1.0-1.6","6107f24d21eaa93618cf9191","6662009ae78f21dd82fcd179","66620bd4f00fd6264e417d49","null","","null","","","","","","","","./tasks/HMM-beads/Images/BlackBeadChoice.png","","","","","","","","","",""
"image-keyboard-response","33","173842","0.0-3.0-4.0-1.0-2.6","6107f24d21eaa93618cf9191","6662009ae78f21dd82fcd179","66620bd4f00fd6264e417d49","null","","null","","","","","","","","./tasks/HMM-beads/Images/BlackBeadChoiceCorrect.png","","","","","","","","","",""
"image-keyboard-response","34","174456","0.0-3.0-4.0-1.0-0.7","6107f24d21eaa93618cf9191","6662009ae78f21dd82fcd179","66620bd4f00fd6264e417d49","613","","f","","","","","","","","./tasks/HMM-beads/Images/NewTrialBC.png","practice","0","7","0","0","0","0","true","",""
"image-keyboard-response","35","174759","0.0-3.0-4.0-1.0-1.7","6107f24d21eaa93618cf9191","6662009ae78f21dd82fcd179","66620bd4f00fd6264e417d49","null","","null","","","","","","","","./tasks/HMM-beads/Images/BlackBeadChoice.png","","","","","","","","","",""
"image-keyboard-response","36","175267","0.0-3.0-4.0-1.0-2.7","6107f24d21eaa93618cf9191","6662009ae78f21dd82fcd179","66620bd4f00fd6264e417d49","null","","null","","","","","","","","./tasks/HMM-beads/Images/BlackBeadChoiceCorrect.png","","","","","","","","","",""
"image-keyboard-response","37","175719","0.0-3.0-4.0-1.0-0.8","6107f24d21eaa93618cf9191","6662009ae78f21dd82fcd179","66620bd4f00fd6264e417d49","451","","j","","","","","","","","./tasks/HMM-beads/Images/NewTrialBC.png","practice","0","8","0","0","0","1","false","",""
"image-keyboard-response","38","176021","0.0-3.0-4.0-1.0-1.8","6107f24d21eaa93618cf9191","6662009ae78f21dd82fcd179","66620bd4f00fd6264e417d49","null","","null","","","","","","","","./tasks/HMM-beads/Images/WhiteBeadChoice.png","","","","","","","","","",""
"image-keyboard-response","39","176533","0.0-3.0-4.0-1.0-2.8","6107f24d21eaa93618cf9191","6662009ae78f21dd82fcd179","66620bd4f00fd6264e417d49","null","","null","","","","","","","","./tasks/HMM-beads/Images/WhiteBeadChoiceWrong.png","","","","","","","","","",""
"image-keyboard-response","40","177523","0.0-3.0-4.0-1.0-0.9","6107f24d21eaa93618cf9191","6662009ae78f21dd82fcd179","66620bd4f00fd6264e417d49","989","","f","","","","","","","","./tasks/HMM-beads/Images/NewTrialBC.png","practice","0","9","0","1","0","0","false","",""
"image-keyboard-response","41","177825","0.0-3.0-4.0-1.0-1.9","6107f24d21eaa93618cf9191","6662009ae78f21dd82fcd179","66620bd4f00fd6264e417d49","null","","null","","","","","","","","./tasks/HMM-beads/Images/BlackBeadChoice.png","","","","","","","","","",""
"image-keyboard-response","42","178328","0.0-3.0-4.0-1.0-2.9","6107f24d21eaa93618cf9191","6662009ae78f21dd82fcd179","66620bd4f00fd6264e417d49","null","","null","","","","","","","","./tasks/HMM-beads/Images/BlackBeadChoiceWrong.png","","","","","","","","","",""
"image-keyboard-response","43","178750","0.0-3.0-4.0-1.0-0.10","6107f24d21eaa93618cf9191","6662009ae78f21dd82fcd179","66620bd4f00fd6264e417d49","421","","j","","","","","","","","./tasks/HMM-beads/Images/NewTrialWC.png","practice","0","10","0","0","1","1","false","",""
"image-keyboard-response","44","179059","0.0-3.0-4.0-1.0-1.10","6107f24d21eaa93618cf9191","6662009ae78f21dd82fcd179","66620bd4f00fd6264e417d49","null","","null","","","","","","","","./tasks/HMM-beads/Images/WhiteBeadChoice.png","","","","","","","","","",""
"image-keyboard-response","45","179572","0.0-3.0-4.0-1.0-2.10","6107f24d21eaa93618cf9191","6662009ae78f21dd82fcd179","66620bd4f00fd6264e417d49","null","","null","","","","","","","","./tasks/HMM-beads/Images/WhiteBeadChoiceWrong.png","","","","","","","","","",""
"image-keyboard-response","46","181178","0.0-3.0-4.0-1.0-0.11","6107f24d21eaa93618cf9191","6662009ae78f21dd82fcd179","66620bd4f00fd6264e417d49","1606","","f","","","","","","","","./tasks/HMM-beads/Images/NewTrialBC.png","practice","0","11","0","1","0","0","false","",""
"image-keyboard-response","47","181481","0.0-3.0-4.0-1.0-1.11","6107f24d21eaa93618cf9191","6662009ae78f21dd82fcd179","66620bd4f00fd6264e417d49","null","","null","","","","","","","","./tasks/HMM-beads/Images/BlackBeadChoice.png","","","","","","","","","",""
"image-keyboard-response","48","181989","0.0-3.0-4.0-1.0-2.11","6107f24d21eaa93618cf9191","6662009ae78f21dd82fcd179","66620bd4f00fd6264e417d49","null","","null","","","","","","","","./tasks/HMM-beads/Images/BlackBeadChoiceWrong.png","","","","","","","","","",""
"image-keyboard-response","49","182879","0.0-3.0-4.0-1.0-0.12","6107f24d21eaa93618cf9191","6662009ae78f21dd82fcd179","66620bd4f00fd6264e417d49","889","","f","","","","","","","","./tasks/HMM-beads/Images/NewTrialWC.png","practice","0","12","0","0","1","0","true","",""
"image-keyboard-response","50","183188","0.0-3.0-4.0-1.0-1.12","6107f24d21eaa93618cf9191","6662009ae78f21dd82fcd179","66620bd4f00fd6264e417d49","null","","null","","","","","","","","./tasks/HMM-beads/Images/BlackBeadChoice.png","","","","","","","","","",""
"image-keyboard-response","51","183697","0.0-3.0-4.0-1.0-2.12","6107f24d21eaa93618cf9191","6662009ae78f21dd82fcd179","66620bd4f00fd6264e417d49","null","","null","","","","","","","","./tasks/HMM-beads/Images/BlackBeadChoiceCorrect.png","","","","","","","","","",""
"image-keyboard-response","52","186982","0.0-3.0-4.0-1.0-0.13","6107f24d21eaa93618cf9191","6662009ae78f21dd82fcd179","66620bd4f00fd6264e417d49","3284","","f","","","","","","","","./tasks/HMM-beads/Images/NewTrialBC.png","practice","0","13","0","0","0","0","true","",""
"image-keyboard-response","53","187284","0.0-3.0-4.0-1.0-1.13","6107f24d21eaa93618cf9191","6662009ae78f21dd82fcd179","66620bd4f00fd6264e417d49","null","","null","","","","","","","","./tasks/HMM-beads/Images/BlackBeadChoice.png","","","","","","","","","",""
"image-keyboard-response","54","187793","0.0-3.0-4.0-1.0-2.13","6107f24d21eaa93618cf9191","6662009ae78f21dd82fcd179","66620bd4f00fd6264e417d49","null","","null","","","","","","","","./tasks/HMM-beads/Images/BlackBeadChoiceCorrect.png","","","","","","","","","",""
"image-keyboard-response","55","188561","0.0-3.0-4.0-1.0-0.14","6107f24d21eaa93618cf9191","6662009ae78f21dd82fcd179","66620bd4f00fd6264e417d49","768","","j","","","","","","","","./tasks/HMM-beads/Images/NewTrialBC.png","practice","0","14","0","0","0","1","false","",""
"image-keyboard-response","56","188868","0.0-3.0-4.0-1.0-1.14","6107f24d21eaa93618cf9191","6662009ae78f21dd82fcd179","66620bd4f00fd6264e417d49","null","","null","","","","","","","","./tasks/HMM-beads/Images/WhiteBeadChoice.png","","","","","","","","","",""
"image-keyboard-response","57","189378","0.0-3.0-4.0-1.0-2.14","6107f24d21eaa93618cf9191","6662009ae78f21dd82fcd179","66620bd4f00fd6264e417d49","null","","null","","","","","","","","./tasks/HMM-beads/Images/WhiteBeadChoiceWrong.png","","","","","","","","","",""
"image-keyboard-response","58","190307","0.0-3.0-4.0-1.0-0.15","6107f24d21eaa93618cf9191","6662009ae78f21dd82fcd179","66620bd4f00fd6264e417d49","928","","f","","","","","","","","./tasks/HMM-beads/Images/NewTrialBC.png","practice","0","15","0","0","0","0","true","",""
"image-keyboard-response","59","190610","0.0-3.0-4.0-1.0-1.15","6107f24d21eaa93618cf9191","6662009ae78f21dd82fcd179","66620bd4f00fd6264e417d49","null","","null","","","","","","","","./tasks/HMM-beads/Images/BlackBeadChoice.png","","","","","","","","","",""
"image-keyboard-response","60","191113","0.0-3.0-4.0-1.0-2.15","6107f24d21eaa93618cf9191","6662009ae78f21dd82fcd179","66620bd4f00fd6264e417d49","null","","null","","","","","","","","./tasks/HMM-beads/Images/BlackBeadChoiceCorrect.png","","","","","","","","","",""
"image-keyboard-response","61","191825","0.0-3.0-4.0-1.0-0.16","6107f24d21eaa93618cf9191","6662009ae78f21dd82fcd179","66620bd4f00fd6264e417d49","711","","f","","","","","","","","./tasks/HMM-beads/Images/NewTrialBC.png","practice","0","16","0","0","0","0","true","",""
"image-keyboard-response","62","192132","0.0-3.0-4.0-1.0-1.16","6107f24d21eaa93618cf9191","6662009ae78f21dd82fcd179","66620bd4f00fd6264e417d49","null","","null","","","","","","","","./tasks/HMM-beads/Images/BlackBeadChoice.png","","","","","","","","","",""
"image-keyboard-response","63","192644","0.0-3.0-4.0-1.0-2.16","6107f24d21eaa93618cf9191","6662009ae78f21dd82fcd179","66620bd4f00fd6264e417d49","null","","null","","","","","","","","./tasks/HMM-beads/Images/BlackBeadChoiceCorrect.png","","","","","","","","","",""
"image-keyboard-response","64","193270","0.0-3.0-4.0-1.0-0.17","6107f24d21eaa93618cf9191","6662009ae78f21dd82fcd179","66620bd4f00fd6264e417d49","625","","f","","","","","","","","./tasks/HMM-beads/Images/NewTrialBC.png","practice","0","17","0","0","0","0","true","",""
"image-keyboard-response","65","193572","0.0-3.0-4.0-1.0-1.17","6107f24d21eaa93618cf9191","6662009ae78f21dd82fcd179","66620bd4f00fd6264e417d49","null","","null","","","","","","","","./tasks/HMM-beads/Images/BlackBeadChoice.png","","","","","","","","","",""
"image-keyboard-response","66","194084","0.0-3.0-4.0-1.0-2.17","6107f24d21eaa93618cf9191","6662009ae78f21dd82fcd179","66620bd4f00fd6264e417d49","null","","null","","","","","","","","./tasks/HMM-beads/Images/BlackBeadChoiceCorrect.png","","","","","","","","","",""
"image-keyboard-response","67","195101","0.0-3.0-4.0-1.0-0.18","6107f24d21eaa93618cf9191","6662009ae78f21dd82fcd179","66620bd4f00fd6264e417d49","1015","","f","","","","","","","","./tasks/HMM-beads/Images/NewTrialBC.png","practice","0","18","0","1","0","0","false","",""
"image-keyboard-response","68","195412","0.0-3.0-4.0-1.0-1.18","6107f24d21eaa93618cf9191","6662009ae78f21dd82fcd179","66620bd4f00fd6264e417d49","null","","null","","","","","","","","./tasks/HMM-beads/Images/BlackBeadChoice.png","","","","","","","","","",""
"image-keyboard-response","69","195925","0.0-3.0-4.0-1.0-2.18","6107f24d21eaa93618cf9191","6662009ae78f21dd82fcd179","66620bd4f00fd6264e417d49","null","","null","","","","","","","","./tasks/HMM-beads/Images/BlackBeadChoiceWrong.png","","","","","","","","","",""
"image-keyboard-response","70","197163","0.0-3.0-4.0-1.0-0.19","6107f24d21eaa93618cf9191","6662009ae78f21dd82fcd179","66620bd4f00fd6264e417d49","1237","","f","","","","","","","","./tasks/HMM-beads/Images/NewTrialWC.png","practice","0","19","0","0","1","0","true","",""
"image-keyboard-response","71","197475","0.0-3.0-4.0-1.0-1.19","6107f24d21eaa93618cf9191","6662009ae78f21dd82fcd179","66620bd4f00fd6264e417d49","null","","null","","","","","","","","./tasks/HMM-beads/Images/BlackBeadChoice.png","","","","","","","","","",""
"image-keyboard-response","72","197977","0.0-3.0-4.0-1.0-2.19","6107f24d21eaa93618cf9191","6662009ae78f21dd82fcd179","66620bd4f00fd6264e417d49","null","","null","","","","","","","","./tasks/HMM-beads/Images/BlackBeadChoiceCorrect.png","","","","","","","","","",""
"image-keyboard-response","73","198610","0.0-3.0-4.0-1.0-0.20","6107f24d21eaa93618cf9191","6662009ae78f21dd82fcd179","66620bd4f00fd6264e417d49","631","","f","","","","","","","","./tasks/HMM-beads/Images/NewTrialBC.png","practice","0","20","0","0","0","0","true","",""
"image-keyboard-response","74","198913","0.0-3.0-4.0-1.0-1.20","6107f24d21eaa93618cf9191","6662009ae78f21dd82fcd179","66620bd4f00fd6264e417d49","null","","null","","","","","","","","./tasks/HMM-beads/Images/BlackBeadChoice.png","","","","","","","","","",""
"image-keyboard-response","75","199416","0.0-3.0-4.0-1.0-2.20","6107f24d21eaa93618cf9191","6662009ae78f21dd82fcd179","66620bd4f00fd6264e417d49","null","","null","","","","","","","","./tasks/HMM-beads/Images/BlackBeadChoiceCorrect.png","","","","","","","","","",""
"image-keyboard-response","76","200643","0.0-3.0-4.0-1.0-0.21","6107f24d21eaa93618cf9191","6662009ae78f21dd82fcd179","66620bd4f00fd6264e417d49","1226","","j","","","","","","","","./tasks/HMM-beads/Images/NewTrialBC.png","practice","0","21","0","1","0","1","true","",""
"image-keyboard-response","77","200947","0.0-3.0-4.0-1.0-1.21","6107f24d21eaa93618cf9191","6662009ae78f21dd82fcd179","66620bd4f00fd6264e417d49","null","","null","","","","","","","","./tasks/HMM-beads/Images/WhiteBeadChoice.png","","","","","","","","","",""
"image-keyboard-response","78","201450","0.0-3.0-4.0-1.0-2.21","6107f24d21eaa93618cf9191","6662009ae78f21dd82fcd179","66620bd4f00fd6264e417d49","null","","null","","","","","","","","./tasks/HMM-beads/Images/WhiteBeadChoiceCorrect.png","","","","","","","","","",""
"image-keyboard-response","79","202455","0.0-3.0-4.0-1.0-0.22","6107f24d21eaa93618cf9191","6662009ae78f21dd82fcd179","66620bd4f00fd6264e417d49","1004","","f","","","","","","","","./tasks/HMM-beads/Images/NewTrialWC.png","practice","0","22","1","1","1","0","false","",""
"image-keyboard-response","80","202756","0.0-3.0-4.0-1.0-1.22","6107f24d21eaa93618cf9191","6662009ae78f21dd82fcd179","66620bd4f00fd6264e417d49","null","","null","","","","","","","","./tasks/HMM-beads/Images/BlackBeadChoice.png","","","","","","","","","",""
"image-keyboard-response","81","203267","0.0-3.0-4.0-1.0-2.22","6107f24d21eaa93618cf9191","6662009ae78f21dd82fcd179","66620bd4f00fd6264e417d49","null","","null","","","","","","","","./tasks/HMM-beads/Images/BlackBeadChoiceWrong.png","","","","","","","","","",""
"image-keyboard-response","82","204554","0.0-3.0-4.0-1.0-0.23","6107f24d21eaa93618cf9191","6662009ae78f21dd82fcd179","66620bd4f00fd6264e417d49","1286","","f","","","","","","","","./tasks/HMM-beads/Images/NewTrialWC.png","practice","0","23","1","0","1","0","true","",""
"image-keyboard-response","83","204858","0.0-3.0-4.0-1.0-1.23","6107f24d21eaa93618cf9191","6662009ae78f21dd82fcd179","66620bd4f00fd6264e417d49","null","","null","","","","","","","","./tasks/HMM-beads/Images/BlackBeadChoice.png","","","","","","","","","",""
"image-keyboard-response","84","205364","0.0-3.0-4.0-1.0-2.23","6107f24d21eaa93618cf9191","6662009ae78f21dd82fcd179","66620bd4f00fd6264e417d49","null","","null","","","","","","","","./tasks/HMM-beads/Images/BlackBeadChoiceCorrect.png","","","","","","","","","",""
"image-keyboard-response","85","206611","0.0-3.0-4.0-1.0-0.24","6107f24d21eaa93618cf9191","6662009ae78f21dd82fcd179","66620bd4f00fd6264e417d49","1246","","f","","","","","","","","./tasks/HMM-beads/Images/NewTrialBC.png","practice","0","24","1","1","0","0","false","",""
"image-keyboard-response","86","206917","0.0-3.0-4.0-1.0-1.24","6107f24d21eaa93618cf9191","6662009ae78f21dd82fcd179","66620bd4f00fd6264e417d49","null","","null","","","","","","","","./tasks/HMM-beads/Images/BlackBeadChoice.png","","","","","","","","","",""
"image-keyboard-response","87","207428","0.0-3.0-4.0-1.0-2.24","6107f24d21eaa93618cf9191","6662009ae78f21dd82fcd179","66620bd4f00fd6264e417d49","null","","null","","","","","","","","./tasks/HMM-beads/Images/BlackBeadChoiceWrong.png","","","","","","","","","",""
"image-keyboard-response","88","208746","0.0-3.0-4.0-1.0-0.25","6107f24d21eaa93618cf9191","6662009ae78f21dd82fcd179","66620bd4f00fd6264e417d49","1307","","f","","","","","","","","./tasks/HMM-beads/Images/NewTrialWC.png","practice","0","25","1","1","1","0","false","",""
"image-keyboard-response","89","209050","0.0-3.0-4.0-1.0-1.25","6107f24d21eaa93618cf9191","6662009ae78f21dd82fcd179","66620bd4f00fd6264e417d49","null","","null","","","","","","","","./tasks/HMM-beads/Images/BlackBeadChoice.png","","","","","","","","","",""
"image-keyboard-response","90","209553","0.0-3.0-4.0-1.0-2.25","6107f24d21eaa93618cf9191","6662009ae78f21dd82fcd179","66620bd4f00fd6264e417d49","null","","null","","","","","","","","./tasks/HMM-beads/Images/BlackBeadChoiceWrong.png","","","","","","","","","",""
"image-keyboard-response","91","210417","0.0-3.0-4.0-1.0-0.26","6107f24d21eaa93618cf9191","6662009ae78f21dd82fcd179","66620bd4f00fd6264e417d49","862","","j","","","","","","","","./tasks/HMM-beads/Images/NewTrialWC.png","practice","0","26","1","1","1","1","true","",""
"image-keyboard-response","92","210722","0.0-3.0-4.0-1.0-1.26","6107f24d21eaa93618cf9191","6662009ae78f21dd82fcd179","66620bd4f00fd6264e417d49","null","","null","","","","","","","","./tasks/HMM-beads/Images/WhiteBeadChoice.png","","","","","","","","","",""
"image-keyboard-response","93","211224","0.0-3.0-4.0-1.0-2.26","6107f24d21eaa93618cf9191","6662009ae78f21dd82fcd179","66620bd4f00fd6264e417d49","null","","null","","","","","","","","./tasks/HMM-beads/Images/WhiteBeadChoiceCorrect.png","","","","","","","","","",""
"image-keyboard-response","94","211998","0.0-3.0-4.0-1.0-0.27","6107f24d21eaa93618cf9191","6662009ae78f21dd82fcd179","66620bd4f00fd6264e417d49","773","","j","","","","","","","","./tasks/HMM-beads/Images/NewTrialWC.png","practice","0","27","1","1","1","1","true","",""
"image-keyboard-response","95","212307","0.0-3.0-4.0-1.0-1.27","6107f24d21eaa93618cf9191","6662009ae78f21dd82fcd179","66620bd4f00fd6264e417d49","null","","null","","","","","","","","./tasks/HMM-beads/Images/WhiteBeadChoice.png","","","","","","","","","",""
"image-keyboard-response","96","212811","0.0-3.0-4.0-1.0-2.27","6107f24d21eaa93618cf9191","6662009ae78f21dd82fcd179","66620bd4f00fd6264e417d49","null","","null","","","","","","","","./tasks/HMM-beads/Images/WhiteBeadChoiceCorrect.png","","","","","","","","","",""
"image-keyboard-response","97","213693","0.0-3.0-4.0-1.0-0.28","6107f24d21eaa93618cf9191","6662009ae78f21dd82fcd179","66620bd4f00fd6264e417d49","880","","j","","","","","","","","./tasks/HMM-beads/Images/NewTrialWC.png","practice","0","28","1","0","1","1","false","",""
"image-keyboard-response","98","214002","0.0-3.0-4.0-1.0-1.28","6107f24d21eaa93618cf9191","6662009ae78f21dd82fcd179","66620bd4f00fd6264e417d49","null","","null","","","","","","","","./tasks/HMM-beads/Images/WhiteBeadChoice.png","","","","","","","","","",""
"image-keyboard-response","99","214504","0.0-3.0-4.0-1.0-2.28","6107f24d21eaa93618cf9191","6662009ae78f21dd82fcd179","66620bd4f00fd6264e417d49","null","","null","","","","","","","","./tasks/HMM-beads/Images/WhiteBeadChoiceWrong.png","","","","","","","","","",""
"image-keyboard-response","100","215589","0.0-3.0-4.0-1.0-0.29","6107f24d21eaa93618cf9191","6662009ae78f21dd82fcd179","66620bd4f00fd6264e417d49","1084","","j","","","","","","","","./tasks/HMM-beads/Images/NewTrialBC.png","practice","0","29","1","1","0","1","true","",""
"image-keyboard-response","101","215894","0.0-3.0-4.0-1.0-1.29","6107f24d21eaa93618cf9191","6662009ae78f21dd82fcd179","66620bd4f00fd6264e417d49","null","","null","","","","","","","","./tasks/HMM-beads/Images/WhiteBeadChoice.png","","","","","","","","","",""
"image-keyboard-response","102","216405","0.0-3.0-4.0-1.0-2.29","6107f24d21eaa93618cf9191","6662009ae78f21dd82fcd179","66620bd4f00fd6264e417d49","null","","null","","","","","","","","./tasks/HMM-beads/Images/WhiteBeadChoiceCorrect.png","","","","","","","","","",""
"image-keyboard-response","103","217102","0.0-3.0-4.0-1.0-0.30","6107f24d21eaa93618cf9191","6662009ae78f21dd82fcd179","66620bd4f00fd6264e417d49","696","","f","","","","","","","","./tasks/HMM-beads/Images/NewTrialWC.png","practice","0","30","1","0","1","0","true","",""
"image-keyboard-response","104","217411","0.0-3.0-4.0-1.0-1.30","6107f24d21eaa93618cf9191","6662009ae78f21dd82fcd179","66620bd4f00fd6264e417d49","null","","null","","","","","","","","./tasks/HMM-beads/Images/BlackBeadChoice.png","","","","","","","","","",""
"image-keyboard-response","105","217915","0.0-3.0-4.0-1.0-2.30","6107f24d21eaa93618cf9191","6662009ae78f21dd82fcd179","66620bd4f00fd6264e417d49","null","","null","","","","","","","","./tasks/HMM-beads/Images/BlackBeadChoiceCorrect.png","","","","","","","","","",""
"image-keyboard-response","106","218575","0.0-3.0-4.0-1.0-0.31","6107f24d21eaa93618cf9191","6662009ae78f21dd82fcd179","66620bd4f00fd6264e417d49","659","","j","","","","","","","","./tasks/HMM-beads/Images/NewTrialBC.png","practice","0","31","1","1","0","1","true","",""
"image-keyboard-response","107","218886","0.0-3.0-4.0-1.0-1.31","6107f24d21eaa93618cf9191","6662009ae78f21dd82fcd179","66620bd4f00fd6264e417d49","null","","null","","","","","","","","./tasks/HMM-beads/Images/WhiteBeadChoice.png","","","","","","","","","",""
"image-keyboard-response","108","219396","0.0-3.0-4.0-1.0-2.31","6107f24d21eaa93618cf9191","6662009ae78f21dd82fcd179","66620bd4f00fd6264e417d49","null","","null","","","","","","","","./tasks/HMM-beads/Images/WhiteBeadChoiceCorrect.png","","","","","","","","","",""
"image-keyboard-response","109","220061","0.0-3.0-4.0-1.0-0.32","6107f24d21eaa93618cf9191","6662009ae78f21dd82fcd179","66620bd4f00fd6264e417d49","664","","j","","","","","","","","./tasks/HMM-beads/Images/NewTrialWC.png","practice","0","32","1","1","1","1","true","",""
"image-keyboard-response","110","220373","0.0-3.0-4.0-1.0-1.32","6107f24d21eaa93618cf9191","6662009ae78f21dd82fcd179","66620bd4f00fd6264e417d49","null","","null","","","","","","","","./tasks/HMM-beads/Images/WhiteBeadChoice.png","","","","","","","","","",""
"image-keyboard-response","111","220885","0.0-3.0-4.0-1.0-2.32","6107f24d21eaa93618cf9191","6662009ae78f21dd82fcd179","66620bd4f00fd6264e417d49","null","","null","","","","","","","","./tasks/HMM-beads/Images/WhiteBeadChoiceCorrect.png","","","","","","","","","",""
"image-keyboard-response","112","221590","0.0-3.0-4.0-1.0-0.33","6107f24d21eaa93618cf9191","6662009ae78f21dd82fcd179","66620bd4f00fd6264e417d49","704","","j","","","","","","","","./tasks/HMM-beads/Images/NewTrialWC.png","practice","0","33","1","1","1","1","true","",""
"image-keyboard-response","113","221893","0.0-3.0-4.0-1.0-1.33","6107f24d21eaa93618cf9191","6662009ae78f21dd82fcd179","66620bd4f00fd6264e417d49","null","","null","","","","","","","","./tasks/HMM-beads/Images/WhiteBeadChoice.png","","","","","","","","","",""
"image-keyboard-response","114","222401","0.0-3.0-4.0-1.0-2.33","6107f24d21eaa93618cf9191","6662009ae78f21dd82fcd179","66620bd4f00fd6264e417d49","null","","null","","","","","","","","./tasks/HMM-beads/Images/WhiteBeadChoiceCorrect.png","","","","","","","","","",""
"image-keyboard-response","115","223312","0.0-3.0-4.0-1.0-0.34","6107f24d21eaa93618cf9191","6662009ae78f21dd82fcd179","66620bd4f00fd6264e417d49","910","","j","","","","","","","","./tasks/HMM-beads/Images/NewTrialWC.png","practice","0","34","1","1","1","1","true","",""
"image-keyboard-response","116","223618","0.0-3.0-4.0-1.0-1.34","6107f24d21eaa93618cf9191","6662009ae78f21dd82fcd179","66620bd4f00fd6264e417d49","null","","null","","","","","","","","./tasks/HMM-beads/Images/WhiteBeadChoice.png","","","","","","","","","",""
"image-keyboard-response","117","224120","0.0-3.0-4.0-1.0-2.34","6107f24d21eaa93618cf9191","6662009ae78f21dd82fcd179","66620bd4f00fd6264e417d49","null","","null","","","","","","","","./tasks/HMM-beads/Images/WhiteBeadChoiceCorrect.png","","","","","","","","","",""
"image-keyboard-response","118","224717","0.0-3.0-4.0-1.0-0.35","6107f24d21eaa93618cf9191","6662009ae78f21dd82fcd179","66620bd4f00fd6264e417d49","596","","j","","","","","","","","./tasks/HMM-beads/Images/NewTrialWC.png","practice","0","35","1","1","1","1","true","",""
"image-keyboard-response","119","225027","0.0-3.0-4.0-1.0-1.35","6107f24d21eaa93618cf9191","6662009ae78f21dd82fcd179","66620bd4f00fd6264e417d49","null","","null","","","","","","","","./tasks/HMM-beads/Images/WhiteBeadChoice.png","","","","","","","","","",""
"image-keyboard-response","120","225531","0.0-3.0-4.0-1.0-2.35","6107f24d21eaa93618cf9191","6662009ae78f21dd82fcd179","66620bd4f00fd6264e417d49","null","","null","","","","","","","","./tasks/HMM-beads/Images/WhiteBeadChoiceCorrect.png","","","","","","","","","",""
"image-keyboard-response","121","226456","0.0-3.0-4.0-1.0-0.36","6107f24d21eaa93618cf9191","6662009ae78f21dd82fcd179","66620bd4f00fd6264e417d49","924","","j","","","","","","","","./tasks/HMM-beads/Images/NewTrialWC.png","practice","0","36","1","0","1","1","false","",""
"image-keyboard-response","122","226772","0.0-3.0-4.0-1.0-1.36","6107f24d21eaa93618cf9191","6662009ae78f21dd82fcd179","66620bd4f00fd6264e417d49","null","","null","","","","","","","","./tasks/HMM-beads/Images/WhiteBeadChoice.png","","","","","","","","","",""
"image-keyboard-response","123","227282","0.0-3.0-4.0-1.0-2.36","6107f24d21eaa93618cf9191","6662009ae78f21dd82fcd179","66620bd4f00fd6264e417d49","null","","null","","","","","","","","./tasks/HMM-beads/Images/WhiteBeadChoiceWrong.png","","","","","","","","","",""
"image-keyboard-response","124","228257","0.0-3.0-4.0-1.0-0.37","6107f24d21eaa93618cf9191","6662009ae78f21dd82fcd179","66620bd4f00fd6264e417d49","973","","j","","","","","","","","./tasks/HMM-beads/Images/NewTrialBC.png","practice","0","37","1","1","0","1","true","",""
"image-keyboard-response","125","228564","0.0-3.0-4.0-1.0-1.37","6107f24d21eaa93618cf9191","6662009ae78f21dd82fcd179","66620bd4f00fd6264e417d49","null","","null","","","","","","","","./tasks/HMM-beads/Images/WhiteBeadChoice.png","","","","","","","","","",""
"image-keyboard-response","126","229076","0.0-3.0-4.0-1.0-2.37","6107f24d21eaa93618cf9191","6662009ae78f21dd82fcd179","66620bd4f00fd6264e417d49","null","","null","","","","","","","","./tasks/HMM-beads/Images/WhiteBeadChoiceCorrect.png","","","","","","","","","",""
"image-keyboard-response","127","229638","0.0-3.0-4.0-1.0-0.38","6107f24d21eaa93618cf9191","6662009ae78f21dd82fcd179","66620bd4f00fd6264e417d49","561","","j","","","","","","","","./tasks/HMM-beads/Images/NewTrialWC.png","practice","0","38","1","1","1","1","true","",""
"image-keyboard-response","128","229941","0.0-3.0-4.0-1.0-1.38","6107f24d21eaa93618cf9191","6662009ae78f21dd82fcd179","66620bd4f00fd6264e417d49","null","","null","","","","","","","","./tasks/HMM-beads/Images/WhiteBeadChoice.png","","","","","","","","","",""
"image-keyboard-response","129","230453","0.0-3.0-4.0-1.0-2.38","6107f24d21eaa93618cf9191","6662009ae78f21dd82fcd179","66620bd4f00fd6264e417d49","null","","null","","","","","","","","./tasks/HMM-beads/Images/WhiteBeadChoiceCorrect.png","","","","","","","","","",""
"image-keyboard-response","130","231150","0.0-3.0-4.0-1.0-0.39","6107f24d21eaa93618cf9191","6662009ae78f21dd82fcd179","66620bd4f00fd6264e417d49","695","","j","","","","","","","","./tasks/HMM-beads/Images/NewTrialWC.png","practice","0","39","1","1","1","1","true","",""
"image-keyboard-response","131","231459","0.0-3.0-4.0-1.0-1.39","6107f24d21eaa93618cf9191","6662009ae78f21dd82fcd179","66620bd4f00fd6264e417d49","null","","null","","","","","","","","./tasks/HMM-beads/Images/WhiteBeadChoice.png","","","","","","","","","",""
"image-keyboard-response","132","231962","0.0-3.0-4.0-1.0-2.39","6107f24d21eaa93618cf9191","6662009ae78f21dd82fcd179","66620bd4f00fd6264e417d49","null","","null","","","","","","","","./tasks/HMM-beads/Images/WhiteBeadChoiceCorrect.png","","","","","","","","","",""
"html-keyboard-response","133","235796","0.0-3.0-4.0-2.0","6107f24d21eaa93618cf9191","6662009ae78f21dd82fcd179","66620bd4f00fd6264e417d49","3832",""," ","","","","","","","","","","","","","","","","","",""
"instructions","134","250654","0.0-3.0-5.0","6107f24d21eaa93618cf9191","6662009ae78f21dd82fcd179","66620bd4f00fd6264e417d49","14858","","","","[{""page_index"":0,""viewing_time"":11718},{""page_index"":1,""viewing_time"":3139}]","","","","","","","","","","","","","","","",""
"html-keyboard-response","135","254759","0.0-3.0-6.0-0.0","6107f24d21eaa93618cf9191","6662009ae78f21dd82fcd179","66620bd4f00fd6264e417d49","4104",""," ","","","","","","","","<div align=center>In this block, there will be a <b>1% chance</b> that the jar on the next trial will be different from the jar on the current trial.<br><br></div>","","","","","","","","","",""
"image-keyboard-response","136","256086","0.0-3.0-6.0-1.0-0.0","6107f24d21eaa93618cf9191","6662009ae78f21dd82fcd179","66620bd4f00fd6264e417d49","1326","","f","","","","","","","","./tasks/HMM-beads/Images/NoChoice.png","lowH","1","0","1","0","9","0","true","",""
"image-keyboard-response","137","256389","0.0-3.0-6.0-1.0-1.0","6107f24d21eaa93618cf9191","6662009ae78f21dd82fcd179","66620bd4f00fd6264e417d49","null","","null","","","","","","","","./tasks/HMM-beads/Images/BlackBeadChoice.png","","","","","","","","","",""
"image-keyboard-response","138","256901","0.0-3.0-6.0-1.0-2.0","6107f24d21eaa93618cf9191","6662009ae78f21dd82fcd179","66620bd4f00fd6264e417d49","null","","null","","","","","","","","./tasks/HMM-beads/Images/BlackBeadChoiceCorrect.png","","","","","","","","","",""
"image-keyboard-response","139","257648","0.0-3.0-6.0-1.0-0.1","6107f24d21eaa93618cf9191","6662009ae78f21dd82fcd179","66620bd4f00fd6264e417d49","745","","f","","","","","","","","./tasks/HMM-beads/Images/NewTrialBC.png","lowH","1","1","1","1","0","0","false","",""
"image-keyboard-response","140","257956","0.0-3.0-6.0-1.0-1.1","6107f24d21eaa93618cf9191","6662009ae78f21dd82fcd179","66620bd4f00fd6264e417d49","null","","null","","","","","","","","./tasks/HMM-beads/Images/BlackBeadChoice.png","","","","","","","","","",""
"image-keyboard-response","141","258458","0.0-3.0-6.0-1.0-2.1","6107f24d21eaa93618cf9191","6662009ae78f21dd82fcd179","66620bd4f00fd6264e417d49","null","","null","","","","","","","","./tasks/HMM-beads/Images/BlackBeadChoiceWrong.png","","","","","","","","","",""
"image-keyboard-response","142","259508","0.0-3.0-6.0-1.0-0.2","6107f24d21eaa93618cf9191","6662009ae78f21dd82fcd179","66620bd4f00fd6264e417d49","1049","","f","","","","","","","","./tasks/HMM-beads/Images/NewTrialWC.png","lowH","1","2","1","1","1","0","false","",""
"image-keyboard-response","143","259813","0.0-3.0-6.0-1.0-1.2","6107f24d21eaa93618cf9191","6662009ae78f21dd82fcd179","66620bd4f00fd6264e417d49","null","","null","","","","","","","","./tasks/HMM-beads/Images/BlackBeadChoice.png","","","","","","","","","",""
"image-keyboard-response","144","260325","0.0-3.0-6.0-1.0-2.2","6107f24d21eaa93618cf9191","6662009ae78f21dd82fcd179","66620bd4f00fd6264e417d49","null","","null","","","","","","","","./tasks/HMM-beads/Images/BlackBeadChoiceWrong.png","","","","","","","","","",""
"image-keyboard-response","145","260790","0.0-3.0-6.0-1.0-0.3","6107f24d21eaa93618cf9191","6662009ae78f21dd82fcd179","66620bd4f00fd6264e417d49","464","","j","","","","","","","","./tasks/HMM-beads/Images/NewTrialWC.png","lowH","1","3","1","1","1","1","true","",""
"image-keyboard-response","146","261091","0.0-3.0-6.0-1.0-1.3","6107f24d21eaa93618cf9191","6662009ae78f21dd82fcd179","66620bd4f00fd6264e417d49","null","","null","","","","","","","","./tasks/HMM-beads/Images/WhiteBeadChoice.png","","","","","","","","","",""
"image-keyboard-response","147","261595","0.0-3.0-6.0-1.0-2.3","6107f24d21eaa93618cf9191","6662009ae78f21dd82fcd179","66620bd4f00fd6264e417d49","null","","null","","","","","","","","./tasks/HMM-beads/Images/WhiteBeadChoiceCorrect.png","","","","","","","","","",""
"image-keyboard-response","148","262286","0.0-3.0-6.0-1.0-0.4","6107f24d21eaa93618cf9191","6662009ae78f21dd82fcd179","66620bd4f00fd6264e417d49","689","","j","","","","","","","","./tasks/HMM-beads/Images/NewTrialWC.png","lowH","1","4","1","1","1","1","true","",""
"image-keyboard-response","149","262594","0.0-3.0-6.0-1.0-1.4","6107f24d21eaa93618cf9191","6662009ae78f21dd82fcd179","66620bd4f00fd6264e417d49","null","","null","","","","","","","","./tasks/HMM-beads/Images/WhiteBeadChoice.png","","","","","","","","","",""
"image-keyboard-response","150","263096","0.0-3.0-6.0-1.0-2.4","6107f24d21eaa93618cf9191","6662009ae78f21dd82fcd179","66620bd4f00fd6264e417d49","null","","null","","","","","","","","./tasks/HMM-beads/Images/WhiteBeadChoiceCorrect.png","","","","","","","","","",""
"image-keyboard-response","151","264101","0.0-3.0-6.0-1.0-0.5","6107f24d21eaa93618cf9191","6662009ae78f21dd82fcd179","66620bd4f00fd6264e417d49","1003","","j","","","","","","","","./tasks/HMM-beads/Images/NewTrialWC.png","lowH","1","5","1","1","1","1","true","",""
"image-keyboard-response","152","264403","0.0-3.0-6.0-1.0-1.5","6107f24d21eaa93618cf9191","6662009ae78f21dd82fcd179","66620bd4f00fd6264e417d49","null","","null","","","","","","","","./tasks/HMM-beads/Images/WhiteBeadChoice.png","","","","","","","","","",""
"image-keyboard-response","153","264906","0.0-3.0-6.0-1.0-2.5","6107f24d21eaa93618cf9191","6662009ae78f21dd82fcd179","66620bd4f00fd6264e417d49","null","","null","","","","","","","","./tasks/HMM-beads/Images/WhiteBeadChoiceCorrect.png","","","","","","","","","",""
"image-keyboard-response","154","265430","0.0-3.0-6.0-1.0-0.6","6107f24d21eaa93618cf9191","6662009ae78f21dd82fcd179","66620bd4f00fd6264e417d49","523","","f","","","","","","","","./tasks/HMM-beads/Images/NewTrialWC.png","lowH","1","6","1","0","1","0","true","",""
"image-keyboard-response","155","265734","0.0-3.0-6.0-1.0-1.6","6107f24d21eaa93618cf9191","6662009ae78f21dd82fcd179","66620bd4f00fd6264e417d49","null","","null","","","","","","","","./tasks/HMM-beads/Images/BlackBeadChoice.png","","","","","","","","","",""
"image-keyboard-response","156","266245","0.0-3.0-6.0-1.0-2.6","6107f24d21eaa93618cf9191","6662009ae78f21dd82fcd179","66620bd4f00fd6264e417d49","null","","null","","","","","","","","./tasks/HMM-beads/Images/BlackBeadChoiceCorrect.png","","","","","","","","","",""
"image-keyboard-response","157","267266","0.0-3.0-6.0-1.0-0.7","6107f24d21eaa93618cf9191","6662009ae78f21dd82fcd179","66620bd4f00fd6264e417d49","1020","","j","","","","","","","","./tasks/HMM-beads/Images/NewTrialBC.png","lowH","1","7","1","1","0","1","true","",""
"image-keyboard-response","158","267573","0.0-3.0-6.0-1.0-1.7","6107f24d21eaa93618cf9191","6662009ae78f21dd82fcd179","66620bd4f00fd6264e417d49","null","","null","","","","","","","","./tasks/HMM-beads/Images/WhiteBeadChoice.png","","","","","","","","","",""
"image-keyboard-response","159","268084","0.0-3.0-6.0-1.0-2.7","6107f24d21eaa93618cf9191","6662009ae78f21dd82fcd179","66620bd4f00fd6264e417d49","null","","null","","","","","","","","./tasks/HMM-beads/Images/WhiteBeadChoiceCorrect.png","","","","","","","","","",""
"image-keyboard-response","160","268734","0.0-3.0-6.0-1.0-0.8","6107f24d21eaa93618cf9191","6662009ae78f21dd82fcd179","66620bd4f00fd6264e417d49","649","","j","","","","","","","","./tasks/HMM-beads/Images/NewTrialWC.png","lowH","1","8","1","1","1","1","true","",""
"image-keyboard-response","161","269044","0.0-3.0-6.0-1.0-1.8","6107f24d21eaa93618cf9191","6662009ae78f21dd82fcd179","66620bd4f00fd6264e417d49","null","","null","","","","","","","","./tasks/HMM-beads/Images/WhiteBeadChoice.png","","","","","","","","","",""
"image-keyboard-response","162","269546","0.0-3.0-6.0-1.0-2.8","6107f24d21eaa93618cf9191","6662009ae78f21dd82fcd179","66620bd4f00fd6264e417d49","null","","null","","","","","","","","./tasks/HMM-beads/Images/WhiteBeadChoiceCorrect.png","","","","","","","","","",""
"image-keyboard-response","163","270344","0.0-3.0-6.0-1.0-0.9","6107f24d21eaa93618cf9191","6662009ae78f21dd82fcd179","66620bd4f00fd6264e417d49","797","","j","","","","","","","","./tasks/HMM-beads/Images/NewTrialWC.png","lowH","1","9","1","1","1","1","true","",""
"image-keyboard-response","164","270646","0.0-3.0-6.0-1.0-1.9","6107f24d21eaa93618cf9191","6662009ae78f21dd82fcd179","66620bd4f00fd6264e417d49","null","","null","","","","","","","","./tasks/HMM-beads/Images/WhiteBeadChoice.png","","","","","","","","","",""
"image-keyboard-response","165","271158","0.0-3.0-6.0-1.0-2.9","6107f24d21eaa93618cf9191","6662009ae78f21dd82fcd179","66620bd4f00fd6264e417d49","null","","null","","","","","","","","./tasks/HMM-beads/Images/WhiteBeadChoiceCorrect.png","","","","","","","","","",""
"image-keyboard-response","166","271670","0.0-3.0-6.0-1.0-0.10","6107f24d21eaa93618cf9191","6662009ae78f21dd82fcd179","66620bd4f00fd6264e417d49","511","","j","","","","","","","","./tasks/HMM-beads/Images/NewTrialWC.png","lowH","1","10","1","1","1","1","true","",""
"image-keyboard-response","167","271971","0.0-3.0-6.0-1.0-1.10","6107f24d21eaa93618cf9191","6662009ae78f21dd82fcd179","66620bd4f00fd6264e417d49","null","","null","","","","","","","","./tasks/HMM-beads/Images/WhiteBeadChoice.png","","","","","","","","","",""
"image-keyboard-response","168","272474","0.0-3.0-6.0-1.0-2.10","6107f24d21eaa93618cf9191","6662009ae78f21dd82fcd179","66620bd4f00fd6264e417d49","null","","null","","","","","","","","./tasks/HMM-beads/Images/WhiteBeadChoiceCorrect.png","","","","","","","","","",""
"image-keyboard-response","169","273195","0.0-3.0-6.0-1.0-0.11","6107f24d21eaa93618cf9191","6662009ae78f21dd82fcd179","66620bd4f00fd6264e417d49","720","","j","","","","","","","","./tasks/HMM-beads/Images/NewTrialWC.png","lowH","1","11","1","1","1","1","true","",""
"image-keyboard-response","170","273497","0.0-3.0-6.0-1.0-1.11","6107f24d21eaa93618cf9191","6662009ae78f21dd82fcd179","66620bd4f00fd6264e417d49","null","","null","","","","","","","","./tasks/HMM-beads/Images/WhiteBeadChoice.png","","","","","","","","","",""
"image-keyboard-response","171","274007","0.0-3.0-6.0-1.0-2.11","6107f24d21eaa93618cf9191","6662009ae78f21dd82fcd179","66620bd4f00fd6264e417d49","null","","null","","","","","","","","./tasks/HMM-beads/Images/WhiteBeadChoiceCorrect.png","","","","","","","","","",""
"image-keyboard-response","172","274549","0.0-3.0-6.0-1.0-0.12","6107f24d21eaa93618cf9191","6662009ae78f21dd82fcd179","66620bd4f00fd6264e417d49","541","","j","","","","","","","","./tasks/HMM-beads/Images/NewTrialWC.png","lowH","1","12","1","1","1","1","true","",""
"image-keyboard-response","173","274854","0.0-3.0-6.0-1.0-1.12","6107f24d21eaa93618cf9191","6662009ae78f21dd82fcd179","66620bd4f00fd6264e417d49","null","","null","","","","","","","","./tasks/HMM-beads/Images/WhiteBeadChoice.png","","","","","","","","","",""
"image-keyboard-response","174","275366","0.0-3.0-6.0-1.0-2.12","6107f24d21eaa93618cf9191","6662009ae78f21dd82fcd179","66620bd4f00fd6264e417d49","null","","null","","","","","","","","./tasks/HMM-beads/Images/WhiteBeadChoiceCorrect.png","","","","","","","","","",""
"image-keyboard-response","175","276257","0.0-3.0-6.0-1.0-0.13","6107f24d21eaa93618cf9191","6662009ae78f21dd82fcd179","66620bd4f00fd6264e417d49","890","","f","","","","","","","","./tasks/HMM-beads/Images/NewTrialWC.png","lowH","1","13","1","0","1","0","true","",""
"image-keyboard-response","176","276565","0.0-3.0-6.0-1.0-1.13","6107f24d21eaa93618cf9191","6662009ae78f21dd82fcd179","66620bd4f00fd6264e417d49","null","","null","","","","","","","","./tasks/HMM-beads/Images/BlackBeadChoice.png","","","","","","","","","",""
"image-keyboard-response","177","277077","0.0-3.0-6.0-1.0-2.13","6107f24d21eaa93618cf9191","6662009ae78f21dd82fcd179","66620bd4f00fd6264e417d49","null","","null","","","","","","","","./tasks/HMM-beads/Images/BlackBeadChoiceCorrect.png","","","","","","","","","",""
"image-keyboard-response","178","277707","0.0-3.0-6.0-1.0-0.14","6107f24d21eaa93618cf9191","6662009ae78f21dd82fcd179","66620bd4f00fd6264e417d49","629","","j","","","","","","","","./tasks/HMM-beads/Images/NewTrialBC.png","lowH","1","14","1","0","0","1","false","",""
"image-keyboard-response","179","278009","0.0-3.0-6.0-1.0-1.14","6107f24d21eaa93618cf9191","6662009ae78f21dd82fcd179","66620bd4f00fd6264e417d49","null","","null","","","","","","","","./tasks/HMM-beads/Images/WhiteBeadChoice.png","","","","","","","","","",""
"image-keyboard-response","180","278516","0.0-3.0-6.0-1.0-2.14","6107f24d21eaa93618cf9191","6662009ae78f21dd82fcd179","66620bd4f00fd6264e417d49","null","","null","","","","","","","","./tasks/HMM-beads/Images/WhiteBeadChoiceWrong.png","","","","","","","","","",""
"image-keyboard-response","181","279733","0.0-3.0-6.0-1.0-0.15","6107f24d21eaa93618cf9191","6662009ae78f21dd82fcd179","66620bd4f00fd6264e417d49","1216","","f","","","","","","","","./tasks/HMM-beads/Images/NewTrialBC.png","lowH","1","15","1","1","0","0","false","",""
"image-keyboard-response","182","280039","0.0-3.0-6.0-1.0-1.15","6107f24d21eaa93618cf9191","6662009ae78f21dd82fcd179","66620bd4f00fd6264e417d49","null","","null","","","","","","","","./tasks/HMM-beads/Images/BlackBeadChoice.png","","","","","","","","","",""
"image-keyboard-response","183","280548","0.0-3.0-6.0-1.0-2.15","6107f24d21eaa93618cf9191","6662009ae78f21dd82fcd179","66620bd4f00fd6264e417d49","null","","null","","","","","","","","./tasks/HMM-beads/Images/BlackBeadChoiceWrong.png","","","","","","","","","",""
"image-keyboard-response","184","281658","0.0-3.0-6.0-1.0-0.16","6107f24d21eaa93618cf9191","6662009ae78f21dd82fcd179","66620bd4f00fd6264e417d49","1109","","j","","","","","","","","./tasks/HMM-beads/Images/NewTrialWC.png","lowH","1","16","1","1","1","1","true","",""
"image-keyboard-response","185","281961","0.0-3.0-6.0-1.0-1.16","6107f24d21eaa93618cf9191","6662009ae78f21dd82fcd179","66620bd4f00fd6264e417d49","null","","null","","","","","","","","./tasks/HMM-beads/Images/WhiteBeadChoice.png","","","","","","","","","",""
"image-keyboard-response","186","282470","0.0-3.0-6.0-1.0-2.16","6107f24d21eaa93618cf9191","6662009ae78f21dd82fcd179","66620bd4f00fd6264e417d49","null","","null","","","","","","","","./tasks/HMM-beads/Images/WhiteBeadChoiceCorrect.png","","","","","","","","","",""
"image-keyboard-response","187","282892","0.0-3.0-6.0-1.0-0.17","6107f24d21eaa93618cf9191","6662009ae78f21dd82fcd179","66620bd4f00fd6264e417d49","421","","j","","","","","","","","./tasks/HMM-beads/Images/NewTrialWC.png","lowH","1","17","1","1","1","1","true","",""
"image-keyboard-response","188","283194","0.0-3.0-6.0-1.0-1.17","6107f24d21eaa93618cf9191","6662009ae78f21dd82fcd179","66620bd4f00fd6264e417d49","null","","null","","","","","","","","./tasks/HMM-beads/Images/WhiteBeadChoice.png","","","","","","","","","",""
"image-keyboard-response","189","283702","0.0-3.0-6.0-1.0-2.17","6107f24d21eaa93618cf9191","6662009ae78f21dd82fcd179","66620bd4f00fd6264e417d49","null","","null","","","","","","","","./tasks/HMM-beads/Images/WhiteBeadChoiceCorrect.png","","","","","","","","","",""
"image-keyboard-response","190","284149","0.0-3.0-6.0-1.0-0.18","6107f24d21eaa93618cf9191","6662009ae78f21dd82fcd179","66620bd4f00fd6264e417d49","445","","j","","","","","","","","./tasks/HMM-beads/Images/NewTrialWC.png","lowH","1","18","1","1","1","1","true","",""
"image-keyboard-response","191","284453","0.0-3.0-6.0-1.0-1.18","6107f24d21eaa93618cf9191","6662009ae78f21dd82fcd179","66620bd4f00fd6264e417d49","null","","null","","","","","","","","./tasks/HMM-beads/Images/WhiteBeadChoice.png","","","","","","","","","",""
"image-keyboard-response","192","284966","0.0-3.0-6.0-1.0-2.18","6107f24d21eaa93618cf9191","6662009ae78f21dd82fcd179","66620bd4f00fd6264e417d49","null","","null","","","","","","","","./tasks/HMM-beads/Images/WhiteBeadChoiceCorrect.png","","","","","","","","","",""
"image-keyboard-response","193","285410","0.0-3.0-6.0-1.0-0.19","6107f24d21eaa93618cf9191","6662009ae78f21dd82fcd179","66620bd4f00fd6264e417d49","442","","j","","","","","","","","./tasks/HMM-beads/Images/NewTrialWC.png","lowH","1","19","1","1","1","1","true","",""
"image-keyboard-response","194","285715","0.0-3.0-6.0-1.0-1.19","6107f24d21eaa93618cf9191","6662009ae78f21dd82fcd179","66620bd4f00fd6264e417d49","null","","null","","","","","","","","./tasks/HMM-beads/Images/WhiteBeadChoice.png","","","","","","","","","",""
"image-keyboard-response","195","286230","0.0-3.0-6.0-1.0-2.19","6107f24d21eaa93618cf9191","6662009ae78f21dd82fcd179","66620bd4f00fd6264e417d49","null","","null","","","","","","","","./tasks/HMM-beads/Images/WhiteBeadChoiceCorrect.png","","","","","","","","","",""
"image-keyboard-response","196","286689","0.0-3.0-6.0-1.0-0.20","6107f24d21eaa93618cf9191","6662009ae78f21dd82fcd179","66620bd4f00fd6264e417d49","458","","j","","","","","","","","./tasks/HMM-beads/Images/NewTrialWC.png","lowH","1","20","1","1","1","1","true","",""
"image-keyboard-response","197","286997","0.0-3.0-6.0-1.0-1.20","6107f24d21eaa93618cf9191","6662009ae78f21dd82fcd179","66620bd4f00fd6264e417d49","null","","null","","","","","","","","./tasks/HMM-beads/Images/WhiteBeadChoice.png","","","","","","","","","",""
"image-keyboard-response","198","287510","0.0-3.0-6.0-1.0-2.20","6107f24d21eaa93618cf9191","6662009ae78f21dd82fcd179","66620bd4f00fd6264e417d49","null","","null","","","","","","","","./tasks/HMM-beads/Images/WhiteBeadChoiceCorrect.png","","","","","","","","","",""
"image-keyboard-response","199","287984","0.0-3.0-6.0-1.0-0.21","6107f24d21eaa93618cf9191","6662009ae78f21dd82fcd179","66620bd4f00fd6264e417d49","472","","j","","","","","","","","./tasks/HMM-beads/Images/NewTrialWC.png","lowH","1","21","1","1","1","1","true","",""
"image-keyboard-response","200","288291","0.0-3.0-6.0-1.0-1.21","6107f24d21eaa93618cf9191","6662009ae78f21dd82fcd179","66620bd4f00fd6264e417d49","null","","null","","","","","","","","./tasks/HMM-beads/Images/WhiteBeadChoice.png","","","","","","","","","",""
"image-keyboard-response","201","288794","0.0-3.0-6.0-1.0-2.21","6107f24d21eaa93618cf9191","6662009ae78f21dd82fcd179","66620bd4f00fd6264e417d49","null","","null","","","","","","","","./tasks/HMM-beads/Images/WhiteBeadChoiceCorrect.png","","","","","","","","","",""
"image-keyboard-response","202","289276","0.0-3.0-6.0-1.0-0.22","6107f24d21eaa93618cf9191","6662009ae78f21dd82fcd179","66620bd4f00fd6264e417d49","481","","f","","","","","","","","./tasks/HMM-beads/Images/NewTrialWC.png","lowH","1","22","1","1","1","0","false","",""
"image-keyboard-response","203","289577","0.0-3.0-6.0-1.0-1.22","6107f24d21eaa93618cf9191","6662009ae78f21dd82fcd179","66620bd4f00fd6264e417d49","null","","null","","","","","","","","./tasks/HMM-beads/Images/BlackBeadChoice.png","","","","","","","","","",""
"image-keyboard-response","204","290085","0.0-3.0-6.0-1.0-2.22","6107f24d21eaa93618cf9191","6662009ae78f21dd82fcd179","66620bd4f00fd6264e417d49","null","","null","","","","","","","","./tasks/HMM-beads/Images/BlackBeadChoiceWrong.png","","","","","","","","","",""
"image-keyboard-response","205","290593","0.0-3.0-6.0-1.0-0.23","6107f24d21eaa93618cf9191","6662009ae78f21dd82fcd179","66620bd4f00fd6264e417d49","507","","j","","","","","","","","./tasks/HMM-beads/Images/NewTrialWC.png","lowH","1","23","1","1","1","1","true","",""
"image-keyboard-response","206","290902","0.0-3.0-6.0-1.0-1.23","6107f24d21eaa93618cf9191","6662009ae78f21dd82fcd179","66620bd4f00fd6264e417d49","null","","null","","","","","","","","./tasks/HMM-beads/Images/WhiteBeadChoice.png","","","","","","","","","",""
"image-keyboard-response","207","291414","0.0-3.0-6.0-1.0-2.23","6107f24d21eaa93618cf9191","6662009ae78f21dd82fcd179","66620bd4f00fd6264e417d49","null","","null","","","","","","","","./tasks/HMM-beads/Images/WhiteBeadChoiceCorrect.png","","","","","","","","","",""
"image-keyboard-response","208","291916","0.0-3.0-6.0-1.0-0.24","6107f24d21eaa93618cf9191","6662009ae78f21dd82fcd179","66620bd4f00fd6264e417d49","502","","j","","","","","","","","./tasks/HMM-beads/Images/NewTrialWC.png","lowH","1","24","1","0","1","1","false","",""
"image-keyboard-response","209","292219","0.0-3.0-6.0-1.0-1.24","6107f24d21eaa93618cf9191","6662009ae78f21dd82fcd179","66620bd4f00fd6264e417d49","null","","null","","","","","","","","./tasks/HMM-beads/Images/WhiteBeadChoice.png","","","","","","","","","",""
"image-keyboard-response","210","292725","0.0-3.0-6.0-1.0-2.24","6107f24d21eaa93618cf9191","6662009ae78f21dd82fcd179","66620bd4f00fd6264e417d49","null","","null","","","","","","","","./tasks/HMM-beads/Images/WhiteBeadChoiceWrong.png","","","","","","","","","",""
"image-keyboard-response","211","293944","0.0-3.0-6.0-1.0-0.25","6107f24d21eaa93618cf9191","6662009ae78f21dd82fcd179","66620bd4f00fd6264e417d49","1218","","j","","","","","","","","./tasks/HMM-beads/Images/NewTrialBC.png","lowH","1","25","1","1","0","1","true","",""
"image-keyboard-response","212","294246","0.0-3.0-6.0-1.0-1.25","6107f24d21eaa93618cf9191","6662009ae78f21dd82fcd179","66620bd4f00fd6264e417d49","null","","null","","","","","","","","./tasks/HMM-beads/Images/WhiteBeadChoice.png","","","","","","","","","",""
"image-keyboard-response","213","294756","0.0-3.0-6.0-1.0-2.25","6107f24d21eaa93618cf9191","6662009ae78f21dd82fcd179","66620bd4f00fd6264e417d49","null","","null","","","","","","","","./tasks/HMM-beads/Images/WhiteBeadChoiceCorrect.png","","","","","","","","","",""
"image-keyboard-response","214","295327","0.0-3.0-6.0-1.0-0.26","6107f24d21eaa93618cf9191","6662009ae78f21dd82fcd179","66620bd4f00fd6264e417d49","569","","j","","","","","","","","./tasks/HMM-beads/Images/NewTrialWC.png","lowH","1","26","1","0","1","1","false","",""
"image-keyboard-response","215","295637","0.0-3.0-6.0-1.0-1.26","6107f24d21eaa93618cf9191","6662009ae78f21dd82fcd179","66620bd4f00fd6264e417d49","null","","null","","","","","","","","./tasks/HMM-beads/Images/WhiteBeadChoice.png","","","","","","","","","",""
"image-keyboard-response","216","296149","0.0-3.0-6.0-1.0-2.26","6107f24d21eaa93618cf9191","6662009ae78f21dd82fcd179","66620bd4f00fd6264e417d49","null","","null","","","","","","","","./tasks/HMM-beads/Images/WhiteBeadChoiceWrong.png","","","","","","","","","",""
"image-keyboard-response","217","297662","0.0-3.0-6.0-1.0-0.27","6107f24d21eaa93618cf9191","6662009ae78f21dd82fcd179","66620bd4f00fd6264e417d49","1512","","j","","","","","","","","./tasks/HMM-beads/Images/NewTrialBC.png","lowH","1","27","1","1","0","1","true","",""
"image-keyboard-response","218","297972","0.0-3.0-6.0-1.0-1.27","6107f24d21eaa93618cf9191","6662009ae78f21dd82fcd179","66620bd4f00fd6264e417d49","null","","null","","","","","","","","./tasks/HMM-beads/Images/WhiteBeadChoice.png","","","","","","","","","",""
"image-keyboard-response","219","298473","0.0-3.0-6.0-1.0-2.27","6107f24d21eaa93618cf9191","6662009ae78f21dd82fcd179","66620bd4f00fd6264e417d49","null","","null","","","","","","","","./tasks/HMM-beads/Images/WhiteBeadChoiceCorrect.png","","","","","","","","","",""
"image-keyboard-response","220","298934","0.0-3.0-6.0-1.0-0.28","6107f24d21eaa93618cf9191","6662009ae78f21dd82fcd179","66620bd4f00fd6264e417d49","459","","f","","","","","","","","./tasks/HMM-beads/Images/NewTrialWC.png","lowH","1","28","1","1","1","0","false","",""
"image-keyboard-response","221","299238","0.0-3.0-6.0-1.0-1.28","6107f24d21eaa93618cf9191","6662009ae78f21dd82fcd179","66620bd4f00fd6264e417d49","null","","null","","","","","","","","./tasks/HMM-beads/Images/BlackBeadChoice.png","","","","","","","","","",""
"image-keyboard-response","222","299749","0.0-3.0-6.0-1.0-2.28","6107f24d21eaa93618cf9191","6662009ae78f21dd82fcd179","66620bd4f00fd6264e417d49","null","","null","","","","","","","","./tasks/HMM-beads/Images/BlackBeadChoiceWrong.png","","","","","","","","","",""
"image-keyboard-response","223","300273","0.0-3.0-6.0-1.0-0.29","6107f24d21eaa93618cf9191","6662009ae78f21dd82fcd179","66620bd4f00fd6264e417d49","523","","j","","","","","","","","./tasks/HMM-beads/Images/NewTrialWC.png","lowH","1","29","1","1","1","1","true","",""
"image-keyboard-response","224","300582","0.0-3.0-6.0-1.0-1.29","6107f24d21eaa93618cf9191","6662009ae78f21dd82fcd179","66620bd4f00fd6264e417d49","null","","null","","","","","","","","./tasks/HMM-beads/Images/WhiteBeadChoice.png","","","","","","","","","",""
"image-keyboard-response","225","301094","0.0-3.0-6.0-1.0-2.29","6107f24d21eaa93618cf9191","6662009ae78f21dd82fcd179","66620bd4f00fd6264e417d49","null","","null","","","","","","","","./tasks/HMM-beads/Images/WhiteBeadChoiceCorrect.png","","","","","","","","","",""
"image-keyboard-response","226","301625","0.0-3.0-6.0-1.0-0.30","6107f24d21eaa93618cf9191","6662009ae78f21dd82fcd179","66620bd4f00fd6264e417d49","530","","j","","","","","","","","./tasks/HMM-beads/Images/NewTrialWC.png","lowH","1","30","1","1","1","1","true","",""
"image-keyboard-response","227","301927","0.0-3.0-6.0-1.0-1.30","6107f24d21eaa93618cf9191","6662009ae78f21dd82fcd179","66620bd4f00fd6264e417d49","null","","null","","","","","","","","./tasks/HMM-beads/Images/WhiteBeadChoice.png","","","","","","","","","",""
"image-keyboard-response","228","302438","0.0-3.0-6.0-1.0-2.30","6107f24d21eaa93618cf9191","6662009ae78f21dd82fcd179","66620bd4f00fd6264e417d49","null","","null","","","","","","","","./tasks/HMM-beads/Images/WhiteBeadChoiceCorrect.png","","","","","","","","","",""
"image-keyboard-response","229","302934","0.0-3.0-6.0-1.0-0.31","6107f24d21eaa93618cf9191","6662009ae78f21dd82fcd179","66620bd4f00fd6264e417d49","495","","j","","","","","","","","./tasks/HMM-beads/Images/NewTrialWC.png","lowH","1","31","1","1","1","1","true","",""
"image-keyboard-response","230","303254","0.0-3.0-6.0-1.0-1.31","6107f24d21eaa93618cf9191","6662009ae78f21dd82fcd179","66620bd4f00fd6264e417d49","null","","null","","","","","","","","./tasks/HMM-beads/Images/WhiteBeadChoice.png","","","","","","","","","",""
"image-keyboard-response","231","303766","0.0-3.0-6.0-1.0-2.31","6107f24d21eaa93618cf9191","6662009ae78f21dd82fcd179","66620bd4f00fd6264e417d49","null","","null","","","","","","","","./tasks/HMM-beads/Images/WhiteBeadChoiceCorrect.png","","","","","","","","","",""
"image-keyboard-response","232","304213","0.0-3.0-6.0-1.0-0.32","6107f24d21eaa93618cf9191","6662009ae78f21dd82fcd179","66620bd4f00fd6264e417d49","446","","j","","","","","","","","./tasks/HMM-beads/Images/NewTrialWC.png","lowH","1","32","1","1","1","1","true","",""
"image-keyboard-response","233","304515","0.0-3.0-6.0-1.0-1.32","6107f24d21eaa93618cf9191","6662009ae78f21dd82fcd179","66620bd4f00fd6264e417d49","null","","null","","","","","","","","./tasks/HMM-beads/Images/WhiteBeadChoice.png","","","","","","","","","",""
"image-keyboard-response","234","305019","0.0-3.0-6.0-1.0-2.32","6107f24d21eaa93618cf9191","6662009ae78f21dd82fcd179","66620bd4f00fd6264e417d49","null","","null","","","","","","","","./tasks/HMM-beads/Images/WhiteBeadChoiceCorrect.png","","","","","","","","","",""
"image-keyboard-response","235","305530","0.0-3.0-6.0-1.0-0.33","6107f24d21eaa93618cf9191","6662009ae78f21dd82fcd179","66620bd4f00fd6264e417d49","510","","j","","","","","","","","./tasks/HMM-beads/Images/NewTrialWC.png","lowH","1","33","1","1","1","1","true","",""
"image-keyboard-response","236","305832","0.0-3.0-6.0-1.0-1.33","6107f24d21eaa93618cf9191","6662009ae78f21dd82fcd179","66620bd4f00fd6264e417d49","null","","null","","","","","","","","./tasks/HMM-beads/Images/WhiteBeadChoice.png","","","","","","","","","",""
"image-keyboard-response","237","306341","0.0-3.0-6.0-1.0-2.33","6107f24d21eaa93618cf9191","6662009ae78f21dd82fcd179","66620bd4f00fd6264e417d49","null","","null","","","","","","","","./tasks/HMM-beads/Images/WhiteBeadChoiceCorrect.png","","","","","","","","","",""
"image-keyboard-response","238","306797","0.0-3.0-6.0-1.0-0.34","6107f24d21eaa93618cf9191","6662009ae78f21dd82fcd179","66620bd4f00fd6264e417d49","455","","j","","","","","","","","./tasks/HMM-beads/Images/NewTrialWC.png","lowH","1","34","1","1","1","1","true","",""
"image-keyboard-response","239","307100","0.0-3.0-6.0-1.0-1.34","6107f24d21eaa93618cf9191","6662009ae78f21dd82fcd179","66620bd4f00fd6264e417d49","null","","null","","","","","","","","./tasks/HMM-beads/Images/WhiteBeadChoice.png","","","","","","","","","",""
"image-keyboard-response","240","307603","0.0-3.0-6.0-1.0-2.34","6107f24d21eaa93618cf9191","6662009ae78f21dd82fcd179","66620bd4f00fd6264e417d49","null","","null","","","","","","","","./tasks/HMM-beads/Images/WhiteBeadChoiceCorrect.png","","","","","","","","","",""
"image-keyboard-response","241","308170","0.0-3.0-6.0-1.0-0.35","6107f24d21eaa93618cf9191","6662009ae78f21dd82fcd179","66620bd4f00fd6264e417d49","565","","j","","","","","","","","./tasks/HMM-beads/Images/NewTrialWC.png","lowH","1","35","1","1","1","1","true","",""
"image-keyboard-response","242","308472","0.0-3.0-6.0-1.0-1.35","6107f24d21eaa93618cf9191","6662009ae78f21dd82fcd179","66620bd4f00fd6264e417d49","null","","null","","","","","","","","./tasks/HMM-beads/Images/WhiteBeadChoice.png","","","","","","","","","",""
"image-keyboard-response","243","308980","0.0-3.0-6.0-1.0-2.35","6107f24d21eaa93618cf9191","6662009ae78f21dd82fcd179","66620bd4f00fd6264e417d49","null","","null","","","","","","","","./tasks/HMM-beads/Images/WhiteBeadChoiceCorrect.png","","","","","","","","","",""
"image-keyboard-response","244","309529","0.0-3.0-6.0-1.0-0.36","6107f24d21eaa93618cf9191","6662009ae78f21dd82fcd179","66620bd4f00fd6264e417d49","549","","j","","","","","","","","./tasks/HMM-beads/Images/NewTrialWC.png","lowH","1","36","1","1","1","1","true","",""
"image-keyboard-response","245","309831","0.0-3.0-6.0-1.0-1.36","6107f24d21eaa93618cf9191","6662009ae78f21dd82fcd179","66620bd4f00fd6264e417d49","null","","null","","","","","","","","./tasks/HMM-beads/Images/WhiteBeadChoice.png","","","","","","","","","",""
"image-keyboard-response","246","310342","0.0-3.0-6.0-1.0-2.36","6107f24d21eaa93618cf9191","6662009ae78f21dd82fcd179","66620bd4f00fd6264e417d49","null","","null","","","","","","","","./tasks/HMM-beads/Images/WhiteBeadChoiceCorrect.png","","","","","","","","","",""
"image-keyboard-response","247","310880","0.0-3.0-6.0-1.0-0.37","6107f24d21eaa93618cf9191","6662009ae78f21dd82fcd179","66620bd4f00fd6264e417d49","526","","f","","","","","","","","./tasks/HMM-beads/Images/NewTrialWC.png","lowH","1","37","1","1","1","0","false","",""
"image-keyboard-response","248","311187","0.0-3.0-6.0-1.0-1.37","6107f24d21eaa93618cf9191","6662009ae78f21dd82fcd179","66620bd4f00fd6264e417d49","null","","null","","","","","","","","./tasks/HMM-beads/Images/BlackBeadChoice.png","","","","","","","","","",""
"image-keyboard-response","249","311690","0.0-3.0-6.0-1.0-2.37","6107f24d21eaa93618cf9191","6662009ae78f21dd82fcd179","66620bd4f00fd6264e417d49","null","","null","","","","","","","","./tasks/HMM-beads/Images/BlackBeadChoiceWrong.png","","","","","","","","","",""
"image-keyboard-response","250","312131","0.0-3.0-6.0-1.0-0.38","6107f24d21eaa93618cf9191","6662009ae78f21dd82fcd179","66620bd4f00fd6264e417d49","441","","j","","","","","","","","./tasks/HMM-beads/Images/NewTrialWC.png","lowH","1","38","1","1","1","1","true","",""
"image-keyboard-response","251","312437","0.0-3.0-6.0-1.0-1.38","6107f24d21eaa93618cf9191","6662009ae78f21dd82fcd179","66620bd4f00fd6264e417d49","null","","null","","","","","","","","./tasks/HMM-beads/Images/WhiteBeadChoice.png","","","","","","","","","",""
"image-keyboard-response","252","312941","0.0-3.0-6.0-1.0-2.38","6107f24d21eaa93618cf9191","6662009ae78f21dd82fcd179","66620bd4f00fd6264e417d49","null","","null","","","","","","","","./tasks/HMM-beads/Images/WhiteBeadChoiceCorrect.png","","","","","","","","","",""
"image-keyboard-response","253","313569","0.0-3.0-6.0-1.0-0.39","6107f24d21eaa93618cf9191","6662009ae78f21dd82fcd179","66620bd4f00fd6264e417d49","627","","j","","","","","","","","./tasks/HMM-beads/Images/NewTrialWC.png","lowH","1","39","1","1","1","1","true","",""
"image-keyboard-response","254","313875","0.0-3.0-6.0-1.0-1.39","6107f24d21eaa93618cf9191","6662009ae78f21dd82fcd179","66620bd4f00fd6264e417d49","null","","null","","","","","","","","./tasks/HMM-beads/Images/WhiteBeadChoice.png","","","","","","","","","",""
"image-keyboard-response","255","314377","0.0-3.0-6.0-1.0-2.39","6107f24d21eaa93618cf9191","6662009ae78f21dd82fcd179","66620bd4f00fd6264e417d49","null","","null","","","","","","","","./tasks/HMM-beads/Images/WhiteBeadChoiceCorrect.png","","","","","","","","","",""
"image-keyboard-response","256","314995","0.0-3.0-6.0-1.0-0.40","6107f24d21eaa93618cf9191","6662009ae78f21dd82fcd179","66620bd4f00fd6264e417d49","618","","j","","","","","","","","./tasks/HMM-beads/Images/NewTrialWC.png","lowH","1","40","1","1","1","1","true","",""
"image-keyboard-response","257","315300","0.0-3.0-6.0-1.0-1.40","6107f24d21eaa93618cf9191","6662009ae78f21dd82fcd179","66620bd4f00fd6264e417d49","null","","null","","","","","","","","./tasks/HMM-beads/Images/WhiteBeadChoice.png","","","","","","","","","",""
"image-keyboard-response","258","315813","0.0-3.0-6.0-1.0-2.40","6107f24d21eaa93618cf9191","6662009ae78f21dd82fcd179","66620bd4f00fd6264e417d49","null","","null","","","","","","","","./tasks/HMM-beads/Images/WhiteBeadChoiceCorrect.png","","","","","","","","","",""
"image-keyboard-response","259","316395","0.0-3.0-6.0-1.0-0.41","6107f24d21eaa93618cf9191","6662009ae78f21dd82fcd179","66620bd4f00fd6264e417d49","580","","j","","","","","","","","./tasks/HMM-beads/Images/NewTrialWC.png","lowH","1","41","1","1","1","1","true","",""
"image-keyboard-response","260","316697","0.0-3.0-6.0-1.0-1.41","6107f24d21eaa93618cf9191","6662009ae78f21dd82fcd179","66620bd4f00fd6264e417d49","null","","null","","","","","","","","./tasks/HMM-beads/Images/WhiteBeadChoice.png","","","","","","","","","",""
"image-keyboard-response","261","317207","0.0-3.0-6.0-1.0-2.41","6107f24d21eaa93618cf9191","6662009ae78f21dd82fcd179","66620bd4f00fd6264e417d49","null","","null","","","","","","","","./tasks/HMM-beads/Images/WhiteBeadChoiceCorrect.png","","","","","","","","","",""
"image-keyboard-response","262","317771","0.0-3.0-6.0-1.0-0.42","6107f24d21eaa93618cf9191","6662009ae78f21dd82fcd179","66620bd4f00fd6264e417d49","563","","j","","","","","","","","./tasks/HMM-beads/Images/NewTrialWC.png","lowH","1","42","1","1","1","1","true","",""
"image-keyboard-response","263","318072","0.0-3.0-6.0-1.0-1.42","6107f24d21eaa93618cf9191","6662009ae78f21dd82fcd179","66620bd4f00fd6264e417d49","null","","null","","","","","","","","./tasks/HMM-beads/Images/WhiteBeadChoice.png","","","","","","","","","",""
"image-keyboard-response","264","318580","0.0-3.0-6.0-1.0-2.42","6107f24d21eaa93618cf9191","6662009ae78f21dd82fcd179","66620bd4f00fd6264e417d49","null","","null","","","","","","","","./tasks/HMM-beads/Images/WhiteBeadChoiceCorrect.png","","","","","","","","","",""
"image-keyboard-response","265","319038","0.0-3.0-6.0-1.0-0.43","6107f24d21eaa93618cf9191","6662009ae78f21dd82fcd179","66620bd4f00fd6264e417d49","457","","j","","","","","","","","./tasks/HMM-beads/Images/NewTrialWC.png","lowH","1","43","1","1","1","1","true","",""
"image-keyboard-response","266","319347","0.0-3.0-6.0-1.0-1.43","6107f24d21eaa93618cf9191","6662009ae78f21dd82fcd179","66620bd4f00fd6264e417d49","null","","null","","","","","","","","./tasks/HMM-beads/Images/WhiteBeadChoice.png","","","","","","","","","",""
"image-keyboard-response","267","319851","0.0-3.0-6.0-1.0-2.43","6107f24d21eaa93618cf9191","6662009ae78f21dd82fcd179","66620bd4f00fd6264e417d49","null","","null","","","","","","","","./tasks/HMM-beads/Images/WhiteBeadChoiceCorrect.png","","","","","","","","","",""
"image-keyboard-response","268","320370","0.0-3.0-6.0-1.0-0.44","6107f24d21eaa93618cf9191","6662009ae78f21dd82fcd179","66620bd4f00fd6264e417d49","518","","j","","","","","","","","./tasks/HMM-beads/Images/NewTrialWC.png","lowH","1","44","1","1","1","1","true","",""
"image-keyboard-response","269","320676","0.0-3.0-6.0-1.0-1.44","6107f24d21eaa93618cf9191","6662009ae78f21dd82fcd179","66620bd4f00fd6264e417d49","null","","null","","","","","","","","./tasks/HMM-beads/Images/WhiteBeadChoice.png","","","","","","","","","",""
"image-keyboard-response","270","321180","0.0-3.0-6.0-1.0-2.44","6107f24d21eaa93618cf9191","6662009ae78f21dd82fcd179","66620bd4f00fd6264e417d49","null","","null","","","","","","","","./tasks/HMM-beads/Images/WhiteBeadChoiceCorrect.png","","","","","","","","","",""
"image-keyboard-response","271","321779","0.0-3.0-6.0-1.0-0.45","6107f24d21eaa93618cf9191","6662009ae78f21dd82fcd179","66620bd4f00fd6264e417d49","599","","j","","","","","","","","./tasks/HMM-beads/Images/NewTrialWC.png","lowH","1","45","1","1","1","1","true","",""
"image-keyboard-response","272","322084","0.0-3.0-6.0-1.0-1.45","6107f24d21eaa93618cf9191","6662009ae78f21dd82fcd179","66620bd4f00fd6264e417d49","null","","null","","","","","","","","./tasks/HMM-beads/Images/WhiteBeadChoice.png","","","","","","","","","",""
"image-keyboard-response","273","322586","0.0-3.0-6.0-1.0-2.45","6107f24d21eaa93618cf9191","6662009ae78f21dd82fcd179","66620bd4f00fd6264e417d49","null","","null","","","","","","","","./tasks/HMM-beads/Images/WhiteBeadChoiceCorrect.png","","","","","","","","","",""
"image-keyboard-response","274","323060","0.0-3.0-6.0-1.0-0.46","6107f24d21eaa93618cf9191","6662009ae78f21dd82fcd179","66620bd4f00fd6264e417d49","473","","j","","","","","","","","./tasks/HMM-beads/Images/NewTrialWC.png","lowH","1","46","1","1","1","1","true","",""
"image-keyboard-response","275","323364","0.0-3.0-6.0-1.0-1.46","6107f24d21eaa93618cf9191","6662009ae78f21dd82fcd179","66620bd4f00fd6264e417d49","null","","null","","","","","","","","./tasks/HMM-beads/Images/WhiteBeadChoice.png","","","","","","","","","",""
"image-keyboard-response","276","323866","0.0-3.0-6.0-1.0-2.46","6107f24d21eaa93618cf9191","6662009ae78f21dd82fcd179","66620bd4f00fd6264e417d49","null","","null","","","","","","","","./tasks/HMM-beads/Images/WhiteBeadChoiceCorrect.png","","","","","","","","","",""
"image-keyboard-response","277","324683","0.0-3.0-6.0-1.0-0.47","6107f24d21eaa93618cf9191","6662009ae78f21dd82fcd179","66620bd4f00fd6264e417d49","816","","j","","","","","","","","./tasks/HMM-beads/Images/NewTrialWC.png","lowH","1","47","1","0","1","1","false","",""
"image-keyboard-response","278","324985","0.0-3.0-6.0-1.0-1.47","6107f24d21eaa93618cf9191","6662009ae78f21dd82fcd179","66620bd4f00fd6264e417d49","null","","null","","","","","","","","./tasks/HMM-beads/Images/WhiteBeadChoice.png","","","","","","","","","",""
"image-keyboard-response","279","325494","0.0-3.0-6.0-1.0-2.47","6107f24d21eaa93618cf9191","6662009ae78f21dd82fcd179","66620bd4f00fd6264e417d49","null","","null","","","","","","","","./tasks/HMM-beads/Images/WhiteBeadChoiceWrong.png","","","","","","","","","",""
"image-keyboard-response","280","326824","0.0-3.0-6.0-1.0-0.48","6107f24d21eaa93618cf9191","6662009ae78f21dd82fcd179","66620bd4f00fd6264e417d49","1329","","f","","","","","","","","./tasks/HMM-beads/Images/NewTrialBC.png","lowH","1","48","1","0","0","0","true","",""
"image-keyboard-response","281","327126","0.0-3.0-6.0-1.0-1.48","6107f24d21eaa93618cf9191","6662009ae78f21dd82fcd179","66620bd4f00fd6264e417d49","null","","null","","","","","","","","./tasks/HMM-beads/Images/BlackBeadChoice.png","","","","","","","","","",""
"image-keyboard-response","282","327636","0.0-3.0-6.0-1.0-2.48","6107f24d21eaa93618cf9191","6662009ae78f21dd82fcd179","66620bd4f00fd6264e417d49","null","","null","","","","","","","","./tasks/HMM-beads/Images/BlackBeadChoiceCorrect.png","","","","","","","","","",""
"image-keyboard-response","283","328284","0.0-3.0-6.0-1.0-0.49","6107f24d21eaa93618cf9191","6662009ae78f21dd82fcd179","66620bd4f00fd6264e417d49","647","","f","","","","","","","","./tasks/HMM-beads/Images/NewTrialBC.png","lowH","1","49","1","0","0","0","true","",""
"image-keyboard-response","284","328586","0.0-3.0-6.0-1.0-1.49","6107f24d21eaa93618cf9191","6662009ae78f21dd82fcd179","66620bd4f00fd6264e417d49","null","","null","","","","","","","","./tasks/HMM-beads/Images/BlackBeadChoice.png","","","","","","","","","",""
"image-keyboard-response","285","329091","0.0-3.0-6.0-1.0-2.49","6107f24d21eaa93618cf9191","6662009ae78f21dd82fcd179","66620bd4f00fd6264e417d49","null","","null","","","","","","","","./tasks/HMM-beads/Images/BlackBeadChoiceCorrect.png","","","","","","","","","",""
"image-keyboard-response","286","329672","0.0-3.0-6.0-1.0-0.50","6107f24d21eaa93618cf9191","6662009ae78f21dd82fcd179","66620bd4f00fd6264e417d49","580","","f","","","","","","","","./tasks/HMM-beads/Images/NewTrialBC.png","lowH","1","50","1","1","0","0","false","",""
"image-keyboard-response","287","329975","0.0-3.0-6.0-1.0-1.50","6107f24d21eaa93618cf9191","6662009ae78f21dd82fcd179","66620bd4f00fd6264e417d49","null","","null","","","","","","","","./tasks/HMM-beads/Images/BlackBeadChoice.png","","","","","","","","","",""
"image-keyboard-response","288","330486","0.0-3.0-6.0-1.0-2.50","6107f24d21eaa93618cf9191","6662009ae78f21dd82fcd179","66620bd4f00fd6264e417d49","null","","null","","","","","","","","./tasks/HMM-beads/Images/BlackBeadChoiceWrong.png","","","","","","","","","",""
"image-keyboard-response","289","333112","0.0-3.0-6.0-1.0-0.51","6107f24d21eaa93618cf9191","6662009ae78f21dd82fcd179","66620bd4f00fd6264e417d49","2625","","f","","","","","","","","./tasks/HMM-beads/Images/NewTrialWC.png","lowH","1","51","1","1","1","0","false","",""
"image-keyboard-response","290","333414","0.0-3.0-6.0-1.0-1.51","6107f24d21eaa93618cf9191","6662009ae78f21dd82fcd179","66620bd4f00fd6264e417d49","null","","null","","","","","","","","./tasks/HMM-beads/Images/BlackBeadChoice.png","","","","","","","","","",""
"image-keyboard-response","291","333926","0.0-3.0-6.0-1.0-2.51","6107f24d21eaa93618cf9191","6662009ae78f21dd82fcd179","66620bd4f00fd6264e417d49","null","","null","","","","","","","","./tasks/HMM-beads/Images/BlackBeadChoiceWrong.png","","","","","","","","","",""
"image-keyboard-response","292","334302","0.0-3.0-6.0-1.0-0.52","6107f24d21eaa93618cf9191","6662009ae78f21dd82fcd179","66620bd4f00fd6264e417d49","374","","j","","","","","","","","./tasks/HMM-beads/Images/NewTrialWC.png","lowH","1","52","1","1","1","1","true","",""
"image-keyboard-response","293","334603","0.0-3.0-6.0-1.0-1.52","6107f24d21eaa93618cf9191","6662009ae78f21dd82fcd179","66620bd4f00fd6264e417d49","null","","null","","","","","","","","./tasks/HMM-beads/Images/WhiteBeadChoice.png","","","","","","","","","",""
"image-keyboard-response","294","335107","0.0-3.0-6.0-1.0-2.52","6107f24d21eaa93618cf9191","6662009ae78f21dd82fcd179","66620bd4f00fd6264e417d49","null","","null","","","","","","","","./tasks/HMM-beads/Images/WhiteBeadChoiceCorrect.png","","","","","","","","","",""
"image-keyboard-response","295","335357","0.0-3.0-6.0-1.0-0.53","6107f24d21eaa93618cf9191","6662009ae78f21dd82fcd179","66620bd4f00fd6264e417d49","249","","j","","","","","","","","./tasks/HMM-beads/Images/NewTrialWC.png","lowH","1","53","1","1","1","1","true","",""
"image-keyboard-response","296","335659","0.0-3.0-6.0-1.0-1.53","6107f24d21eaa93618cf9191","6662009ae78f21dd82fcd179","66620bd4f00fd6264e417d49","null","","null","","","","","","","","./tasks/HMM-beads/Images/WhiteBeadChoice.png","","","","","","","","","",""
"image-keyboard-response","297","336166","0.0-3.0-6.0-1.0-2.53","6107f24d21eaa93618cf9191","6662009ae78f21dd82fcd179","66620bd4f00fd6264e417d49","null","","null","","","","","","","","./tasks/HMM-beads/Images/WhiteBeadChoiceCorrect.png","","","","","","","","","",""
"image-keyboard-response","298","336854","0.0-3.0-6.0-1.0-0.54","6107f24d21eaa93618cf9191","6662009ae78f21dd82fcd179","66620bd4f00fd6264e417d49","686","","j","","","","","","","","./tasks/HMM-beads/Images/NewTrialWC.png","lowH","1","54","1","1","1","1","true","",""
"image-keyboard-response","299","337156","0.0-3.0-6.0-1.0-1.54","6107f24d21eaa93618cf9191","6662009ae78f21dd82fcd179","66620bd4f00fd6264e417d49","null","","null","","","","","","","","./tasks/HMM-beads/Images/WhiteBeadChoice.png","","","","","","","","","",""
"image-keyboard-response","300","337658","0.0-3.0-6.0-1.0-2.54","6107f24d21eaa93618cf9191","6662009ae78f21dd82fcd179","66620bd4f00fd6264e417d49","null","","null","","","","","","","","./tasks/HMM-beads/Images/WhiteBeadChoiceCorrect.png","","","","","","","","","",""
"image-keyboard-response","301","338129","0.0-3.0-6.0-1.0-0.55","6107f24d21eaa93618cf9191","6662009ae78f21dd82fcd179","66620bd4f00fd6264e417d49","470","","j","","","","","","","","./tasks/HMM-beads/Images/NewTrialWC.png","lowH","1","55","1","1","1","1","true","",""
"image-keyboard-response","302","338436","0.0-3.0-6.0-1.0-1.55","6107f24d21eaa93618cf9191","6662009ae78f21dd82fcd179","66620bd4f00fd6264e417d49","null","","null","","","","","","","","./tasks/HMM-beads/Images/WhiteBeadChoice.png","","","","","","","","","",""
"image-keyboard-response","303","338940","0.0-3.0-6.0-1.0-2.55","6107f24d21eaa93618cf9191","6662009ae78f21dd82fcd179","66620bd4f00fd6264e417d49","null","","null","","","","","","","","./tasks/HMM-beads/Images/WhiteBeadChoiceCorrect.png","","","","","","","","","",""
"image-keyboard-response","304","339405","0.0-3.0-6.0-1.0-0.56","6107f24d21eaa93618cf9191","6662009ae78f21dd82fcd179","66620bd4f00fd6264e417d49","463","","j","","","","","","","","./tasks/HMM-beads/Images/NewTrialWC.png","lowH","1","56","1","1","1","1","true","",""
"image-keyboard-response","305","339718","0.0-3.0-6.0-1.0-1.56","6107f24d21eaa93618cf9191","6662009ae78f21dd82fcd179","66620bd4f00fd6264e417d49","null","","null","","","","","","","","./tasks/HMM-beads/Images/WhiteBeadChoice.png","","","","","","","","","",""
"image-keyboard-response","306","340230","0.0-3.0-6.0-1.0-2.56","6107f24d21eaa93618cf9191","6662009ae78f21dd82fcd179","66620bd4f00fd6264e417d49","null","","null","","","","","","","","./tasks/HMM-beads/Images/WhiteBeadChoiceCorrect.png","","","","","","","","","",""
"image-keyboard-response","307","340683","0.0-3.0-6.0-1.0-0.57","6107f24d21eaa93618cf9191","6662009ae78f21dd82fcd179","66620bd4f00fd6264e417d49","452","","j","","","","","","","","./tasks/HMM-beads/Images/NewTrialWC.png","lowH","1","57","1","1","1","1","true","",""
"image-keyboard-response","308","340985","0.0-3.0-6.0-1.0-1.57","6107f24d21eaa93618cf9191","6662009ae78f21dd82fcd179","66620bd4f00fd6264e417d49","null","","null","","","","","","","","./tasks/HMM-beads/Images/WhiteBeadChoice.png","","","","","","","","","",""
"image-keyboard-response","309","341494","0.0-3.0-6.0-1.0-2.57","6107f24d21eaa93618cf9191","6662009ae78f21dd82fcd179","66620bd4f00fd6264e417d49","null","","null","","","","","","","","./tasks/HMM-beads/Images/WhiteBeadChoiceCorrect.png","","","","","","","","","",""
"image-keyboard-response","310","341857","0.0-3.0-6.0-1.0-0.58","6107f24d21eaa93618cf9191","6662009ae78f21dd82fcd179","66620bd4f00fd6264e417d49","361","","j","","","","","","","","./tasks/HMM-beads/Images/NewTrialWC.png","lowH","1","58","1","1","1","1","true","",""
"image-keyboard-response","311","342165","0.0-3.0-6.0-1.0-1.58","6107f24d21eaa93618cf9191","6662009ae78f21dd82fcd179","66620bd4f00fd6264e417d49","null","","null","","","","","","","","./tasks/HMM-beads/Images/WhiteBeadChoice.png","","","","","","","","","",""
"image-keyboard-response","312","342667","0.0-3.0-6.0-1.0-2.58","6107f24d21eaa93618cf9191","6662009ae78f21dd82fcd179","66620bd4f00fd6264e417d49","null","","null","","","","","","","","./tasks/HMM-beads/Images/WhiteBeadChoiceCorrect.png","","","","","","","","","",""
"image-keyboard-response","313","343090","0.0-3.0-6.0-1.0-0.59","6107f24d21eaa93618cf9191","6662009ae78f21dd82fcd179","66620bd4f00fd6264e417d49","422","","j","","","","","","","","./tasks/HMM-beads/Images/NewTrialWC.png","lowH","1","59","1","0","1","1","false","",""
"image-keyboard-response","314","343399","0.0-3.0-6.0-1.0-1.59","6107f24d21eaa93618cf9191","6662009ae78f21dd82fcd179","66620bd4f00fd6264e417d49","null","","null","","","","","","","","./tasks/HMM-beads/Images/WhiteBeadChoice.png","","","","","","","","","",""
"image-keyboard-response","315","343907","0.0-3.0-6.0-1.0-2.59","6107f24d21eaa93618cf9191","6662009ae78f21dd82fcd179","66620bd4f00fd6264e417d49","null","","null","","","","","","","","./tasks/HMM-beads/Images/WhiteBeadChoiceWrong.png","","","","","","","","","",""
"image-keyboard-response","316","344969","0.0-3.0-6.0-1.0-0.60","6107f24d21eaa93618cf9191","6662009ae78f21dd82fcd179","66620bd4f00fd6264e417d49","1061","","j","","","","","","","","./tasks/HMM-beads/Images/NewTrialBC.png","lowH","1","60","1","1","0","1","true","",""
"image-keyboard-response","317","345272","0.0-3.0-6.0-1.0-1.60","6107f24d21eaa93618cf9191","6662009ae78f21dd82fcd179","66620bd4f00fd6264e417d49","null","","null","","","","","","","","./tasks/HMM-beads/Images/WhiteBeadChoice.png","","","","","","","","","",""
"image-keyboard-response","318","345782","0.0-3.0-6.0-1.0-2.60","6107f24d21eaa93618cf9191","6662009ae78f21dd82fcd179","66620bd4f00fd6264e417d49","null","","null","","","","","","","","./tasks/HMM-beads/Images/WhiteBeadChoiceCorrect.png","","","","","","","","","",""
"image-keyboard-response","319","346224","0.0-3.0-6.0-1.0-0.61","6107f24d21eaa93618cf9191","6662009ae78f21dd82fcd179","66620bd4f00fd6264e417d49","441","","j","","","","","","","","./tasks/HMM-beads/Images/NewTrialWC.png","lowH","1","61","1","1","1","1","true","",""
"image-keyboard-response","320","346532","0.0-3.0-6.0-1.0-1.61","6107f24d21eaa93618cf9191","6662009ae78f21dd82fcd179","66620bd4f00fd6264e417d49","null","","null","","","","","","","","./tasks/HMM-beads/Images/WhiteBeadChoice.png","","","","","","","","","",""
"image-keyboard-response","321","347034","0.0-3.0-6.0-1.0-2.61","6107f24d21eaa93618cf9191","6662009ae78f21dd82fcd179","66620bd4f00fd6264e417d49","null","","null","","","","","","","","./tasks/HMM-beads/Images/WhiteBeadChoiceCorrect.png","","","","","","","","","",""
"image-keyboard-response","322","347546","0.0-3.0-6.0-1.0-0.62","6107f24d21eaa93618cf9191","6662009ae78f21dd82fcd179","66620bd4f00fd6264e417d49","511","","j","","","","","","","","./tasks/HMM-beads/Images/NewTrialWC.png","lowH","1","62","1","0","1","1","false","",""
"image-keyboard-response","323","347847","0.0-3.0-6.0-1.0-1.62","6107f24d21eaa93618cf9191","6662009ae78f21dd82fcd179","66620bd4f00fd6264e417d49","null","","null","","","","","","","","./tasks/HMM-beads/Images/WhiteBeadChoice.png","","","","","","","","","",""
"image-keyboard-response","324","348356","0.0-3.0-6.0-1.0-2.62","6107f24d21eaa93618cf9191","6662009ae78f21dd82fcd179","66620bd4f00fd6264e417d49","null","","null","","","","","","","","./tasks/HMM-beads/Images/WhiteBeadChoiceWrong.png","","","","","","","","","",""
"image-keyboard-response","325","349575","0.0-3.0-6.0-1.0-0.63","6107f24d21eaa93618cf9191","6662009ae78f21dd82fcd179","66620bd4f00fd6264e417d49","1218","","j","","","","","","","","./tasks/HMM-beads/Images/NewTrialBC.png","lowH","1","63","1","1","0","1","true","",""
"image-keyboard-response","326","349879","0.0-3.0-6.0-1.0-1.63","6107f24d21eaa93618cf9191","6662009ae78f21dd82fcd179","66620bd4f00fd6264e417d49","null","","null","","","","","","","","./tasks/HMM-beads/Images/WhiteBeadChoice.png","","","","","","","","","",""
"image-keyboard-response","327","350388","0.0-3.0-6.0-1.0-2.63","6107f24d21eaa93618cf9191","6662009ae78f21dd82fcd179","66620bd4f00fd6264e417d49","null","","null","","","","","","","","./tasks/HMM-beads/Images/WhiteBeadChoiceCorrect.png","","","","","","","","","",""
"image-keyboard-response","328","350873","0.0-3.0-6.0-1.0-0.64","6107f24d21eaa93618cf9191","6662009ae78f21dd82fcd179","66620bd4f00fd6264e417d49","484","","j","","","","","","","","./tasks/HMM-beads/Images/NewTrialWC.png","lowH","1","64","1","1","1","1","true","",""
"image-keyboard-response","329","351175","0.0-3.0-6.0-1.0-1.64","6107f24d21eaa93618cf9191","6662009ae78f21dd82fcd179","66620bd4f00fd6264e417d49","null","","null","","","","","","","","./tasks/HMM-beads/Images/WhiteBeadChoice.png","","","","","","","","","",""
"image-keyboard-response","330","351684","0.0-3.0-6.0-1.0-2.64","6107f24d21eaa93618cf9191","6662009ae78f21dd82fcd179","66620bd4f00fd6264e417d49","null","","null","","","","","","","","./tasks/HMM-beads/Images/WhiteBeadChoiceCorrect.png","","","","","","","","","",""
"image-keyboard-response","331","352024","0.0-3.0-6.0-1.0-0.65","6107f24d21eaa93618cf9191","6662009ae78f21dd82fcd179","66620bd4f00fd6264e417d49","340","","j","","","","","","","","./tasks/HMM-beads/Images/NewTrialWC.png","lowH","1","65","1","1","1","1","true","",""
"image-keyboard-response","332","352326","0.0-3.0-6.0-1.0-1.65","6107f24d21eaa93618cf9191","6662009ae78f21dd82fcd179","66620bd4f00fd6264e417d49","null","","null","","","","","","","","./tasks/HMM-beads/Images/WhiteBeadChoice.png","","","","","","","","","",""
"image-keyboard-response","333","352838","0.0-3.0-6.0-1.0-2.65","6107f24d21eaa93618cf9191","6662009ae78f21dd82fcd179","66620bd4f00fd6264e417d49","null","","null","","","","","","","","./tasks/HMM-beads/Images/WhiteBeadChoiceCorrect.png","","","","","","","","","",""
"image-keyboard-response","334","352989","0.0-3.0-6.0-1.0-0.66","6107f24d21eaa93618cf9191","6662009ae78f21dd82fcd179","66620bd4f00fd6264e417d49","150","","f","","","","","","","","./tasks/HMM-beads/Images/NewTrialWC.png","lowH","1","66","1","1","1","0","false","",""
"image-keyboard-response","335","353291","0.0-3.0-6.0-1.0-1.66","6107f24d21eaa93618cf9191","6662009ae78f21dd82fcd179","66620bd4f00fd6264e417d49","null","","null","","","","","","","","./tasks/HMM-beads/Images/BlackBeadChoice.png","","","","","","","","","",""
"image-keyboard-response","336","353796","0.0-3.0-6.0-1.0-2.66","6107f24d21eaa93618cf9191","6662009ae78f21dd82fcd179","66620bd4f00fd6264e417d49","null","","null","","","","","","","","./tasks/HMM-beads/Images/BlackBeadChoiceWrong.png","","","","","","","","","",""
"image-keyboard-response","337","354344","0.0-3.0-6.0-1.0-0.67","6107f24d21eaa93618cf9191","6662009ae78f21dd82fcd179","66620bd4f00fd6264e417d49","547","","j","","","","","","","","./tasks/HMM-beads/Images/NewTrialWC.png","lowH","1","67","1","0","1","1","false","",""
"image-keyboard-response","338","354646","0.0-3.0-6.0-1.0-1.67","6107f24d21eaa93618cf9191","6662009ae78f21dd82fcd179","66620bd4f00fd6264e417d49","null","","null","","","","","","","","./tasks/HMM-beads/Images/WhiteBeadChoice.png","","","","","","","","","",""
"image-keyboard-response","339","355156","0.0-3.0-6.0-1.0-2.67","6107f24d21eaa93618cf9191","6662009ae78f21dd82fcd179","66620bd4f00fd6264e417d49","null","","null","","","","","","","","./tasks/HMM-beads/Images/WhiteBeadChoiceWrong.png","","","","","","","","","",""
"image-keyboard-response","340","356604","0.0-3.0-6.0-1.0-0.68","6107f24d21eaa93618cf9191","6662009ae78f21dd82fcd179","66620bd4f00fd6264e417d49","1448","","j","","","","","","","","./tasks/HMM-beads/Images/NewTrialBC.png","lowH","1","68","1","1","0","1","true","",""
"image-keyboard-response","341","356906","0.0-3.0-6.0-1.0-1.68","6107f24d21eaa93618cf9191","6662009ae78f21dd82fcd179","66620bd4f00fd6264e417d49","null","","null","","","","","","","","./tasks/HMM-beads/Images/WhiteBeadChoice.png","","","","","","","","","",""
"image-keyboard-response","342","357412","0.0-3.0-6.0-1.0-2.68","6107f24d21eaa93618cf9191","6662009ae78f21dd82fcd179","66620bd4f00fd6264e417d49","null","","null","","","","","","","","./tasks/HMM-beads/Images/WhiteBeadChoiceCorrect.png","","","","","","","","","",""
"image-keyboard-response","343","357722","0.0-3.0-6.0-1.0-0.69","6107f24d21eaa93618cf9191","6662009ae78f21dd82fcd179","66620bd4f00fd6264e417d49","308","","j","","","","","","","","./tasks/HMM-beads/Images/NewTrialWC.png","lowH","1","69","0","1","1","1","true","",""
"image-keyboard-response","344","358024","0.0-3.0-6.0-1.0-1.69","6107f24d21eaa93618cf9191","6662009ae78f21dd82fcd179","66620bd4f00fd6264e417d49","null","","null","","","","","","","","./tasks/HMM-beads/Images/WhiteBeadChoice.png","","","","","","","","","",""
"image-keyboard-response","345","358533","0.0-3.0-6.0-1.0-2.69","6107f24d21eaa93618cf9191","6662009ae78f21dd82fcd179","66620bd4f00fd6264e417d49","null","","null","","","","","","","","./tasks/HMM-beads/Images/WhiteBeadChoiceCorrect.png","","","","","","","","","",""
"image-keyboard-response","346","358984","0.0-3.0-6.0-1.0-0.70","6107f24d21eaa93618cf9191","6662009ae78f21dd82fcd179","66620bd4f00fd6264e417d49","450","","j","","","","","","","","./tasks/HMM-beads/Images/NewTrialWC.png","lowH","1","70","0","1","1","1","true","",""
"image-keyboard-response","347","359285","0.0-3.0-6.0-1.0-1.70","6107f24d21eaa93618cf9191","6662009ae78f21dd82fcd179","66620bd4f00fd6264e417d49","null","","null","","","","","","","","./tasks/HMM-beads/Images/WhiteBeadChoice.png","","","","","","","","","",""
"image-keyboard-response","348","359787","0.0-3.0-6.0-1.0-2.70","6107f24d21eaa93618cf9191","6662009ae78f21dd82fcd179","66620bd4f00fd6264e417d49","null","","null","","","","","","","","./tasks/HMM-beads/Images/WhiteBeadChoiceCorrect.png","","","","","","","","","",""
"image-keyboard-response","349","360210","0.0-3.0-6.0-1.0-0.71","6107f24d21eaa93618cf9191","6662009ae78f21dd82fcd179","66620bd4f00fd6264e417d49","422","","j","","","","","","","","./tasks/HMM-beads/Images/NewTrialWC.png","lowH","1","71","0","0","1","1","false","",""
"image-keyboard-response","350","360519","0.0-3.0-6.0-1.0-1.71","6107f24d21eaa93618cf9191","6662009ae78f21dd82fcd179","66620bd4f00fd6264e417d49","null","","null","","","","","","","","./tasks/HMM-beads/Images/WhiteBeadChoice.png","","","","","","","","","",""
"image-keyboard-response","351","361028","0.0-3.0-6.0-1.0-2.71","6107f24d21eaa93618cf9191","6662009ae78f21dd82fcd179","66620bd4f00fd6264e417d49","null","","null","","","","","","","","./tasks/HMM-beads/Images/WhiteBeadChoiceWrong.png","","","","","","","","","",""
"image-keyboard-response","352","361637","0.0-3.0-6.0-1.0-0.72","6107f24d21eaa93618cf9191","6662009ae78f21dd82fcd179","66620bd4f00fd6264e417d49","608","","j","","","","","","","","./tasks/HMM-beads/Images/NewTrialBC.png","lowH","1","72","0","0","0","1","false","",""
"image-keyboard-response","353","361941","0.0-3.0-6.0-1.0-1.72","6107f24d21eaa93618cf9191","6662009ae78f21dd82fcd179","66620bd4f00fd6264e417d49","null","","null","","","","","","","","./tasks/HMM-beads/Images/WhiteBeadChoice.png","","","","","","","","","",""
"image-keyboard-response","354","362444","0.0-3.0-6.0-1.0-2.72","6107f24d21eaa93618cf9191","6662009ae78f21dd82fcd179","66620bd4f00fd6264e417d49","null","","null","","","","","","","","./tasks/HMM-beads/Images/WhiteBeadChoiceWrong.png","","","","","","","","","",""
"image-keyboard-response","355","363383","0.0-3.0-6.0-1.0-0.73","6107f24d21eaa93618cf9191","6662009ae78f21dd82fcd179","66620bd4f00fd6264e417d49","938","","f","","","","","","","","./tasks/HMM-beads/Images/NewTrialBC.png","lowH","1","73","0","1","0","0","false","",""
"image-keyboard-response","356","363684","0.0-3.0-6.0-1.0-1.73","6107f24d21eaa93618cf9191","6662009ae78f21dd82fcd179","66620bd4f00fd6264e417d49","null","","null","","","","","","","","./tasks/HMM-beads/Images/BlackBeadChoice.png","","","","","","","","","",""
"image-keyboard-response","357","364186","0.0-3.0-6.0-1.0-2.73","6107f24d21eaa93618cf9191","6662009ae78f21dd82fcd179","66620bd4f00fd6264e417d49","null","","null","","","","","","","","./tasks/HMM-beads/Images/BlackBeadChoiceWrong.png","","","","","","","","","",""
"image-keyboard-response","358","364717","0.0-3.0-6.0-1.0-0.74","6107f24d21eaa93618cf9191","6662009ae78f21dd82fcd179","66620bd4f00fd6264e417d49","531","","j","","","","","","","","./tasks/HMM-beads/Images/NewTrialWC.png","lowH","1","74","0","0","1","1","false","",""
"image-keyboard-response","359","365019","0.0-3.0-6.0-1.0-1.74","6107f24d21eaa93618cf9191","6662009ae78f21dd82fcd179","66620bd4f00fd6264e417d49","null","","null","","","","","","","","./tasks/HMM-beads/Images/WhiteBeadChoice.png","","","","","","","","","",""
"image-keyboard-response","360","365524","0.0-3.0-6.0-1.0-2.74","6107f24d21eaa93618cf9191","6662009ae78f21dd82fcd179","66620bd4f00fd6264e417d49","null","","null","","","","","","","","./tasks/HMM-beads/Images/WhiteBeadChoiceWrong.png","","","","","","","","","",""
"image-keyboard-response","361","367987","0.0-3.0-6.0-1.0-0.75","6107f24d21eaa93618cf9191","6662009ae78f21dd82fcd179","66620bd4f00fd6264e417d49","2462","","f","","","","","","","","./tasks/HMM-beads/Images/NewTrialBC.png","lowH","1","75","0","1","0","0","false","",""
"image-keyboard-response","362","368292","0.0-3.0-6.0-1.0-1.75","6107f24d21eaa93618cf9191","6662009ae78f21dd82fcd179","66620bd4f00fd6264e417d49","null","","null","","","","","","","","./tasks/HMM-beads/Images/BlackBeadChoice.png","","","","","","","","","",""
"image-keyboard-response","363","368795","0.0-3.0-6.0-1.0-2.75","6107f24d21eaa93618cf9191","6662009ae78f21dd82fcd179","66620bd4f00fd6264e417d49","null","","null","","","","","","","","./tasks/HMM-beads/Images/BlackBeadChoiceWrong.png","","","","","","","","","",""
"image-keyboard-response","364","369882","0.0-3.0-6.0-1.0-0.76","6107f24d21eaa93618cf9191","6662009ae78f21dd82fcd179","66620bd4f00fd6264e417d49","1086","","f","","","","","","","","./tasks/HMM-beads/Images/NewTrialWC.png","lowH","1","76","0","1","1","0","false","",""
"image-keyboard-response","365","370183","0.0-3.0-6.0-1.0-1.76","6107f24d21eaa93618cf9191","6662009ae78f21dd82fcd179","66620bd4f00fd6264e417d49","null","","null","","","","","","","","./tasks/HMM-beads/Images/BlackBeadChoice.png","","","","","","","","","",""
"image-keyboard-response","366","370692","0.0-3.0-6.0-1.0-2.76","6107f24d21eaa93618cf9191","6662009ae78f21dd82fcd179","66620bd4f00fd6264e417d49","null","","null","","","","","","","","./tasks/HMM-beads/Images/BlackBeadChoiceWrong.png","","","","","","","","","",""
"image-keyboard-response","367","370816","0.0-3.0-6.0-1.0-0.77","6107f24d21eaa93618cf9191","6662009ae78f21dd82fcd179","66620bd4f00fd6264e417d49","123","","j","","","","","","","","./tasks/HMM-beads/Images/NewTrialWC.png","lowH","1","77","0","0","1","1","false","",""
"image-keyboard-response","368","371125","0.0-3.0-6.0-1.0-1.77","6107f24d21eaa93618cf9191","6662009ae78f21dd82fcd179","66620bd4f00fd6264e417d49","null","","null","","","","","","","","./tasks/HMM-beads/Images/WhiteBeadChoice.png","","","","","","","","","",""
"image-keyboard-response","369","371627","0.0-3.0-6.0-1.0-2.77","6107f24d21eaa93618cf9191","6662009ae78f21dd82fcd179","66620bd4f00fd6264e417d49","null","","null","","","","","","","","./tasks/HMM-beads/Images/WhiteBeadChoiceWrong.png","","","","","","","","","",""
"image-keyboard-response","370","374356","0.0-3.0-6.0-1.0-0.78","6107f24d21eaa93618cf9191","6662009ae78f21dd82fcd179","66620bd4f00fd6264e417d49","2728","","f","","","","","","","","./tasks/HMM-beads/Images/NewTrialBC.png","lowH","1","78","0","0","0","0","true","",""
"image-keyboard-response","371","374661","0.0-3.0-6.0-1.0-1.78","6107f24d21eaa93618cf9191","6662009ae78f21dd82fcd179","66620bd4f00fd6264e417d49","null","","null","","","","","","","","./tasks/HMM-beads/Images/BlackBeadChoice.png","","","","","","","","","",""
"image-keyboard-response","372","375165","0.0-3.0-6.0-1.0-2.78","6107f24d21eaa93618cf9191","6662009ae78f21dd82fcd179","66620bd4f00fd6264e417d49","null","","null","","","","","","","","./tasks/HMM-beads/Images/BlackBeadChoiceCorrect.png","","","","","","","","","",""
"image-keyboard-response","373","376203","0.0-3.0-6.0-1.0-0.79","6107f24d21eaa93618cf9191","6662009ae78f21dd82fcd179","66620bd4f00fd6264e417d49","1037","","f","","","","","","","","./tasks/HMM-beads/Images/NewTrialBC.png","lowH","1","79","0","0","0","0","true","",""
"image-keyboard-response","374","376506","0.0-3.0-6.0-1.0-1.79","6107f24d21eaa93618cf9191","6662009ae78f21dd82fcd179","66620bd4f00fd6264e417d49","null","","null","","","","","","","","./tasks/HMM-beads/Images/BlackBeadChoice.png","","","","","","","","","",""
