"trial_type","trial_index","time_elapsed","internal_node_id","subject_id","study_id","session_id","rt","url","response","question_order","view_history","success","timeout","failed_images","failed_audio","failed_video","stimulus","block","block_rep","trial_number","jar","bead","previous_bead","choice","correct","lowH_score","total_bonus"
"pavlovia","0","1292","0.0-0.0","5e0e502b2fc4785903ee9029","6662009ae78f21dd82fcd179","666207a3ddafc2d18a2ddbdd","","","","","","","","","","","","","","","","","","","","",""
"external-html","1","7892","0.0-1.0-0.0","5e0e502b2fc4785903ee9029","6662009ae78f21dd82fcd179","666207a3ddafc2d18a2ddbdd","6337","new_consent.html","","","","","","","","","","","","","","","","","","",""
"survey-multi-choice","2","12439","0.0-1.0-1.0","5e0e502b2fc4785903ee9029","6662009ae78f21dd82fcd179","666207a3ddafc2d18a2ddbdd","4543","","{""Q0"":""Female"",""Q1"":""White""}","[0,1]","","","","","","","","","","","","","","","","",""
"survey-text","3","14968","0.0-1.0-2.0","5e0e502b2fc4785903ee9029","6662009ae78f21dd82fcd179","666207a3ddafc2d18a2ddbdd","2521","","{""Q0"":""27""}","","","","","","","","","","","","","","","","","",""
"instructions","4","16399","0.0-2.0","5e0e502b2fc4785903ee9029","6662009ae78f21dd82fcd179","666207a3ddafc2d18a2ddbdd","1327","","","","[{""page_index"":0,""viewing_time"":1327}]","","","","","","","","","","","","","","","",""
"preload","5","18861","0.0-3.0-0.0","5e0e502b2fc4785903ee9029","6662009ae78f21dd82fcd179","666207a3ddafc2d18a2ddbdd","","","","","","true","false","[]","[]","[]","","","","","","","","","","",""
"instructions","6","77425","0.0-3.0-1.0","5e0e502b2fc4785903ee9029","6662009ae78f21dd82fcd179","666207a3ddafc2d18a2ddbdd","58564","","","","[{""page_index"":0,""viewing_time"":7846},{""page_index"":1,""viewing_time"":4062},{""page_index"":2,""viewing_time"":2922},{""page_index"":3,""viewing_time"":2822},{""page_index"":4,""viewing_time"":5078},{""page_index"":5,""viewing_time"":13338},{""page_index"":6,""viewing_time"":4597},{""page_index"":7,""viewing_time"":2896},{""page_index"":8,""viewing_time"":6562},{""page_index"":9,""viewing_time"":2664},{""page_index"":10,""viewing_time"":4179},{""page_index"":11,""viewing_time"":1599}]","","","","","","","","","","","","","","","",""
"html-button-response","7","80104","0.0-3.0-2.0-0.0-0.0","5e0e502b2fc4785903ee9029","6662009ae78f21dd82fcd179","666207a3ddafc2d18a2ddbdd","2677","","1","","","","","","","","<div align=center>Your goal is to predict…?<br><br></div>","","","","","","","","","",""
"html-button-response","8","85566","0.0-3.0-2.0-1.0-0.0","5e0e502b2fc4785903ee9029","6662009ae78f21dd82fcd179","666207a3ddafc2d18a2ddbdd","3810","","2","","","","","","","","<div align=center>In the jar with mostly white beads, there are ___% white beads and ___% black beads?<br><br></div>","","","","","","","","","",""
"html-button-response","9","90458","0.0-3.0-2.0-2.0-0.0","5e0e502b2fc4785903ee9029","6662009ae78f21dd82fcd179","666207a3ddafc2d18a2ddbdd","3781","","1","","","","","","","","<div align=center>When there is a 1% probability that the jars will switch, the next bead will most likely be drawn from the…<br><br></div>","","","","","","","","","",""
"html-button-response","10","92606","0.0-3.0-2.0-2.1-0.1","5e0e502b2fc4785903ee9029","6662009ae78f21dd82fcd179","666207a3ddafc2d18a2ddbdd","886","","0","","","","","","","","<div align=center>When there is a 1% probability that the jars will switch, the next bead will most likely be drawn from the…<br><br></div>","","","","","","","","","",""
"html-button-response","11","95872","0.0-3.0-2.0-3.0-0.0","5e0e502b2fc4785903ee9029","6662009ae78f21dd82fcd179","666207a3ddafc2d18a2ddbdd","2436","","1","","","","","","","","<div align=center>When there is a 99% probability that the jars will switch, the next bead will most likely be drawn from the…<br><br></div>","","","","","","","","","",""
"instructions","12","104981","0.0-3.0-3.0","5e0e502b2fc4785903ee9029","6662009ae78f21dd82fcd179","666207a3ddafc2d18a2ddbdd","7635","","","","[{""page_index"":0,""viewing_time"":7634}]","","","","","","","","","","","","","","","",""
"html-keyboard-response","13","107271","0.0-3.0-4.0-0.0","5e0e502b2fc4785903ee9029","6662009ae78f21dd82fcd179","666207a3ddafc2d18a2ddbdd","2289",""," ","","","","","","","","<div align=center>In this practice block, there will be a <b>1% chance</b> that the jar on the next trial will be different from the jar on the current trial.<br><br></div>","","","","","","","","","",""
"image-keyboard-response","14","111585","0.0-3.0-4.0-1.0-0.0","5e0e502b2fc4785903ee9029","6662009ae78f21dd82fcd179","666207a3ddafc2d18a2ddbdd","4309","","f","","","","","","","","./tasks/HMM-beads/Images/NoChoice.png","practice","0","0","0","0","9","0","true","",""
"image-keyboard-response","15","111898","0.0-3.0-4.0-1.0-1.0","5e0e502b2fc4785903ee9029","6662009ae78f21dd82fcd179","666207a3ddafc2d18a2ddbdd","null","","null","","","","","","","","./tasks/HMM-beads/Images/BlackBeadChoice.png","","","","","","","","","",""
"image-keyboard-response","16","112402","0.0-3.0-4.0-1.0-2.0","5e0e502b2fc4785903ee9029","6662009ae78f21dd82fcd179","666207a3ddafc2d18a2ddbdd","null","","null","","","","","","","","./tasks/HMM-beads/Images/BlackBeadChoiceCorrect.png","","","","","","","","","",""
"image-keyboard-response","17","115541","0.0-3.0-4.0-1.0-0.1","5e0e502b2fc4785903ee9029","6662009ae78f21dd82fcd179","666207a3ddafc2d18a2ddbdd","3138","","f","","","","","","","","./tasks/HMM-beads/Images/NewTrialBC.png","practice","0","1","0","0","0","0","true","",""
"image-keyboard-response","18","115844","0.0-3.0-4.0-1.0-1.1","5e0e502b2fc4785903ee9029","6662009ae78f21dd82fcd179","666207a3ddafc2d18a2ddbdd","null","","null","","","","","","","","./tasks/HMM-beads/Images/BlackBeadChoice.png","","","","","","","","","",""
"image-keyboard-response","19","116348","0.0-3.0-4.0-1.0-2.1","5e0e502b2fc4785903ee9029","6662009ae78f21dd82fcd179","666207a3ddafc2d18a2ddbdd","null","","null","","","","","","","","./tasks/HMM-beads/Images/BlackBeadChoiceCorrect.png","","","","","","","","","",""
"image-keyboard-response","20","119208","0.0-3.0-4.0-1.0-0.2","5e0e502b2fc4785903ee9029","6662009ae78f21dd82fcd179","666207a3ddafc2d18a2ddbdd","2858","","f","","","","","","","","./tasks/HMM-beads/Images/NewTrialBC.png","practice","0","2","0","1","0","0","false","",""
"image-keyboard-response","21","119524","0.0-3.0-4.0-1.0-1.2","5e0e502b2fc4785903ee9029","6662009ae78f21dd82fcd179","666207a3ddafc2d18a2ddbdd","null","","null","","","","","","","","./tasks/HMM-beads/Images/BlackBeadChoice.png","","","","","","","","","",""
"image-keyboard-response","22","120028","0.0-3.0-4.0-1.0-2.2","5e0e502b2fc4785903ee9029","6662009ae78f21dd82fcd179","666207a3ddafc2d18a2ddbdd","null","","null","","","","","","","","./tasks/HMM-beads/Images/BlackBeadChoiceWrong.png","","","","","","","","","",""
"image-keyboard-response","23","120787","0.0-3.0-4.0-1.0-0.3","5e0e502b2fc4785903ee9029","6662009ae78f21dd82fcd179","666207a3ddafc2d18a2ddbdd","758","","f","","","","","","","","./tasks/HMM-beads/Images/NewTrialWC.png","practice","0","3","0","0","1","0","true","",""
"image-keyboard-response","24","121093","0.0-3.0-4.0-1.0-1.3","5e0e502b2fc4785903ee9029","6662009ae78f21dd82fcd179","666207a3ddafc2d18a2ddbdd","null","","null","","","","","","","","./tasks/HMM-beads/Images/BlackBeadChoice.png","","","","","","","","","",""
"image-keyboard-response","25","121609","0.0-3.0-4.0-1.0-2.3","5e0e502b2fc4785903ee9029","6662009ae78f21dd82fcd179","666207a3ddafc2d18a2ddbdd","null","","null","","","","","","","","./tasks/HMM-beads/Images/BlackBeadChoiceCorrect.png","","","","","","","","","",""
"image-keyboard-response","26","122656","0.0-3.0-4.0-1.0-0.4","5e0e502b2fc4785903ee9029","6662009ae78f21dd82fcd179","666207a3ddafc2d18a2ddbdd","1042","","f","","","","","","","","./tasks/HMM-beads/Images/NewTrialBC.png","practice","0","4","0","0","0","0","true","",""
"image-keyboard-response","27","122971","0.0-3.0-4.0-1.0-1.4","5e0e502b2fc4785903ee9029","6662009ae78f21dd82fcd179","666207a3ddafc2d18a2ddbdd","null","","null","","","","","","","","./tasks/HMM-beads/Images/BlackBeadChoice.png","","","","","","","","","",""
"image-keyboard-response","28","123474","0.0-3.0-4.0-1.0-2.4","5e0e502b2fc4785903ee9029","6662009ae78f21dd82fcd179","666207a3ddafc2d18a2ddbdd","null","","null","","","","","","","","./tasks/HMM-beads/Images/BlackBeadChoiceCorrect.png","","","","","","","","","",""
"image-keyboard-response","29","123826","0.0-3.0-4.0-1.0-0.5","5e0e502b2fc4785903ee9029","6662009ae78f21dd82fcd179","666207a3ddafc2d18a2ddbdd","351","","f","","","","","","","","./tasks/HMM-beads/Images/NewTrialBC.png","practice","0","5","0","1","0","0","false","",""
"image-keyboard-response","30","124136","0.0-3.0-4.0-1.0-1.5","5e0e502b2fc4785903ee9029","6662009ae78f21dd82fcd179","666207a3ddafc2d18a2ddbdd","null","","null","","","","","","","","./tasks/HMM-beads/Images/BlackBeadChoice.png","","","","","","","","","",""
"image-keyboard-response","31","124640","0.0-3.0-4.0-1.0-2.5","5e0e502b2fc4785903ee9029","6662009ae78f21dd82fcd179","666207a3ddafc2d18a2ddbdd","null","","null","","","","","","","","./tasks/HMM-beads/Images/BlackBeadChoiceWrong.png","","","","","","","","","",""
"image-keyboard-response","32","124928","0.0-3.0-4.0-1.0-0.6","5e0e502b2fc4785903ee9029","6662009ae78f21dd82fcd179","666207a3ddafc2d18a2ddbdd","287","","f","","","","","","","","./tasks/HMM-beads/Images/NewTrialWC.png","practice","0","6","0","0","1","0","true","",""
"image-keyboard-response","33","125235","0.0-3.0-4.0-1.0-1.6","5e0e502b2fc4785903ee9029","6662009ae78f21dd82fcd179","666207a3ddafc2d18a2ddbdd","null","","null","","","","","","","","./tasks/HMM-beads/Images/BlackBeadChoice.png","","","","","","","","","",""
"image-keyboard-response","34","125739","0.0-3.0-4.0-1.0-2.6","5e0e502b2fc4785903ee9029","6662009ae78f21dd82fcd179","666207a3ddafc2d18a2ddbdd","null","","null","","","","","","","","./tasks/HMM-beads/Images/BlackBeadChoiceCorrect.png","","","","","","","","","",""
"image-keyboard-response","35","126328","0.0-3.0-4.0-1.0-0.7","5e0e502b2fc4785903ee9029","6662009ae78f21dd82fcd179","666207a3ddafc2d18a2ddbdd","588","","j","","","","","","","","./tasks/HMM-beads/Images/NewTrialBC.png","practice","0","7","0","0","0","1","false","",""
"image-keyboard-response","36","126634","0.0-3.0-4.0-1.0-1.7","5e0e502b2fc4785903ee9029","6662009ae78f21dd82fcd179","666207a3ddafc2d18a2ddbdd","null","","null","","","","","","","","./tasks/HMM-beads/Images/WhiteBeadChoice.png","","","","","","","","","",""
"image-keyboard-response","37","127138","0.0-3.0-4.0-1.0-2.7","5e0e502b2fc4785903ee9029","6662009ae78f21dd82fcd179","666207a3ddafc2d18a2ddbdd","null","","null","","","","","","","","./tasks/HMM-beads/Images/WhiteBeadChoiceWrong.png","","","","","","","","","",""
"image-keyboard-response","38","127540","0.0-3.0-4.0-1.0-0.8","5e0e502b2fc4785903ee9029","6662009ae78f21dd82fcd179","666207a3ddafc2d18a2ddbdd","401","","j","","","","","","","","./tasks/HMM-beads/Images/NewTrialBC.png","practice","0","8","0","0","0","1","false","",""
"image-keyboard-response","39","127849","0.0-3.0-4.0-1.0-1.8","5e0e502b2fc4785903ee9029","6662009ae78f21dd82fcd179","666207a3ddafc2d18a2ddbdd","null","","null","","","","","","","","./tasks/HMM-beads/Images/WhiteBeadChoice.png","","","","","","","","","",""
"image-keyboard-response","40","128353","0.0-3.0-4.0-1.0-2.8","5e0e502b2fc4785903ee9029","6662009ae78f21dd82fcd179","666207a3ddafc2d18a2ddbdd","null","","null","","","","","","","","./tasks/HMM-beads/Images/WhiteBeadChoiceWrong.png","","","","","","","","","",""
"image-keyboard-response","41","128666","0.0-3.0-4.0-1.0-0.9","5e0e502b2fc4785903ee9029","6662009ae78f21dd82fcd179","666207a3ddafc2d18a2ddbdd","312","","j","","","","","","","","./tasks/HMM-beads/Images/NewTrialBC.png","practice","0","9","0","1","0","1","true","",""
"image-keyboard-response","42","128981","0.0-3.0-4.0-1.0-1.9","5e0e502b2fc4785903ee9029","6662009ae78f21dd82fcd179","666207a3ddafc2d18a2ddbdd","null","","null","","","","","","","","./tasks/HMM-beads/Images/WhiteBeadChoice.png","","","","","","","","","",""
"image-keyboard-response","43","129485","0.0-3.0-4.0-1.0-2.9","5e0e502b2fc4785903ee9029","6662009ae78f21dd82fcd179","666207a3ddafc2d18a2ddbdd","null","","null","","","","","","","","./tasks/HMM-beads/Images/WhiteBeadChoiceCorrect.png","","","","","","","","","",""
"image-keyboard-response","44","130407","0.0-3.0-4.0-1.0-0.10","5e0e502b2fc4785903ee9029","6662009ae78f21dd82fcd179","666207a3ddafc2d18a2ddbdd","921","","j","","","","","","","","./tasks/HMM-beads/Images/NewTrialWC.png","practice","0","10","0","0","1","1","false","",""
"image-keyboard-response","45","130713","0.0-3.0-4.0-1.0-1.10","5e0e502b2fc4785903ee9029","6662009ae78f21dd82fcd179","666207a3ddafc2d18a2ddbdd","null","","null","","","","","","","","./tasks/HMM-beads/Images/WhiteBeadChoice.png","","","","","","","","","",""
"image-keyboard-response","46","131217","0.0-3.0-4.0-1.0-2.10","5e0e502b2fc4785903ee9029","6662009ae78f21dd82fcd179","666207a3ddafc2d18a2ddbdd","null","","null","","","","","","","","./tasks/HMM-beads/Images/WhiteBeadChoiceWrong.png","","","","","","","","","",""
"image-keyboard-response","47","131500","0.0-3.0-4.0-1.0-0.11","5e0e502b2fc4785903ee9029","6662009ae78f21dd82fcd179","666207a3ddafc2d18a2ddbdd","281","","f","","","","","","","","./tasks/HMM-beads/Images/NewTrialBC.png","practice","0","11","0","1","0","0","false","",""
"image-keyboard-response","48","131812","0.0-3.0-4.0-1.0-1.11","5e0e502b2fc4785903ee9029","6662009ae78f21dd82fcd179","666207a3ddafc2d18a2ddbdd","null","","null","","","","","","","","./tasks/HMM-beads/Images/BlackBeadChoice.png","","","","","","","","","",""
"image-keyboard-response","49","132331","0.0-3.0-4.0-1.0-2.11","5e0e502b2fc4785903ee9029","6662009ae78f21dd82fcd179","666207a3ddafc2d18a2ddbdd","null","","null","","","","","","","","./tasks/HMM-beads/Images/BlackBeadChoiceWrong.png","","","","","","","","","",""
"image-keyboard-response","50","132971","0.0-3.0-4.0-1.0-0.12","5e0e502b2fc4785903ee9029","6662009ae78f21dd82fcd179","666207a3ddafc2d18a2ddbdd","638","","f","","","","","","","","./tasks/HMM-beads/Images/NewTrialWC.png","practice","0","12","0","0","1","0","true","",""
"image-keyboard-response","51","133277","0.0-3.0-4.0-1.0-1.12","5e0e502b2fc4785903ee9029","6662009ae78f21dd82fcd179","666207a3ddafc2d18a2ddbdd","null","","null","","","","","","","","./tasks/HMM-beads/Images/BlackBeadChoice.png","","","","","","","","","",""
"image-keyboard-response","52","133781","0.0-3.0-4.0-1.0-2.12","5e0e502b2fc4785903ee9029","6662009ae78f21dd82fcd179","666207a3ddafc2d18a2ddbdd","null","","null","","","","","","","","./tasks/HMM-beads/Images/BlackBeadChoiceCorrect.png","","","","","","","","","",""
"image-keyboard-response","53","134215","0.0-3.0-4.0-1.0-0.13","5e0e502b2fc4785903ee9029","6662009ae78f21dd82fcd179","666207a3ddafc2d18a2ddbdd","433","","f","","","","","","","","./tasks/HMM-beads/Images/NewTrialBC.png","practice","0","13","0","0","0","0","true","",""
"image-keyboard-response","54","134526","0.0-3.0-4.0-1.0-1.13","5e0e502b2fc4785903ee9029","6662009ae78f21dd82fcd179","666207a3ddafc2d18a2ddbdd","null","","null","","","","","","","","./tasks/HMM-beads/Images/BlackBeadChoice.png","","","","","","","","","",""
"image-keyboard-response","55","135030","0.0-3.0-4.0-1.0-2.13","5e0e502b2fc4785903ee9029","6662009ae78f21dd82fcd179","666207a3ddafc2d18a2ddbdd","null","","null","","","","","","","","./tasks/HMM-beads/Images/BlackBeadChoiceCorrect.png","","","","","","","","","",""
"image-keyboard-response","56","135892","0.0-3.0-4.0-1.0-0.14","5e0e502b2fc4785903ee9029","6662009ae78f21dd82fcd179","666207a3ddafc2d18a2ddbdd","861","","j","","","","","","","","./tasks/HMM-beads/Images/NewTrialBC.png","practice","0","14","0","0","0","1","false","",""
"image-keyboard-response","57","136207","0.0-3.0-4.0-1.0-1.14","5e0e502b2fc4785903ee9029","6662009ae78f21dd82fcd179","666207a3ddafc2d18a2ddbdd","null","","null","","","","","","","","./tasks/HMM-beads/Images/WhiteBeadChoice.png","","","","","","","","","",""
"image-keyboard-response","58","136711","0.0-3.0-4.0-1.0-2.14","5e0e502b2fc4785903ee9029","6662009ae78f21dd82fcd179","666207a3ddafc2d18a2ddbdd","null","","null","","","","","","","","./tasks/HMM-beads/Images/WhiteBeadChoiceWrong.png","","","","","","","","","",""
"image-keyboard-response","59","136982","0.0-3.0-4.0-1.0-0.15","5e0e502b2fc4785903ee9029","6662009ae78f21dd82fcd179","666207a3ddafc2d18a2ddbdd","269","","j","","","","","","","","./tasks/HMM-beads/Images/NewTrialBC.png","practice","0","15","0","0","0","1","false","",""
"image-keyboard-response","60","137290","0.0-3.0-4.0-1.0-1.15","5e0e502b2fc4785903ee9029","6662009ae78f21dd82fcd179","666207a3ddafc2d18a2ddbdd","null","","null","","","","","","","","./tasks/HMM-beads/Images/WhiteBeadChoice.png","","","","","","","","","",""
"image-keyboard-response","61","137793","0.0-3.0-4.0-1.0-2.15","5e0e502b2fc4785903ee9029","6662009ae78f21dd82fcd179","666207a3ddafc2d18a2ddbdd","null","","null","","","","","","","","./tasks/HMM-beads/Images/WhiteBeadChoiceWrong.png","","","","","","","","","",""
"image-keyboard-response","62","137928","0.0-3.0-4.0-1.0-0.16","5e0e502b2fc4785903ee9029","6662009ae78f21dd82fcd179","666207a3ddafc2d18a2ddbdd","130","","j","","","","","","","","./tasks/HMM-beads/Images/NewTrialBC.png","practice","0","16","0","0","0","1","false","",""
"image-keyboard-response","63","138239","0.0-3.0-4.0-1.0-1.16","5e0e502b2fc4785903ee9029","6662009ae78f21dd82fcd179","666207a3ddafc2d18a2ddbdd","null","","null","","","","","","","","./tasks/HMM-beads/Images/WhiteBeadChoice.png","","","","","","","","","",""
"image-keyboard-response","64","138743","0.0-3.0-4.0-1.0-2.16","5e0e502b2fc4785903ee9029","6662009ae78f21dd82fcd179","666207a3ddafc2d18a2ddbdd","null","","null","","","","","","","","./tasks/HMM-beads/Images/WhiteBeadChoiceWrong.png","","","","","","","","","",""
"image-keyboard-response","65","138927","0.0-3.0-4.0-1.0-0.17","5e0e502b2fc4785903ee9029","6662009ae78f21dd82fcd179","666207a3ddafc2d18a2ddbdd","183","","j","","","","","","","","./tasks/HMM-beads/Images/NewTrialBC.png","practice","0","17","0","0","0","1","false","",""
"image-keyboard-response","66","139238","0.0-3.0-4.0-1.0-1.17","5e0e502b2fc4785903ee9029","6662009ae78f21dd82fcd179","666207a3ddafc2d18a2ddbdd","null","","null","","","","","","","","./tasks/HMM-beads/Images/WhiteBeadChoice.png","","","","","","","","","",""
"image-keyboard-response","67","139742","0.0-3.0-4.0-1.0-2.17","5e0e502b2fc4785903ee9029","6662009ae78f21dd82fcd179","666207a3ddafc2d18a2ddbdd","null","","null","","","","","","","","./tasks/HMM-beads/Images/WhiteBeadChoiceWrong.png","","","","","","","","","",""
"image-keyboard-response","68","139950","0.0-3.0-4.0-1.0-0.18","5e0e502b2fc4785903ee9029","6662009ae78f21dd82fcd179","666207a3ddafc2d18a2ddbdd","207","","j","","","","","","","","./tasks/HMM-beads/Images/NewTrialBC.png","practice","0","18","0","1","0","1","true","",""
"image-keyboard-response","69","140253","0.0-3.0-4.0-1.0-1.18","5e0e502b2fc4785903ee9029","6662009ae78f21dd82fcd179","666207a3ddafc2d18a2ddbdd","null","","null","","","","","","","","./tasks/HMM-beads/Images/WhiteBeadChoice.png","","","","","","","","","",""
"image-keyboard-response","70","140757","0.0-3.0-4.0-1.0-2.18","5e0e502b2fc4785903ee9029","6662009ae78f21dd82fcd179","666207a3ddafc2d18a2ddbdd","null","","null","","","","","","","","./tasks/HMM-beads/Images/WhiteBeadChoiceCorrect.png","","","","","","","","","",""
"image-keyboard-response","71","141460","0.0-3.0-4.0-1.0-0.19","5e0e502b2fc4785903ee9029","6662009ae78f21dd82fcd179","666207a3ddafc2d18a2ddbdd","702","","f","","","","","","","","./tasks/HMM-beads/Images/NewTrialWC.png","practice","0","19","0","0","1","0","true","",""
"image-keyboard-response","72","141768","0.0-3.0-4.0-1.0-1.19","5e0e502b2fc4785903ee9029","6662009ae78f21dd82fcd179","666207a3ddafc2d18a2ddbdd","null","","null","","","","","","","","./tasks/HMM-beads/Images/BlackBeadChoice.png","","","","","","","","","",""
"image-keyboard-response","73","142272","0.0-3.0-4.0-1.0-2.19","5e0e502b2fc4785903ee9029","6662009ae78f21dd82fcd179","666207a3ddafc2d18a2ddbdd","null","","null","","","","","","","","./tasks/HMM-beads/Images/BlackBeadChoiceCorrect.png","","","","","","","","","",""
"image-keyboard-response","74","142409","0.0-3.0-4.0-1.0-0.20","5e0e502b2fc4785903ee9029","6662009ae78f21dd82fcd179","666207a3ddafc2d18a2ddbdd","136","","f","","","","","","","","./tasks/HMM-beads/Images/NewTrialBC.png","practice","0","20","0","0","0","0","true","",""
"image-keyboard-response","75","142718","0.0-3.0-4.0-1.0-1.20","5e0e502b2fc4785903ee9029","6662009ae78f21dd82fcd179","666207a3ddafc2d18a2ddbdd","null","","null","","","","","","","","./tasks/HMM-beads/Images/BlackBeadChoice.png","","","","","","","","","",""
"image-keyboard-response","76","143222","0.0-3.0-4.0-1.0-2.20","5e0e502b2fc4785903ee9029","6662009ae78f21dd82fcd179","666207a3ddafc2d18a2ddbdd","null","","null","","","","","","","","./tasks/HMM-beads/Images/BlackBeadChoiceCorrect.png","","","","","","","","","",""
"image-keyboard-response","77","143378","0.0-3.0-4.0-1.0-0.21","5e0e502b2fc4785903ee9029","6662009ae78f21dd82fcd179","666207a3ddafc2d18a2ddbdd","156","","f","","","","","","","","./tasks/HMM-beads/Images/NewTrialBC.png","practice","0","21","0","1","0","0","false","",""
"image-keyboard-response","78","143684","0.0-3.0-4.0-1.0-1.21","5e0e502b2fc4785903ee9029","6662009ae78f21dd82fcd179","666207a3ddafc2d18a2ddbdd","null","","null","","","","","","","","./tasks/HMM-beads/Images/BlackBeadChoice.png","","","","","","","","","",""
"image-keyboard-response","79","144187","0.0-3.0-4.0-1.0-2.21","5e0e502b2fc4785903ee9029","6662009ae78f21dd82fcd179","666207a3ddafc2d18a2ddbdd","null","","null","","","","","","","","./tasks/HMM-beads/Images/BlackBeadChoiceWrong.png","","","","","","","","","",""
"image-keyboard-response","80","144303","0.0-3.0-4.0-1.0-0.22","5e0e502b2fc4785903ee9029","6662009ae78f21dd82fcd179","666207a3ddafc2d18a2ddbdd","114","","f","","","","","","","","./tasks/HMM-beads/Images/NewTrialWC.png","practice","0","22","1","1","1","0","false","",""
"image-keyboard-response","81","144616","0.0-3.0-4.0-1.0-1.22","5e0e502b2fc4785903ee9029","6662009ae78f21dd82fcd179","666207a3ddafc2d18a2ddbdd","null","","null","","","","","","","","./tasks/HMM-beads/Images/BlackBeadChoice.png","","","","","","","","","",""
"image-keyboard-response","82","145120","0.0-3.0-4.0-1.0-2.22","5e0e502b2fc4785903ee9029","6662009ae78f21dd82fcd179","666207a3ddafc2d18a2ddbdd","null","","null","","","","","","","","./tasks/HMM-beads/Images/BlackBeadChoiceWrong.png","","","","","","","","","",""
"image-keyboard-response","83","145405","0.0-3.0-4.0-1.0-0.23","5e0e502b2fc4785903ee9029","6662009ae78f21dd82fcd179","666207a3ddafc2d18a2ddbdd","283","","f","","","","","","","","./tasks/HMM-beads/Images/NewTrialWC.png","practice","0","23","1","0","1","0","true","",""
"image-keyboard-response","84","145715","0.0-3.0-4.0-1.0-1.23","5e0e502b2fc4785903ee9029","6662009ae78f21dd82fcd179","666207a3ddafc2d18a2ddbdd","null","","null","","","","","","","","./tasks/HMM-beads/Images/BlackBeadChoice.png","","","","","","","","","",""
"image-keyboard-response","85","146219","0.0-3.0-4.0-1.0-2.23","5e0e502b2fc4785903ee9029","6662009ae78f21dd82fcd179","666207a3ddafc2d18a2ddbdd","null","","null","","","","","","","","./tasks/HMM-beads/Images/BlackBeadChoiceCorrect.png","","","","","","","","","",""
"image-keyboard-response","86","146388","0.0-3.0-4.0-1.0-0.24","5e0e502b2fc4785903ee9029","6662009ae78f21dd82fcd179","666207a3ddafc2d18a2ddbdd","168","","f","","","","","","","","./tasks/HMM-beads/Images/NewTrialBC.png","practice","0","24","1","1","0","0","false","",""
"image-keyboard-response","87","146697","0.0-3.0-4.0-1.0-1.24","5e0e502b2fc4785903ee9029","6662009ae78f21dd82fcd179","666207a3ddafc2d18a2ddbdd","null","","null","","","","","","","","./tasks/HMM-beads/Images/BlackBeadChoice.png","","","","","","","","","",""
"image-keyboard-response","88","147217","0.0-3.0-4.0-1.0-2.24","5e0e502b2fc4785903ee9029","6662009ae78f21dd82fcd179","666207a3ddafc2d18a2ddbdd","null","","null","","","","","","","","./tasks/HMM-beads/Images/BlackBeadChoiceWrong.png","","","","","","","","","",""
"image-keyboard-response","89","147400","0.0-3.0-4.0-1.0-0.25","5e0e502b2fc4785903ee9029","6662009ae78f21dd82fcd179","666207a3ddafc2d18a2ddbdd","181","","j","","","","","","","","./tasks/HMM-beads/Images/NewTrialWC.png","practice","0","25","1","1","1","1","true","",""
"image-keyboard-response","90","147713","0.0-3.0-4.0-1.0-1.25","5e0e502b2fc4785903ee9029","6662009ae78f21dd82fcd179","666207a3ddafc2d18a2ddbdd","null","","null","","","","","","","","./tasks/HMM-beads/Images/WhiteBeadChoice.png","","","","","","","","","",""
"image-keyboard-response","91","148217","0.0-3.0-4.0-1.0-2.25","5e0e502b2fc4785903ee9029","6662009ae78f21dd82fcd179","666207a3ddafc2d18a2ddbdd","null","","null","","","","","","","","./tasks/HMM-beads/Images/WhiteBeadChoiceCorrect.png","","","","","","","","","",""
"image-keyboard-response","92","148395","0.0-3.0-4.0-1.0-0.26","5e0e502b2fc4785903ee9029","6662009ae78f21dd82fcd179","666207a3ddafc2d18a2ddbdd","178","","j","","","","","","","","./tasks/HMM-beads/Images/NewTrialWC.png","practice","0","26","1","1","1","1","true","",""
"image-keyboard-response","93","148712","0.0-3.0-4.0-1.0-1.26","5e0e502b2fc4785903ee9029","6662009ae78f21dd82fcd179","666207a3ddafc2d18a2ddbdd","null","","null","","","","","","","","./tasks/HMM-beads/Images/WhiteBeadChoice.png","","","","","","","","","",""
"image-keyboard-response","94","149216","0.0-3.0-4.0-1.0-2.26","5e0e502b2fc4785903ee9029","6662009ae78f21dd82fcd179","666207a3ddafc2d18a2ddbdd","null","","null","","","","","","","","./tasks/HMM-beads/Images/WhiteBeadChoiceCorrect.png","","","","","","","","","",""
"image-keyboard-response","95","149605","0.0-3.0-4.0-1.0-0.27","5e0e502b2fc4785903ee9029","6662009ae78f21dd82fcd179","666207a3ddafc2d18a2ddbdd","389","","j","","","","","","","","./tasks/HMM-beads/Images/NewTrialWC.png","practice","0","27","1","1","1","1","true","",""
"image-keyboard-response","96","149911","0.0-3.0-4.0-1.0-1.27","5e0e502b2fc4785903ee9029","6662009ae78f21dd82fcd179","666207a3ddafc2d18a2ddbdd","null","","null","","","","","","","","./tasks/HMM-beads/Images/WhiteBeadChoice.png","","","","","","","","","",""
"image-keyboard-response","97","150415","0.0-3.0-4.0-1.0-2.27","5e0e502b2fc4785903ee9029","6662009ae78f21dd82fcd179","666207a3ddafc2d18a2ddbdd","null","","null","","","","","","","","./tasks/HMM-beads/Images/WhiteBeadChoiceCorrect.png","","","","","","","","","",""
"image-keyboard-response","98","150663","0.0-3.0-4.0-1.0-0.28","5e0e502b2fc4785903ee9029","6662009ae78f21dd82fcd179","666207a3ddafc2d18a2ddbdd","247","","j","","","","","","","","./tasks/HMM-beads/Images/NewTrialWC.png","practice","0","28","1","0","1","1","false","",""
"image-keyboard-response","99","150976","0.0-3.0-4.0-1.0-1.28","5e0e502b2fc4785903ee9029","6662009ae78f21dd82fcd179","666207a3ddafc2d18a2ddbdd","null","","null","","","","","","","","./tasks/HMM-beads/Images/WhiteBeadChoice.png","","","","","","","","","",""
"image-keyboard-response","100","151480","0.0-3.0-4.0-1.0-2.28","5e0e502b2fc4785903ee9029","6662009ae78f21dd82fcd179","666207a3ddafc2d18a2ddbdd","null","","null","","","","","","","","./tasks/HMM-beads/Images/WhiteBeadChoiceWrong.png","","","","","","","","","",""
"image-keyboard-response","101","151627","0.0-3.0-4.0-1.0-0.29","5e0e502b2fc4785903ee9029","6662009ae78f21dd82fcd179","666207a3ddafc2d18a2ddbdd","142","","f","","","","","","","","./tasks/HMM-beads/Images/NewTrialBC.png","practice","0","29","1","1","0","0","false","",""
"image-keyboard-response","102","151942","0.0-3.0-4.0-1.0-1.29","5e0e502b2fc4785903ee9029","6662009ae78f21dd82fcd179","666207a3ddafc2d18a2ddbdd","null","","null","","","","","","","","./tasks/HMM-beads/Images/BlackBeadChoice.png","","","","","","","","","",""
"image-keyboard-response","103","152445","0.0-3.0-4.0-1.0-2.29","5e0e502b2fc4785903ee9029","6662009ae78f21dd82fcd179","666207a3ddafc2d18a2ddbdd","null","","null","","","","","","","","./tasks/HMM-beads/Images/BlackBeadChoiceWrong.png","","","","","","","","","",""
"image-keyboard-response","104","153132","0.0-3.0-4.0-1.0-0.30","5e0e502b2fc4785903ee9029","6662009ae78f21dd82fcd179","666207a3ddafc2d18a2ddbdd","686","","j","","","","","","","","./tasks/HMM-beads/Images/NewTrialWC.png","practice","0","30","1","0","1","1","false","",""
"image-keyboard-response","105","153441","0.0-3.0-4.0-1.0-1.30","5e0e502b2fc4785903ee9029","6662009ae78f21dd82fcd179","666207a3ddafc2d18a2ddbdd","null","","null","","","","","","","","./tasks/HMM-beads/Images/WhiteBeadChoice.png","","","","","","","","","",""
"image-keyboard-response","106","153946","0.0-3.0-4.0-1.0-2.30","5e0e502b2fc4785903ee9029","6662009ae78f21dd82fcd179","666207a3ddafc2d18a2ddbdd","null","","null","","","","","","","","./tasks/HMM-beads/Images/WhiteBeadChoiceWrong.png","","","","","","","","","",""
"image-keyboard-response","107","154010","0.0-3.0-4.0-1.0-0.31","5e0e502b2fc4785903ee9029","6662009ae78f21dd82fcd179","666207a3ddafc2d18a2ddbdd","63","","j","","","","","","","","./tasks/HMM-beads/Images/NewTrialBC.png","practice","0","31","1","1","0","1","true","",""
"image-keyboard-response","108","154323","0.0-3.0-4.0-1.0-1.31","5e0e502b2fc4785903ee9029","6662009ae78f21dd82fcd179","666207a3ddafc2d18a2ddbdd","null","","null","","","","","","","","./tasks/HMM-beads/Images/WhiteBeadChoice.png","","","","","","","","","",""
"image-keyboard-response","109","154827","0.0-3.0-4.0-1.0-2.31","5e0e502b2fc4785903ee9029","6662009ae78f21dd82fcd179","666207a3ddafc2d18a2ddbdd","null","","null","","","","","","","","./tasks/HMM-beads/Images/WhiteBeadChoiceCorrect.png","","","","","","","","","",""
"image-keyboard-response","110","155262","0.0-3.0-4.0-1.0-0.32","5e0e502b2fc4785903ee9029","6662009ae78f21dd82fcd179","666207a3ddafc2d18a2ddbdd","434","","j","","","","","","","","./tasks/HMM-beads/Images/NewTrialWC.png","practice","0","32","1","1","1","1","true","",""
"image-keyboard-response","111","155569","0.0-3.0-4.0-1.0-1.32","5e0e502b2fc4785903ee9029","6662009ae78f21dd82fcd179","666207a3ddafc2d18a2ddbdd","null","","null","","","","","","","","./tasks/HMM-beads/Images/WhiteBeadChoice.png","","","","","","","","","",""
"image-keyboard-response","112","156075","0.0-3.0-4.0-1.0-2.32","5e0e502b2fc4785903ee9029","6662009ae78f21dd82fcd179","666207a3ddafc2d18a2ddbdd","null","","null","","","","","","","","./tasks/HMM-beads/Images/WhiteBeadChoiceCorrect.png","","","","","","","","","",""
"image-keyboard-response","113","156408","0.0-3.0-4.0-1.0-0.33","5e0e502b2fc4785903ee9029","6662009ae78f21dd82fcd179","666207a3ddafc2d18a2ddbdd","332","","j","","","","","","","","./tasks/HMM-beads/Images/NewTrialWC.png","practice","0","33","1","1","1","1","true","",""
"image-keyboard-response","114","156721","0.0-3.0-4.0-1.0-1.33","5e0e502b2fc4785903ee9029","6662009ae78f21dd82fcd179","666207a3ddafc2d18a2ddbdd","null","","null","","","","","","","","./tasks/HMM-beads/Images/WhiteBeadChoice.png","","","","","","","","","",""
"image-keyboard-response","115","157224","0.0-3.0-4.0-1.0-2.33","5e0e502b2fc4785903ee9029","6662009ae78f21dd82fcd179","666207a3ddafc2d18a2ddbdd","null","","null","","","","","","","","./tasks/HMM-beads/Images/WhiteBeadChoiceCorrect.png","","","","","","","","","",""
"image-keyboard-response","116","157867","0.0-3.0-4.0-1.0-0.34","5e0e502b2fc4785903ee9029","6662009ae78f21dd82fcd179","666207a3ddafc2d18a2ddbdd","641","","j","","","","","","","","./tasks/HMM-beads/Images/NewTrialWC.png","practice","0","34","1","1","1","1","true","",""
"image-keyboard-response","117","158169","0.0-3.0-4.0-1.0-1.34","5e0e502b2fc4785903ee9029","6662009ae78f21dd82fcd179","666207a3ddafc2d18a2ddbdd","null","","null","","","","","","","","./tasks/HMM-beads/Images/WhiteBeadChoice.png","","","","","","","","","",""
"image-keyboard-response","118","158673","0.0-3.0-4.0-1.0-2.34","5e0e502b2fc4785903ee9029","6662009ae78f21dd82fcd179","666207a3ddafc2d18a2ddbdd","null","","null","","","","","","","","./tasks/HMM-beads/Images/WhiteBeadChoiceCorrect.png","","","","","","","","","",""
"image-keyboard-response","119","158971","0.0-3.0-4.0-1.0-0.35","5e0e502b2fc4785903ee9029","6662009ae78f21dd82fcd179","666207a3ddafc2d18a2ddbdd","296","","j","","","","","","","","./tasks/HMM-beads/Images/NewTrialWC.png","practice","0","35","1","1","1","1","true","",""
"image-keyboard-response","120","159285","0.0-3.0-4.0-1.0-1.35","5e0e502b2fc4785903ee9029","6662009ae78f21dd82fcd179","666207a3ddafc2d18a2ddbdd","null","","null","","","","","","","","./tasks/HMM-beads/Images/WhiteBeadChoice.png","","","","","","","","","",""
"image-keyboard-response","121","159789","0.0-3.0-4.0-1.0-2.35","5e0e502b2fc4785903ee9029","6662009ae78f21dd82fcd179","666207a3ddafc2d18a2ddbdd","null","","null","","","","","","","","./tasks/HMM-beads/Images/WhiteBeadChoiceCorrect.png","","","","","","","","","",""
"image-keyboard-response","122","160072","0.0-3.0-4.0-1.0-0.36","5e0e502b2fc4785903ee9029","6662009ae78f21dd82fcd179","666207a3ddafc2d18a2ddbdd","282","","j","","","","","","","","./tasks/HMM-beads/Images/NewTrialWC.png","practice","0","36","1","0","1","1","false","",""
"image-keyboard-response","123","160384","0.0-3.0-4.0-1.0-1.36","5e0e502b2fc4785903ee9029","6662009ae78f21dd82fcd179","666207a3ddafc2d18a2ddbdd","null","","null","","","","","","","","./tasks/HMM-beads/Images/WhiteBeadChoice.png","","","","","","","","","",""
"image-keyboard-response","124","160888","0.0-3.0-4.0-1.0-2.36","5e0e502b2fc4785903ee9029","6662009ae78f21dd82fcd179","666207a3ddafc2d18a2ddbdd","null","","null","","","","","","","","./tasks/HMM-beads/Images/WhiteBeadChoiceWrong.png","","","","","","","","","",""
"image-keyboard-response","125","161086","0.0-3.0-4.0-1.0-0.37","5e0e502b2fc4785903ee9029","6662009ae78f21dd82fcd179","666207a3ddafc2d18a2ddbdd","197","","f","","","","","","","","./tasks/HMM-beads/Images/NewTrialBC.png","practice","0","37","1","1","0","0","false","",""
"image-keyboard-response","126","161399","0.0-3.0-4.0-1.0-1.37","5e0e502b2fc4785903ee9029","6662009ae78f21dd82fcd179","666207a3ddafc2d18a2ddbdd","null","","null","","","","","","","","./tasks/HMM-beads/Images/BlackBeadChoice.png","","","","","","","","","",""
"image-keyboard-response","127","161919","0.0-3.0-4.0-1.0-2.37","5e0e502b2fc4785903ee9029","6662009ae78f21dd82fcd179","666207a3ddafc2d18a2ddbdd","null","","null","","","","","","","","./tasks/HMM-beads/Images/BlackBeadChoiceWrong.png","","","","","","","","","",""
"image-keyboard-response","128","162222","0.0-3.0-4.0-1.0-0.38","5e0e502b2fc4785903ee9029","6662009ae78f21dd82fcd179","666207a3ddafc2d18a2ddbdd","302","","j","","","","","","","","./tasks/HMM-beads/Images/NewTrialWC.png","practice","0","38","1","1","1","1","true","",""
"image-keyboard-response","129","162532","0.0-3.0-4.0-1.0-1.38","5e0e502b2fc4785903ee9029","6662009ae78f21dd82fcd179","666207a3ddafc2d18a2ddbdd","null","","null","","","","","","","","./tasks/HMM-beads/Images/WhiteBeadChoice.png","","","","","","","","","",""
"image-keyboard-response","130","163036","0.0-3.0-4.0-1.0-2.38","5e0e502b2fc4785903ee9029","6662009ae78f21dd82fcd179","666207a3ddafc2d18a2ddbdd","null","","null","","","","","","","","./tasks/HMM-beads/Images/WhiteBeadChoiceCorrect.png","","","","","","","","","",""
"image-keyboard-response","131","163245","0.0-3.0-4.0-1.0-0.39","5e0e502b2fc4785903ee9029","6662009ae78f21dd82fcd179","666207a3ddafc2d18a2ddbdd","208","","j","","","","","","","","./tasks/HMM-beads/Images/NewTrialWC.png","practice","0","39","1","1","1","1","true","",""
"image-keyboard-response","132","163547","0.0-3.0-4.0-1.0-1.39","5e0e502b2fc4785903ee9029","6662009ae78f21dd82fcd179","666207a3ddafc2d18a2ddbdd","null","","null","","","","","","","","./tasks/HMM-beads/Images/WhiteBeadChoice.png","","","","","","","","","",""
"image-keyboard-response","133","164052","0.0-3.0-4.0-1.0-2.39","5e0e502b2fc4785903ee9029","6662009ae78f21dd82fcd179","666207a3ddafc2d18a2ddbdd","null","","null","","","","","","","","./tasks/HMM-beads/Images/WhiteBeadChoiceCorrect.png","","","","","","","","","",""
"html-keyboard-response","134","166152","0.0-3.0-4.0-2.0","5e0e502b2fc4785903ee9029","6662009ae78f21dd82fcd179","666207a3ddafc2d18a2ddbdd","2099",""," ","","","","","","","","","","","","","","","","","",""
"instructions","135","172414","0.0-3.0-5.0","5e0e502b2fc4785903ee9029","6662009ae78f21dd82fcd179","666207a3ddafc2d18a2ddbdd","6261","","","","[{""page_index"":0,""viewing_time"":3945},{""page_index"":1,""viewing_time"":2316}]","","","","","","","","","","","","","","","",""
"html-keyboard-response","136","173973","0.0-3.0-6.0-0.0","5e0e502b2fc4785903ee9029","6662009ae78f21dd82fcd179","666207a3ddafc2d18a2ddbdd","1558",""," ","","","","","","","","<div align=center>In this block, there will be a <b>1% chance</b> that the jar on the next trial will be different from the jar on the current trial.<br><br></div>","","","","","","","","","",""
"image-keyboard-response","137","175346","0.0-3.0-6.0-1.0-0.0","5e0e502b2fc4785903ee9029","6662009ae78f21dd82fcd179","666207a3ddafc2d18a2ddbdd","1371","","f","","","","","","","","./tasks/HMM-beads/Images/NoChoice.png","lowH","1","0","1","0","9","0","true","",""
"image-keyboard-response","138","175652","0.0-3.0-6.0-1.0-1.0","5e0e502b2fc4785903ee9029","6662009ae78f21dd82fcd179","666207a3ddafc2d18a2ddbdd","null","","null","","","","","","","","./tasks/HMM-beads/Images/BlackBeadChoice.png","","","","","","","","","",""
"image-keyboard-response","139","176156","0.0-3.0-6.0-1.0-2.0","5e0e502b2fc4785903ee9029","6662009ae78f21dd82fcd179","666207a3ddafc2d18a2ddbdd","null","","null","","","","","","","","./tasks/HMM-beads/Images/BlackBeadChoiceCorrect.png","","","","","","","","","",""
"image-keyboard-response","140","177141","0.0-3.0-6.0-1.0-0.1","5e0e502b2fc4785903ee9029","6662009ae78f21dd82fcd179","666207a3ddafc2d18a2ddbdd","984","","f","","","","","","","","./tasks/HMM-beads/Images/NewTrialBC.png","lowH","1","1","1","1","0","0","false","",""
"image-keyboard-response","141","177450","0.0-3.0-6.0-1.0-1.1","5e0e502b2fc4785903ee9029","6662009ae78f21dd82fcd179","666207a3ddafc2d18a2ddbdd","null","","null","","","","","","","","./tasks/HMM-beads/Images/BlackBeadChoice.png","","","","","","","","","",""
"image-keyboard-response","142","177954","0.0-3.0-6.0-1.0-2.1","5e0e502b2fc4785903ee9029","6662009ae78f21dd82fcd179","666207a3ddafc2d18a2ddbdd","null","","null","","","","","","","","./tasks/HMM-beads/Images/BlackBeadChoiceWrong.png","","","","","","","","","",""
"image-keyboard-response","143","178130","0.0-3.0-6.0-1.0-0.2","5e0e502b2fc4785903ee9029","6662009ae78f21dd82fcd179","666207a3ddafc2d18a2ddbdd","170","","f","","","","","","","","./tasks/HMM-beads/Images/NewTrialWC.png","lowH","1","2","1","1","1","0","false","",""
"image-keyboard-response","144","178433","0.0-3.0-6.0-1.0-1.2","5e0e502b2fc4785903ee9029","6662009ae78f21dd82fcd179","666207a3ddafc2d18a2ddbdd","null","","null","","","","","","","","./tasks/HMM-beads/Images/BlackBeadChoice.png","","","","","","","","","",""
"image-keyboard-response","145","178936","0.0-3.0-6.0-1.0-2.2","5e0e502b2fc4785903ee9029","6662009ae78f21dd82fcd179","666207a3ddafc2d18a2ddbdd","null","","null","","","","","","","","./tasks/HMM-beads/Images/BlackBeadChoiceWrong.png","","","","","","","","","",""
"image-keyboard-response","146","179227","0.0-3.0-6.0-1.0-0.3","5e0e502b2fc4785903ee9029","6662009ae78f21dd82fcd179","666207a3ddafc2d18a2ddbdd","289","","f","","","","","","","","./tasks/HMM-beads/Images/NewTrialWC.png","lowH","1","3","1","1","1","0","false","",""
"image-keyboard-response","147","179532","0.0-3.0-6.0-1.0-1.3","5e0e502b2fc4785903ee9029","6662009ae78f21dd82fcd179","666207a3ddafc2d18a2ddbdd","null","","null","","","","","","","","./tasks/HMM-beads/Images/BlackBeadChoice.png","","","","","","","","","",""
"image-keyboard-response","148","180036","0.0-3.0-6.0-1.0-2.3","5e0e502b2fc4785903ee9029","6662009ae78f21dd82fcd179","666207a3ddafc2d18a2ddbdd","null","","null","","","","","","","","./tasks/HMM-beads/Images/BlackBeadChoiceWrong.png","","","","","","","","","",""
"image-keyboard-response","149","180080","0.0-3.0-6.0-1.0-0.4","5e0e502b2fc4785903ee9029","6662009ae78f21dd82fcd179","666207a3ddafc2d18a2ddbdd","44","","j","","","","","","","","./tasks/HMM-beads/Images/NewTrialWC.png","lowH","1","4","1","1","1","1","true","",""
"image-keyboard-response","150","180382","0.0-3.0-6.0-1.0-1.4","5e0e502b2fc4785903ee9029","6662009ae78f21dd82fcd179","666207a3ddafc2d18a2ddbdd","null","","null","","","","","","","","./tasks/HMM-beads/Images/WhiteBeadChoice.png","","","","","","","","","",""
"image-keyboard-response","151","180885","0.0-3.0-6.0-1.0-2.4","5e0e502b2fc4785903ee9029","6662009ae78f21dd82fcd179","666207a3ddafc2d18a2ddbdd","null","","null","","","","","","","","./tasks/HMM-beads/Images/WhiteBeadChoiceCorrect.png","","","","","","","","","",""
"image-keyboard-response","152","180909","0.0-3.0-6.0-1.0-0.5","5e0e502b2fc4785903ee9029","6662009ae78f21dd82fcd179","666207a3ddafc2d18a2ddbdd","23","","j","","","","","","","","./tasks/HMM-beads/Images/NewTrialWC.png","lowH","1","5","1","1","1","1","true","",""
"image-keyboard-response","153","181213","0.0-3.0-6.0-1.0-1.5","5e0e502b2fc4785903ee9029","6662009ae78f21dd82fcd179","666207a3ddafc2d18a2ddbdd","null","","null","","","","","","","","./tasks/HMM-beads/Images/WhiteBeadChoice.png","","","","","","","","","",""
"image-keyboard-response","154","181717","0.0-3.0-6.0-1.0-2.5","5e0e502b2fc4785903ee9029","6662009ae78f21dd82fcd179","666207a3ddafc2d18a2ddbdd","null","","null","","","","","","","","./tasks/HMM-beads/Images/WhiteBeadChoiceCorrect.png","","","","","","","","","",""
"image-keyboard-response","155","181755","0.0-3.0-6.0-1.0-0.6","5e0e502b2fc4785903ee9029","6662009ae78f21dd82fcd179","666207a3ddafc2d18a2ddbdd","36","","j","","","","","","","","./tasks/HMM-beads/Images/NewTrialWC.png","lowH","1","6","1","0","1","1","false","",""
"image-keyboard-response","156","182062","0.0-3.0-6.0-1.0-1.6","5e0e502b2fc4785903ee9029","6662009ae78f21dd82fcd179","666207a3ddafc2d18a2ddbdd","null","","null","","","","","","","","./tasks/HMM-beads/Images/WhiteBeadChoice.png","","","","","","","","","",""
"image-keyboard-response","157","182566","0.0-3.0-6.0-1.0-2.6","5e0e502b2fc4785903ee9029","6662009ae78f21dd82fcd179","666207a3ddafc2d18a2ddbdd","null","","null","","","","","","","","./tasks/HMM-beads/Images/WhiteBeadChoiceWrong.png","","","","","","","","","",""
"image-keyboard-response","158","182988","0.0-3.0-6.0-1.0-0.7","5e0e502b2fc4785903ee9029","6662009ae78f21dd82fcd179","666207a3ddafc2d18a2ddbdd","432","","j","","","","","","","","./tasks/HMM-beads/Images/NewTrialBC.png","lowH","1","7","1","1","0","1","true","",""
"image-keyboard-response","159","183300","0.0-3.0-6.0-1.0-1.7","5e0e502b2fc4785903ee9029","6662009ae78f21dd82fcd179","666207a3ddafc2d18a2ddbdd","null","","null","","","","","","","","./tasks/HMM-beads/Images/WhiteBeadChoice.png","","","","","","","","","",""
"image-keyboard-response","160","183803","0.0-3.0-6.0-1.0-2.7","5e0e502b2fc4785903ee9029","6662009ae78f21dd82fcd179","666207a3ddafc2d18a2ddbdd","null","","null","","","","","","","","./tasks/HMM-beads/Images/WhiteBeadChoiceCorrect.png","","","","","","","","","",""
"image-keyboard-response","161","183947","0.0-3.0-6.0-1.0-0.8","5e0e502b2fc4785903ee9029","6662009ae78f21dd82fcd179","666207a3ddafc2d18a2ddbdd","142","","j","","","","","","","","./tasks/HMM-beads/Images/NewTrialWC.png","lowH","1","8","1","1","1","1","true","",""
"image-keyboard-response","162","184264","0.0-3.0-6.0-1.0-1.8","5e0e502b2fc4785903ee9029","6662009ae78f21dd82fcd179","666207a3ddafc2d18a2ddbdd","null","","null","","","","","","","","./tasks/HMM-beads/Images/WhiteBeadChoice.png","","","","","","","","","",""
"image-keyboard-response","163","184770","0.0-3.0-6.0-1.0-2.8","5e0e502b2fc4785903ee9029","6662009ae78f21dd82fcd179","666207a3ddafc2d18a2ddbdd","null","","null","","","","","","","","./tasks/HMM-beads/Images/WhiteBeadChoiceCorrect.png","","","","","","","","","",""
"image-keyboard-response","164","184837","0.0-3.0-6.0-1.0-0.9","5e0e502b2fc4785903ee9029","6662009ae78f21dd82fcd179","666207a3ddafc2d18a2ddbdd","66","","j","","","","","","","","./tasks/HMM-beads/Images/NewTrialWC.png","lowH","1","9","1","1","1","1","true","",""
"image-keyboard-response","165","185148","0.0-3.0-6.0-1.0-1.9","5e0e502b2fc4785903ee9029","6662009ae78f21dd82fcd179","666207a3ddafc2d18a2ddbdd","null","","null","","","","","","","","./tasks/HMM-beads/Images/WhiteBeadChoice.png","","","","","","","","","",""
"image-keyboard-response","166","185652","0.0-3.0-6.0-1.0-2.9","5e0e502b2fc4785903ee9029","6662009ae78f21dd82fcd179","666207a3ddafc2d18a2ddbdd","null","","null","","","","","","","","./tasks/HMM-beads/Images/WhiteBeadChoiceCorrect.png","","","","","","","","","",""
"image-keyboard-response","167","185787","0.0-3.0-6.0-1.0-0.10","5e0e502b2fc4785903ee9029","6662009ae78f21dd82fcd179","666207a3ddafc2d18a2ddbdd","134","","j","","","","","","","","./tasks/HMM-beads/Images/NewTrialWC.png","lowH","1","10","1","1","1","1","true","",""
"image-keyboard-response","168","186097","0.0-3.0-6.0-1.0-1.10","5e0e502b2fc4785903ee9029","6662009ae78f21dd82fcd179","666207a3ddafc2d18a2ddbdd","null","","null","","","","","","","","./tasks/HMM-beads/Images/WhiteBeadChoice.png","","","","","","","","","",""
"image-keyboard-response","169","186616","0.0-3.0-6.0-1.0-2.10","5e0e502b2fc4785903ee9029","6662009ae78f21dd82fcd179","666207a3ddafc2d18a2ddbdd","null","","null","","","","","","","","./tasks/HMM-beads/Images/WhiteBeadChoiceCorrect.png","","","","","","","","","",""
"image-keyboard-response","170","186785","0.0-3.0-6.0-1.0-0.11","5e0e502b2fc4785903ee9029","6662009ae78f21dd82fcd179","666207a3ddafc2d18a2ddbdd","168","","j","","","","","","","","./tasks/HMM-beads/Images/NewTrialWC.png","lowH","1","11","1","1","1","1","true","",""
"image-keyboard-response","171","187096","0.0-3.0-6.0-1.0-1.11","5e0e502b2fc4785903ee9029","6662009ae78f21dd82fcd179","666207a3ddafc2d18a2ddbdd","null","","null","","","","","","","","./tasks/HMM-beads/Images/WhiteBeadChoice.png","","","","","","","","","",""
"image-keyboard-response","172","187600","0.0-3.0-6.0-1.0-2.11","5e0e502b2fc4785903ee9029","6662009ae78f21dd82fcd179","666207a3ddafc2d18a2ddbdd","null","","null","","","","","","","","./tasks/HMM-beads/Images/WhiteBeadChoiceCorrect.png","","","","","","","","","",""
"image-keyboard-response","173","187852","0.0-3.0-6.0-1.0-0.12","5e0e502b2fc4785903ee9029","6662009ae78f21dd82fcd179","666207a3ddafc2d18a2ddbdd","252","","f","","","","","","","","./tasks/HMM-beads/Images/NewTrialWC.png","lowH","1","12","1","1","1","0","false","",""
"image-keyboard-response","174","188162","0.0-3.0-6.0-1.0-1.12","5e0e502b2fc4785903ee9029","6662009ae78f21dd82fcd179","666207a3ddafc2d18a2ddbdd","null","","null","","","","","","","","./tasks/HMM-beads/Images/BlackBeadChoice.png","","","","","","","","","",""
"image-keyboard-response","175","188665","0.0-3.0-6.0-1.0-2.12","5e0e502b2fc4785903ee9029","6662009ae78f21dd82fcd179","666207a3ddafc2d18a2ddbdd","null","","null","","","","","","","","./tasks/HMM-beads/Images/BlackBeadChoiceWrong.png","","","","","","","","","",""
"image-keyboard-response","176","188792","0.0-3.0-6.0-1.0-0.13","5e0e502b2fc4785903ee9029","6662009ae78f21dd82fcd179","666207a3ddafc2d18a2ddbdd","125","","j","","","","","","","","./tasks/HMM-beads/Images/NewTrialWC.png","lowH","1","13","1","0","1","1","false","",""
"image-keyboard-response","177","189094","0.0-3.0-6.0-1.0-1.13","5e0e502b2fc4785903ee9029","6662009ae78f21dd82fcd179","666207a3ddafc2d18a2ddbdd","null","","null","","","","","","","","./tasks/HMM-beads/Images/WhiteBeadChoice.png","","","","","","","","","",""
"image-keyboard-response","178","189598","0.0-3.0-6.0-1.0-2.13","5e0e502b2fc4785903ee9029","6662009ae78f21dd82fcd179","666207a3ddafc2d18a2ddbdd","null","","null","","","","","","","","./tasks/HMM-beads/Images/WhiteBeadChoiceWrong.png","","","","","","","","","",""
"image-keyboard-response","179","189623","0.0-3.0-6.0-1.0-0.14","5e0e502b2fc4785903ee9029","6662009ae78f21dd82fcd179","666207a3ddafc2d18a2ddbdd","24","","j","","","","","","","","./tasks/HMM-beads/Images/NewTrialBC.png","lowH","1","14","1","0","0","1","false","",""
"image-keyboard-response","180","189926","0.0-3.0-6.0-1.0-1.14","5e0e502b2fc4785903ee9029","6662009ae78f21dd82fcd179","666207a3ddafc2d18a2ddbdd","null","","null","","","","","","","","./tasks/HMM-beads/Images/WhiteBeadChoice.png","","","","","","","","","",""
"image-keyboard-response","181","190430","0.0-3.0-6.0-1.0-2.14","5e0e502b2fc4785903ee9029","6662009ae78f21dd82fcd179","666207a3ddafc2d18a2ddbdd","null","","null","","","","","","","","./tasks/HMM-beads/Images/WhiteBeadChoiceWrong.png","","","","","","","","","",""
"image-keyboard-response","182","190813","0.0-3.0-6.0-1.0-0.15","5e0e502b2fc4785903ee9029","6662009ae78f21dd82fcd179","666207a3ddafc2d18a2ddbdd","382","","j","","","","","","","","./tasks/HMM-beads/Images/NewTrialBC.png","lowH","1","15","1","1","0","1","true","",""
"image-keyboard-response","183","191125","0.0-3.0-6.0-1.0-1.15","5e0e502b2fc4785903ee9029","6662009ae78f21dd82fcd179","666207a3ddafc2d18a2ddbdd","null","","null","","","","","","","","./tasks/HMM-beads/Images/WhiteBeadChoice.png","","","","","","","","","",""
"image-keyboard-response","184","191629","0.0-3.0-6.0-1.0-2.15","5e0e502b2fc4785903ee9029","6662009ae78f21dd82fcd179","666207a3ddafc2d18a2ddbdd","null","","null","","","","","","","","./tasks/HMM-beads/Images/WhiteBeadChoiceCorrect.png","","","","","","","","","",""
"image-keyboard-response","185","191723","0.0-3.0-6.0-1.0-0.16","5e0e502b2fc4785903ee9029","6662009ae78f21dd82fcd179","666207a3ddafc2d18a2ddbdd","93","","j","","","","","","","","./tasks/HMM-beads/Images/NewTrialWC.png","lowH","1","16","1","1","1","1","true","",""
"image-keyboard-response","186","192026","0.0-3.0-6.0-1.0-1.16","5e0e502b2fc4785903ee9029","6662009ae78f21dd82fcd179","666207a3ddafc2d18a2ddbdd","null","","null","","","","","","","","./tasks/HMM-beads/Images/WhiteBeadChoice.png","","","","","","","","","",""
"image-keyboard-response","187","192528","0.0-3.0-6.0-1.0-2.16","5e0e502b2fc4785903ee9029","6662009ae78f21dd82fcd179","666207a3ddafc2d18a2ddbdd","null","","null","","","","","","","","./tasks/HMM-beads/Images/WhiteBeadChoiceCorrect.png","","","","","","","","","",""
"image-keyboard-response","188","192845","0.0-3.0-6.0-1.0-0.17","5e0e502b2fc4785903ee9029","6662009ae78f21dd82fcd179","666207a3ddafc2d18a2ddbdd","315","","j","","","","","","","","./tasks/HMM-beads/Images/NewTrialWC.png","lowH","1","17","1","1","1","1","true","",""
"image-keyboard-response","189","193157","0.0-3.0-6.0-1.0-1.17","5e0e502b2fc4785903ee9029","6662009ae78f21dd82fcd179","666207a3ddafc2d18a2ddbdd","null","","null","","","","","","","","./tasks/HMM-beads/Images/WhiteBeadChoice.png","","","","","","","","","",""
"image-keyboard-response","190","193660","0.0-3.0-6.0-1.0-2.17","5e0e502b2fc4785903ee9029","6662009ae78f21dd82fcd179","666207a3ddafc2d18a2ddbdd","null","","null","","","","","","","","./tasks/HMM-beads/Images/WhiteBeadChoiceCorrect.png","","","","","","","","","",""
"image-keyboard-response","191","193794","0.0-3.0-6.0-1.0-0.18","5e0e502b2fc4785903ee9029","6662009ae78f21dd82fcd179","666207a3ddafc2d18a2ddbdd","133","","j","","","","","","","","./tasks/HMM-beads/Images/NewTrialWC.png","lowH","1","18","1","1","1","1","true","",""
"image-keyboard-response","192","194106","0.0-3.0-6.0-1.0-1.18","5e0e502b2fc4785903ee9029","6662009ae78f21dd82fcd179","666207a3ddafc2d18a2ddbdd","null","","null","","","","","","","","./tasks/HMM-beads/Images/WhiteBeadChoice.png","","","","","","","","","",""
"image-keyboard-response","193","194610","0.0-3.0-6.0-1.0-2.18","5e0e502b2fc4785903ee9029","6662009ae78f21dd82fcd179","666207a3ddafc2d18a2ddbdd","null","","null","","","","","","","","./tasks/HMM-beads/Images/WhiteBeadChoiceCorrect.png","","","","","","","","","",""
"image-keyboard-response","194","194837","0.0-3.0-6.0-1.0-0.19","5e0e502b2fc4785903ee9029","6662009ae78f21dd82fcd179","666207a3ddafc2d18a2ddbdd","226","","j","","","","","","","","./tasks/HMM-beads/Images/NewTrialWC.png","lowH","1","19","1","1","1","1","true","",""
"image-keyboard-response","195","195155","0.0-3.0-6.0-1.0-1.19","5e0e502b2fc4785903ee9029","6662009ae78f21dd82fcd179","666207a3ddafc2d18a2ddbdd","null","","null","","","","","","","","./tasks/HMM-beads/Images/WhiteBeadChoice.png","","","","","","","","","",""
"image-keyboard-response","196","195658","0.0-3.0-6.0-1.0-2.19","5e0e502b2fc4785903ee9029","6662009ae78f21dd82fcd179","666207a3ddafc2d18a2ddbdd","null","","null","","","","","","","","./tasks/HMM-beads/Images/WhiteBeadChoiceCorrect.png","","","","","","","","","",""
"image-keyboard-response","197","195855","0.0-3.0-6.0-1.0-0.20","5e0e502b2fc4785903ee9029","6662009ae78f21dd82fcd179","666207a3ddafc2d18a2ddbdd","196","","f","","","","","","","","./tasks/HMM-beads/Images/NewTrialWC.png","lowH","1","20","1","1","1","0","false","",""
"image-keyboard-response","198","196170","0.0-3.0-6.0-1.0-1.20","5e0e502b2fc4785903ee9029","6662009ae78f21dd82fcd179","666207a3ddafc2d18a2ddbdd","null","","null","","","","","","","","./tasks/HMM-beads/Images/BlackBeadChoice.png","","","","","","","","","",""
"image-keyboard-response","199","196675","0.0-3.0-6.0-1.0-2.20","5e0e502b2fc4785903ee9029","6662009ae78f21dd82fcd179","666207a3ddafc2d18a2ddbdd","null","","null","","","","","","","","./tasks/HMM-beads/Images/BlackBeadChoiceWrong.png","","","","","","","","","",""
"image-keyboard-response","200","196868","0.0-3.0-6.0-1.0-0.21","5e0e502b2fc4785903ee9029","6662009ae78f21dd82fcd179","666207a3ddafc2d18a2ddbdd","193","","f","","","","","","","","./tasks/HMM-beads/Images/NewTrialWC.png","lowH","1","21","1","1","1","0","false","",""
"image-keyboard-response","201","197171","0.0-3.0-6.0-1.0-1.21","5e0e502b2fc4785903ee9029","6662009ae78f21dd82fcd179","666207a3ddafc2d18a2ddbdd","null","","null","","","","","","","","./tasks/HMM-beads/Images/BlackBeadChoice.png","","","","","","","","","",""
"image-keyboard-response","202","197673","0.0-3.0-6.0-1.0-2.21","5e0e502b2fc4785903ee9029","6662009ae78f21dd82fcd179","666207a3ddafc2d18a2ddbdd","null","","null","","","","","","","","./tasks/HMM-beads/Images/BlackBeadChoiceWrong.png","","","","","","","","","",""
"image-keyboard-response","203","197852","0.0-3.0-6.0-1.0-0.22","5e0e502b2fc4785903ee9029","6662009ae78f21dd82fcd179","666207a3ddafc2d18a2ddbdd","178","","f","","","","","","","","./tasks/HMM-beads/Images/NewTrialWC.png","lowH","1","22","1","1","1","0","false","",""
"image-keyboard-response","204","198168","0.0-3.0-6.0-1.0-1.22","5e0e502b2fc4785903ee9029","6662009ae78f21dd82fcd179","666207a3ddafc2d18a2ddbdd","null","","null","","","","","","","","./tasks/HMM-beads/Images/BlackBeadChoice.png","","","","","","","","","",""
"image-keyboard-response","205","198672","0.0-3.0-6.0-1.0-2.22","5e0e502b2fc4785903ee9029","6662009ae78f21dd82fcd179","666207a3ddafc2d18a2ddbdd","null","","null","","","","","","","","./tasks/HMM-beads/Images/BlackBeadChoiceWrong.png","","","","","","","","","",""
"image-keyboard-response","206","198919","0.0-3.0-6.0-1.0-0.23","5e0e502b2fc4785903ee9029","6662009ae78f21dd82fcd179","666207a3ddafc2d18a2ddbdd","246","","f","","","","","","","","./tasks/HMM-beads/Images/NewTrialWC.png","lowH","1","23","1","1","1","0","false","",""
"image-keyboard-response","207","199234","0.0-3.0-6.0-1.0-1.23","5e0e502b2fc4785903ee9029","6662009ae78f21dd82fcd179","666207a3ddafc2d18a2ddbdd","null","","null","","","","","","","","./tasks/HMM-beads/Images/BlackBeadChoice.png","","","","","","","","","",""
"image-keyboard-response","208","199754","0.0-3.0-6.0-1.0-2.23","5e0e502b2fc4785903ee9029","6662009ae78f21dd82fcd179","666207a3ddafc2d18a2ddbdd","null","","null","","","","","","","","./tasks/HMM-beads/Images/BlackBeadChoiceWrong.png","","","","","","","","","",""
"image-keyboard-response","209","199844","0.0-3.0-6.0-1.0-0.24","5e0e502b2fc4785903ee9029","6662009ae78f21dd82fcd179","666207a3ddafc2d18a2ddbdd","89","","j","","","","","","","","./tasks/HMM-beads/Images/NewTrialWC.png","lowH","1","24","1","0","1","1","false","",""
"image-keyboard-response","210","200150","0.0-3.0-6.0-1.0-1.24","5e0e502b2fc4785903ee9029","6662009ae78f21dd82fcd179","666207a3ddafc2d18a2ddbdd","null","","null","","","","","","","","./tasks/HMM-beads/Images/WhiteBeadChoice.png","","","","","","","","","",""
"image-keyboard-response","211","200654","0.0-3.0-6.0-1.0-2.24","5e0e502b2fc4785903ee9029","6662009ae78f21dd82fcd179","666207a3ddafc2d18a2ddbdd","null","","null","","","","","","","","./tasks/HMM-beads/Images/WhiteBeadChoiceWrong.png","","","","","","","","","",""
"image-keyboard-response","212","200941","0.0-3.0-6.0-1.0-0.25","5e0e502b2fc4785903ee9029","6662009ae78f21dd82fcd179","666207a3ddafc2d18a2ddbdd","286","","j","","","","","","","","./tasks/HMM-beads/Images/NewTrialBC.png","lowH","1","25","1","1","0","1","true","",""
"image-keyboard-response","213","201249","0.0-3.0-6.0-1.0-1.25","5e0e502b2fc4785903ee9029","6662009ae78f21dd82fcd179","666207a3ddafc2d18a2ddbdd","null","","null","","","","","","","","./tasks/HMM-beads/Images/WhiteBeadChoice.png","","","","","","","","","",""
"image-keyboard-response","214","201753","0.0-3.0-6.0-1.0-2.25","5e0e502b2fc4785903ee9029","6662009ae78f21dd82fcd179","666207a3ddafc2d18a2ddbdd","null","","null","","","","","","","","./tasks/HMM-beads/Images/WhiteBeadChoiceCorrect.png","","","","","","","","","",""
"image-keyboard-response","215","201959","0.0-3.0-6.0-1.0-0.26","5e0e502b2fc4785903ee9029","6662009ae78f21dd82fcd179","666207a3ddafc2d18a2ddbdd","206","","j","","","","","","","","./tasks/HMM-beads/Images/NewTrialWC.png","lowH","1","26","1","0","1","1","false","",""
"image-keyboard-response","216","202264","0.0-3.0-6.0-1.0-1.26","5e0e502b2fc4785903ee9029","6662009ae78f21dd82fcd179","666207a3ddafc2d18a2ddbdd","null","","null","","","","","","","","./tasks/HMM-beads/Images/WhiteBeadChoice.png","","","","","","","","","",""
"image-keyboard-response","217","202768","0.0-3.0-6.0-1.0-2.26","5e0e502b2fc4785903ee9029","6662009ae78f21dd82fcd179","666207a3ddafc2d18a2ddbdd","null","","null","","","","","","","","./tasks/HMM-beads/Images/WhiteBeadChoiceWrong.png","","","","","","","","","",""
"image-keyboard-response","218","203410","0.0-3.0-6.0-1.0-0.27","5e0e502b2fc4785903ee9029","6662009ae78f21dd82fcd179","666207a3ddafc2d18a2ddbdd","641","","f","","","","","","","","./tasks/HMM-beads/Images/NewTrialBC.png","lowH","1","27","1","1","0","0","false","",""
"image-keyboard-response","219","203713","0.0-3.0-6.0-1.0-1.27","5e0e502b2fc4785903ee9029","6662009ae78f21dd82fcd179","666207a3ddafc2d18a2ddbdd","null","","null","","","","","","","","./tasks/HMM-beads/Images/BlackBeadChoice.png","","","","","","","","","",""
"image-keyboard-response","220","204217","0.0-3.0-6.0-1.0-2.27","5e0e502b2fc4785903ee9029","6662009ae78f21dd82fcd179","666207a3ddafc2d18a2ddbdd","null","","null","","","","","","","","./tasks/HMM-beads/Images/BlackBeadChoiceWrong.png","","","","","","","","","",""
"image-keyboard-response","221","204492","0.0-3.0-6.0-1.0-0.28","5e0e502b2fc4785903ee9029","6662009ae78f21dd82fcd179","666207a3ddafc2d18a2ddbdd","270","","j","","","","","","","","./tasks/HMM-beads/Images/NewTrialWC.png","lowH","1","28","1","1","1","1","true","",""
"image-keyboard-response","222","204795","0.0-3.0-6.0-1.0-1.28","5e0e502b2fc4785903ee9029","6662009ae78f21dd82fcd179","666207a3ddafc2d18a2ddbdd","null","","null","","","","","","","","./tasks/HMM-beads/Images/WhiteBeadChoice.png","","","","","","","","","",""
"image-keyboard-response","223","205302","0.0-3.0-6.0-1.0-2.28","5e0e502b2fc4785903ee9029","6662009ae78f21dd82fcd179","666207a3ddafc2d18a2ddbdd","null","","null","","","","","","","","./tasks/HMM-beads/Images/WhiteBeadChoiceCorrect.png","","","","","","","","","",""
"image-keyboard-response","224","205544","0.0-3.0-6.0-1.0-0.29","5e0e502b2fc4785903ee9029","6662009ae78f21dd82fcd179","666207a3ddafc2d18a2ddbdd","241","","j","","","","","","","","./tasks/HMM-beads/Images/NewTrialWC.png","lowH","1","29","1","1","1","1","true","",""
"image-keyboard-response","225","205861","0.0-3.0-6.0-1.0-1.29","5e0e502b2fc4785903ee9029","6662009ae78f21dd82fcd179","666207a3ddafc2d18a2ddbdd","null","","null","","","","","","","","./tasks/HMM-beads/Images/WhiteBeadChoice.png","","","","","","","","","",""
"image-keyboard-response","226","206365","0.0-3.0-6.0-1.0-2.29","5e0e502b2fc4785903ee9029","6662009ae78f21dd82fcd179","666207a3ddafc2d18a2ddbdd","null","","null","","","","","","","","./tasks/HMM-beads/Images/WhiteBeadChoiceCorrect.png","","","","","","","","","",""
"image-keyboard-response","227","206489","0.0-3.0-6.0-1.0-0.30","5e0e502b2fc4785903ee9029","6662009ae78f21dd82fcd179","666207a3ddafc2d18a2ddbdd","123","","j","","","","","","","","./tasks/HMM-beads/Images/NewTrialWC.png","lowH","1","30","1","1","1","1","true","",""
"image-keyboard-response","228","206793","0.0-3.0-6.0-1.0-1.30","5e0e502b2fc4785903ee9029","6662009ae78f21dd82fcd179","666207a3ddafc2d18a2ddbdd","null","","null","","","","","","","","./tasks/HMM-beads/Images/WhiteBeadChoice.png","","","","","","","","","",""
"image-keyboard-response","229","207298","0.0-3.0-6.0-1.0-2.30","5e0e502b2fc4785903ee9029","6662009ae78f21dd82fcd179","666207a3ddafc2d18a2ddbdd","null","","null","","","","","","","","./tasks/HMM-beads/Images/WhiteBeadChoiceCorrect.png","","","","","","","","","",""
"image-keyboard-response","230","207541","0.0-3.0-6.0-1.0-0.31","5e0e502b2fc4785903ee9029","6662009ae78f21dd82fcd179","666207a3ddafc2d18a2ddbdd","243","","j","","","","","","","","./tasks/HMM-beads/Images/NewTrialWC.png","lowH","1","31","1","1","1","1","true","",""
"image-keyboard-response","231","207843","0.0-3.0-6.0-1.0-1.31","5e0e502b2fc4785903ee9029","6662009ae78f21dd82fcd179","666207a3ddafc2d18a2ddbdd","null","","null","","","","","","","","./tasks/HMM-beads/Images/WhiteBeadChoice.png","","","","","","","","","",""
"image-keyboard-response","232","208346","0.0-3.0-6.0-1.0-2.31","5e0e502b2fc4785903ee9029","6662009ae78f21dd82fcd179","666207a3ddafc2d18a2ddbdd","null","","null","","","","","","","","./tasks/HMM-beads/Images/WhiteBeadChoiceCorrect.png","","","","","","","","","",""
"image-keyboard-response","233","208712","0.0-3.0-6.0-1.0-0.32","5e0e502b2fc4785903ee9029","6662009ae78f21dd82fcd179","666207a3ddafc2d18a2ddbdd","365","","j","","","","","","","","./tasks/HMM-beads/Images/NewTrialWC.png","lowH","1","32","1","1","1","1","true","",""
"image-keyboard-response","234","209024","0.0-3.0-6.0-1.0-1.32","5e0e502b2fc4785903ee9029","6662009ae78f21dd82fcd179","666207a3ddafc2d18a2ddbdd","null","","null","","","","","","","","./tasks/HMM-beads/Images/WhiteBeadChoice.png","","","","","","","","","",""
"image-keyboard-response","235","209528","0.0-3.0-6.0-1.0-2.32","5e0e502b2fc4785903ee9029","6662009ae78f21dd82fcd179","666207a3ddafc2d18a2ddbdd","null","","null","","","","","","","","./tasks/HMM-beads/Images/WhiteBeadChoiceCorrect.png","","","","","","","","","",""
"image-keyboard-response","236","209710","0.0-3.0-6.0-1.0-0.33","5e0e502b2fc4785903ee9029","6662009ae78f21dd82fcd179","666207a3ddafc2d18a2ddbdd","181","","j","","","","","","","","./tasks/HMM-beads/Images/NewTrialWC.png","lowH","1","33","1","1","1","1","true","",""
"image-keyboard-response","237","210023","0.0-3.0-6.0-1.0-1.33","5e0e502b2fc4785903ee9029","6662009ae78f21dd82fcd179","666207a3ddafc2d18a2ddbdd","null","","null","","","","","","","","./tasks/HMM-beads/Images/WhiteBeadChoice.png","","","","","","","","","",""
"image-keyboard-response","238","210528","0.0-3.0-6.0-1.0-2.33","5e0e502b2fc4785903ee9029","6662009ae78f21dd82fcd179","666207a3ddafc2d18a2ddbdd","null","","null","","","","","","","","./tasks/HMM-beads/Images/WhiteBeadChoiceCorrect.png","","","","","","","","","",""
"image-keyboard-response","239","210775","0.0-3.0-6.0-1.0-0.34","5e0e502b2fc4785903ee9029","6662009ae78f21dd82fcd179","666207a3ddafc2d18a2ddbdd","247","","j","","","","","","","","./tasks/HMM-beads/Images/NewTrialWC.png","lowH","1","34","1","1","1","1","true","",""
"image-keyboard-response","240","211085","0.0-3.0-6.0-1.0-1.34","5e0e502b2fc4785903ee9029","6662009ae78f21dd82fcd179","666207a3ddafc2d18a2ddbdd","null","","null","","","","","","","","./tasks/HMM-beads/Images/WhiteBeadChoice.png","","","","","","","","","",""
"image-keyboard-response","241","211592","0.0-3.0-6.0-1.0-2.34","5e0e502b2fc4785903ee9029","6662009ae78f21dd82fcd179","666207a3ddafc2d18a2ddbdd","null","","null","","","","","","","","./tasks/HMM-beads/Images/WhiteBeadChoiceCorrect.png","","","","","","","","","",""
"image-keyboard-response","242","211698","0.0-3.0-6.0-1.0-0.35","5e0e502b2fc4785903ee9029","6662009ae78f21dd82fcd179","666207a3ddafc2d18a2ddbdd","104","","j","","","","","","","","./tasks/HMM-beads/Images/NewTrialWC.png","lowH","1","35","1","1","1","1","true","",""
"image-keyboard-response","243","212005","0.0-3.0-6.0-1.0-1.35","5e0e502b2fc4785903ee9029","6662009ae78f21dd82fcd179","666207a3ddafc2d18a2ddbdd","null","","null","","","","","","","","./tasks/HMM-beads/Images/WhiteBeadChoice.png","","","","","","","","","",""
"image-keyboard-response","244","212509","0.0-3.0-6.0-1.0-2.35","5e0e502b2fc4785903ee9029","6662009ae78f21dd82fcd179","666207a3ddafc2d18a2ddbdd","null","","null","","","","","","","","./tasks/HMM-beads/Images/WhiteBeadChoiceCorrect.png","","","","","","","","","",""
"image-keyboard-response","245","212539","0.0-3.0-6.0-1.0-0.36","5e0e502b2fc4785903ee9029","6662009ae78f21dd82fcd179","666207a3ddafc2d18a2ddbdd","29","","j","","","","","","","","./tasks/HMM-beads/Images/NewTrialWC.png","lowH","1","36","1","1","1","1","true","",""
"image-keyboard-response","246","212854","0.0-3.0-6.0-1.0-1.36","5e0e502b2fc4785903ee9029","6662009ae78f21dd82fcd179","666207a3ddafc2d18a2ddbdd","null","","null","","","","","","","","./tasks/HMM-beads/Images/WhiteBeadChoice.png","","","","","","","","","",""
"image-keyboard-response","247","213358","0.0-3.0-6.0-1.0-2.36","5e0e502b2fc4785903ee9029","6662009ae78f21dd82fcd179","666207a3ddafc2d18a2ddbdd","null","","null","","","","","","","","./tasks/HMM-beads/Images/WhiteBeadChoiceCorrect.png","","","","","","","","","",""
"image-keyboard-response","248","213409","0.0-3.0-6.0-1.0-0.37","5e0e502b2fc4785903ee9029","6662009ae78f21dd82fcd179","666207a3ddafc2d18a2ddbdd","51","","j","","","","","","","","./tasks/HMM-beads/Images/NewTrialWC.png","lowH","1","37","1","1","1","1","true","",""
"image-keyboard-response","249","213720","0.0-3.0-6.0-1.0-1.37","5e0e502b2fc4785903ee9029","6662009ae78f21dd82fcd179","666207a3ddafc2d18a2ddbdd","null","","null","","","","","","","","./tasks/HMM-beads/Images/WhiteBeadChoice.png","","","","","","","","","",""
"image-keyboard-response","250","214224","0.0-3.0-6.0-1.0-2.37","5e0e502b2fc4785903ee9029","6662009ae78f21dd82fcd179","666207a3ddafc2d18a2ddbdd","null","","null","","","","","","","","./tasks/HMM-beads/Images/WhiteBeadChoiceCorrect.png","","","","","","","","","",""
"image-keyboard-response","251","214580","0.0-3.0-6.0-1.0-0.38","5e0e502b2fc4785903ee9029","6662009ae78f21dd82fcd179","666207a3ddafc2d18a2ddbdd","355","","j","","","","","","","","./tasks/HMM-beads/Images/NewTrialWC.png","lowH","1","38","1","1","1","1","true","",""
"image-keyboard-response","252","214885","0.0-3.0-6.0-1.0-1.38","5e0e502b2fc4785903ee9029","6662009ae78f21dd82fcd179","666207a3ddafc2d18a2ddbdd","null","","null","","","","","","","","./tasks/HMM-beads/Images/WhiteBeadChoice.png","","","","","","","","","",""
"image-keyboard-response","253","215389","0.0-3.0-6.0-1.0-2.38","5e0e502b2fc4785903ee9029","6662009ae78f21dd82fcd179","666207a3ddafc2d18a2ddbdd","null","","null","","","","","","","","./tasks/HMM-beads/Images/WhiteBeadChoiceCorrect.png","","","","","","","","","",""
"image-keyboard-response","254","215554","0.0-3.0-6.0-1.0-0.39","5e0e502b2fc4785903ee9029","6662009ae78f21dd82fcd179","666207a3ddafc2d18a2ddbdd","164","","j","","","","","","","","./tasks/HMM-beads/Images/NewTrialWC.png","lowH","1","39","1","1","1","1","true","",""
"image-keyboard-response","255","215868","0.0-3.0-6.0-1.0-1.39","5e0e502b2fc4785903ee9029","6662009ae78f21dd82fcd179","666207a3ddafc2d18a2ddbdd","null","","null","","","","","","","","./tasks/HMM-beads/Images/WhiteBeadChoice.png","","","","","","","","","",""
"image-keyboard-response","256","216372","0.0-3.0-6.0-1.0-2.39","5e0e502b2fc4785903ee9029","6662009ae78f21dd82fcd179","666207a3ddafc2d18a2ddbdd","null","","null","","","","","","","","./tasks/HMM-beads/Images/WhiteBeadChoiceCorrect.png","","","","","","","","","",""
"image-keyboard-response","257","216504","0.0-3.0-6.0-1.0-0.40","5e0e502b2fc4785903ee9029","6662009ae78f21dd82fcd179","666207a3ddafc2d18a2ddbdd","131","","j","","","","","","","","./tasks/HMM-beads/Images/NewTrialWC.png","lowH","1","40","1","1","1","1","true","",""
"image-keyboard-response","258","216817","0.0-3.0-6.0-1.0-1.40","5e0e502b2fc4785903ee9029","6662009ae78f21dd82fcd179","666207a3ddafc2d18a2ddbdd","null","","null","","","","","","","","./tasks/HMM-beads/Images/WhiteBeadChoice.png","","","","","","","","","",""
"image-keyboard-response","259","217321","0.0-3.0-6.0-1.0-2.40","5e0e502b2fc4785903ee9029","6662009ae78f21dd82fcd179","666207a3ddafc2d18a2ddbdd","null","","null","","","","","","","","./tasks/HMM-beads/Images/WhiteBeadChoiceCorrect.png","","","","","","","","","",""
"image-keyboard-response","260","217556","0.0-3.0-6.0-1.0-0.41","5e0e502b2fc4785903ee9029","6662009ae78f21dd82fcd179","666207a3ddafc2d18a2ddbdd","234","","j","","","","","","","","./tasks/HMM-beads/Images/NewTrialWC.png","lowH","1","41","1","1","1","1","true","",""
"image-keyboard-response","261","217866","0.0-3.0-6.0-1.0-1.41","5e0e502b2fc4785903ee9029","6662009ae78f21dd82fcd179","666207a3ddafc2d18a2ddbdd","null","","null","","","","","","","","./tasks/HMM-beads/Images/WhiteBeadChoice.png","","","","","","","","","",""
"image-keyboard-response","262","218370","0.0-3.0-6.0-1.0-2.41","5e0e502b2fc4785903ee9029","6662009ae78f21dd82fcd179","666207a3ddafc2d18a2ddbdd","null","","null","","","","","","","","./tasks/HMM-beads/Images/WhiteBeadChoiceCorrect.png","","","","","","","","","",""
"image-keyboard-response","263","218540","0.0-3.0-6.0-1.0-0.42","5e0e502b2fc4785903ee9029","6662009ae78f21dd82fcd179","666207a3ddafc2d18a2ddbdd","169","","j","","","","","","","","./tasks/HMM-beads/Images/NewTrialWC.png","lowH","1","42","1","1","1","1","true","",""
"image-keyboard-response","264","218848","0.0-3.0-6.0-1.0-1.42","5e0e502b2fc4785903ee9029","6662009ae78f21dd82fcd179","666207a3ddafc2d18a2ddbdd","null","","null","","","","","","","","./tasks/HMM-beads/Images/WhiteBeadChoice.png","","","","","","","","","",""
"image-keyboard-response","265","219352","0.0-3.0-6.0-1.0-2.42","5e0e502b2fc4785903ee9029","6662009ae78f21dd82fcd179","666207a3ddafc2d18a2ddbdd","null","","null","","","","","","","","./tasks/HMM-beads/Images/WhiteBeadChoiceCorrect.png","","","","","","","","","",""
"image-keyboard-response","266","219617","0.0-3.0-6.0-1.0-0.43","5e0e502b2fc4785903ee9029","6662009ae78f21dd82fcd179","666207a3ddafc2d18a2ddbdd","264","","j","","","","","","","","./tasks/HMM-beads/Images/NewTrialWC.png","lowH","1","43","1","1","1","1","true","",""
"image-keyboard-response","267","219930","0.0-3.0-6.0-1.0-1.43","5e0e502b2fc4785903ee9029","6662009ae78f21dd82fcd179","666207a3ddafc2d18a2ddbdd","null","","null","","","","","","","","./tasks/HMM-beads/Images/WhiteBeadChoice.png","","","","","","","","","",""
"image-keyboard-response","268","220450","0.0-3.0-6.0-1.0-2.43","5e0e502b2fc4785903ee9029","6662009ae78f21dd82fcd179","666207a3ddafc2d18a2ddbdd","null","","null","","","","","","","","./tasks/HMM-beads/Images/WhiteBeadChoiceCorrect.png","","","","","","","","","",""
"image-keyboard-response","269","220810","0.0-3.0-6.0-1.0-0.44","5e0e502b2fc4785903ee9029","6662009ae78f21dd82fcd179","666207a3ddafc2d18a2ddbdd","359","","j","","","","","","","","./tasks/HMM-beads/Images/NewTrialWC.png","lowH","1","44","1","1","1","1","true","",""
"image-keyboard-response","270","221115","0.0-3.0-6.0-1.0-1.44","5e0e502b2fc4785903ee9029","6662009ae78f21dd82fcd179","666207a3ddafc2d18a2ddbdd","null","","null","","","","","","","","./tasks/HMM-beads/Images/WhiteBeadChoice.png","","","","","","","","","",""
"image-keyboard-response","271","221616","0.0-3.0-6.0-1.0-2.44","5e0e502b2fc4785903ee9029","6662009ae78f21dd82fcd179","666207a3ddafc2d18a2ddbdd","null","","null","","","","","","","","./tasks/HMM-beads/Images/WhiteBeadChoiceCorrect.png","","","","","","","","","",""
"image-keyboard-response","272","221752","0.0-3.0-6.0-1.0-0.45","5e0e502b2fc4785903ee9029","6662009ae78f21dd82fcd179","666207a3ddafc2d18a2ddbdd","135","","j","","","","","","","","./tasks/HMM-beads/Images/NewTrialWC.png","lowH","1","45","1","1","1","1","true","",""
"image-keyboard-response","273","222068","0.0-3.0-6.0-1.0-1.45","5e0e502b2fc4785903ee9029","6662009ae78f21dd82fcd179","666207a3ddafc2d18a2ddbdd","null","","null","","","","","","","","./tasks/HMM-beads/Images/WhiteBeadChoice.png","","","","","","","","","",""
"image-keyboard-response","274","222581","0.0-3.0-6.0-1.0-2.45","5e0e502b2fc4785903ee9029","6662009ae78f21dd82fcd179","666207a3ddafc2d18a2ddbdd","null","","null","","","","","","","","./tasks/HMM-beads/Images/WhiteBeadChoiceCorrect.png","","","","","","","","","",""
"image-keyboard-response","275","222613","0.0-3.0-6.0-1.0-0.46","5e0e502b2fc4785903ee9029","6662009ae78f21dd82fcd179","666207a3ddafc2d18a2ddbdd","31","","j","","","","","","","","./tasks/HMM-beads/Images/NewTrialWC.png","lowH","1","46","1","1","1","1","true","",""
"image-keyboard-response","276","222927","0.0-3.0-6.0-1.0-1.46","5e0e502b2fc4785903ee9029","6662009ae78f21dd82fcd179","666207a3ddafc2d18a2ddbdd","null","","null","","","","","","","","./tasks/HMM-beads/Images/WhiteBeadChoice.png","","","","","","","","","",""
"image-keyboard-response","277","223431","0.0-3.0-6.0-1.0-2.46","5e0e502b2fc4785903ee9029","6662009ae78f21dd82fcd179","666207a3ddafc2d18a2ddbdd","null","","null","","","","","","","","./tasks/HMM-beads/Images/WhiteBeadChoiceCorrect.png","","","","","","","","","",""
"image-keyboard-response","278","223627","0.0-3.0-6.0-1.0-0.47","5e0e502b2fc4785903ee9029","6662009ae78f21dd82fcd179","666207a3ddafc2d18a2ddbdd","195","","j","","","","","","","","./tasks/HMM-beads/Images/NewTrialWC.png","lowH","1","47","1","0","1","1","false","",""
"image-keyboard-response","279","223943","0.0-3.0-6.0-1.0-1.47","5e0e502b2fc4785903ee9029","6662009ae78f21dd82fcd179","666207a3ddafc2d18a2ddbdd","null","","null","","","","","","","","./tasks/HMM-beads/Images/WhiteBeadChoice.png","","","","","","","","","",""
"image-keyboard-response","280","224447","0.0-3.0-6.0-1.0-2.47","5e0e502b2fc4785903ee9029","6662009ae78f21dd82fcd179","666207a3ddafc2d18a2ddbdd","null","","null","","","","","","","","./tasks/HMM-beads/Images/WhiteBeadChoiceWrong.png","","","","","","","","","",""
"image-keyboard-response","281","224728","0.0-3.0-6.0-1.0-0.48","5e0e502b2fc4785903ee9029","6662009ae78f21dd82fcd179","666207a3ddafc2d18a2ddbdd","275","","j","","","","","","","","./tasks/HMM-beads/Images/NewTrialBC.png","lowH","1","48","1","0","0","1","false","",""
"image-keyboard-response","282","225042","0.0-3.0-6.0-1.0-1.48","5e0e502b2fc4785903ee9029","6662009ae78f21dd82fcd179","666207a3ddafc2d18a2ddbdd","null","","null","","","","","","","","./tasks/HMM-beads/Images/WhiteBeadChoice.png","","","","","","","","","",""
"image-keyboard-response","283","225546","0.0-3.0-6.0-1.0-2.48","5e0e502b2fc4785903ee9029","6662009ae78f21dd82fcd179","666207a3ddafc2d18a2ddbdd","null","","null","","","","","","","","./tasks/HMM-beads/Images/WhiteBeadChoiceWrong.png","","","","","","","","","",""
"image-keyboard-response","284","225766","0.0-3.0-6.0-1.0-0.49","5e0e502b2fc4785903ee9029","6662009ae78f21dd82fcd179","666207a3ddafc2d18a2ddbdd","219","","f","","","","","","","","./tasks/HMM-beads/Images/NewTrialBC.png","lowH","1","49","1","0","0","0","true","",""
"image-keyboard-response","285","226074","0.0-3.0-6.0-1.0-1.49","5e0e502b2fc4785903ee9029","6662009ae78f21dd82fcd179","666207a3ddafc2d18a2ddbdd","null","","null","","","","","","","","./tasks/HMM-beads/Images/BlackBeadChoice.png","","","","","","","","","",""
"image-keyboard-response","286","226578","0.0-3.0-6.0-1.0-2.49","5e0e502b2fc4785903ee9029","6662009ae78f21dd82fcd179","666207a3ddafc2d18a2ddbdd","null","","null","","","","","","","","./tasks/HMM-beads/Images/BlackBeadChoiceCorrect.png","","","","","","","","","",""
"image-keyboard-response","287","226739","0.0-3.0-6.0-1.0-0.50","5e0e502b2fc4785903ee9029","6662009ae78f21dd82fcd179","666207a3ddafc2d18a2ddbdd","160","","f","","","","","","","","./tasks/HMM-beads/Images/NewTrialBC.png","lowH","1","50","1","1","0","0","false","",""
"image-keyboard-response","288","227057","0.0-3.0-6.0-1.0-1.50","5e0e502b2fc4785903ee9029","6662009ae78f21dd82fcd179","666207a3ddafc2d18a2ddbdd","null","","null","","","","","","","","./tasks/HMM-beads/Images/BlackBeadChoice.png","","","","","","","","","",""
"image-keyboard-response","289","227561","0.0-3.0-6.0-1.0-2.50","5e0e502b2fc4785903ee9029","6662009ae78f21dd82fcd179","666207a3ddafc2d18a2ddbdd","null","","null","","","","","","","","./tasks/HMM-beads/Images/BlackBeadChoiceWrong.png","","","","","","","","","",""
"image-keyboard-response","290","227831","0.0-3.0-6.0-1.0-0.51","5e0e502b2fc4785903ee9029","6662009ae78f21dd82fcd179","666207a3ddafc2d18a2ddbdd","270","","f","","","","","","","","./tasks/HMM-beads/Images/NewTrialWC.png","lowH","1","51","1","1","1","0","false","",""
"image-keyboard-response","291","228139","0.0-3.0-6.0-1.0-1.51","5e0e502b2fc4785903ee9029","6662009ae78f21dd82fcd179","666207a3ddafc2d18a2ddbdd","null","","null","","","","","","","","./tasks/HMM-beads/Images/BlackBeadChoice.png","","","","","","","","","",""
"image-keyboard-response","292","228643","0.0-3.0-6.0-1.0-2.51","5e0e502b2fc4785903ee9029","6662009ae78f21dd82fcd179","666207a3ddafc2d18a2ddbdd","null","","null","","","","","","","","./tasks/HMM-beads/Images/BlackBeadChoiceWrong.png","","","","","","","","","",""
"image-keyboard-response","293","228830","0.0-3.0-6.0-1.0-0.52","5e0e502b2fc4785903ee9029","6662009ae78f21dd82fcd179","666207a3ddafc2d18a2ddbdd","186","","j","","","","","","","","./tasks/HMM-beads/Images/NewTrialWC.png","lowH","1","52","1","1","1","1","true","",""
"image-keyboard-response","294","229139","0.0-3.0-6.0-1.0-1.52","5e0e502b2fc4785903ee9029","6662009ae78f21dd82fcd179","666207a3ddafc2d18a2ddbdd","null","","null","","","","","","","","./tasks/HMM-beads/Images/WhiteBeadChoice.png","","","","","","","","","",""
"image-keyboard-response","295","229642","0.0-3.0-6.0-1.0-2.52","5e0e502b2fc4785903ee9029","6662009ae78f21dd82fcd179","666207a3ddafc2d18a2ddbdd","null","","null","","","","","","","","./tasks/HMM-beads/Images/WhiteBeadChoiceCorrect.png","","","","","","","","","",""
"image-keyboard-response","296","229774","0.0-3.0-6.0-1.0-0.53","5e0e502b2fc4785903ee9029","6662009ae78f21dd82fcd179","666207a3ddafc2d18a2ddbdd","131","","j","","","","","","","","./tasks/HMM-beads/Images/NewTrialWC.png","lowH","1","53","1","1","1","1","true","",""
"image-keyboard-response","297","230087","0.0-3.0-6.0-1.0-1.53","5e0e502b2fc4785903ee9029","6662009ae78f21dd82fcd179","666207a3ddafc2d18a2ddbdd","null","","null","","","","","","","","./tasks/HMM-beads/Images/WhiteBeadChoice.png","","","","","","","","","",""
"image-keyboard-response","298","230591","0.0-3.0-6.0-1.0-2.53","5e0e502b2fc4785903ee9029","6662009ae78f21dd82fcd179","666207a3ddafc2d18a2ddbdd","null","","null","","","","","","","","./tasks/HMM-beads/Images/WhiteBeadChoiceCorrect.png","","","","","","","","","",""
"image-keyboard-response","299","230640","0.0-3.0-6.0-1.0-0.54","5e0e502b2fc4785903ee9029","6662009ae78f21dd82fcd179","666207a3ddafc2d18a2ddbdd","48","","j","","","","","","","","./tasks/HMM-beads/Images/NewTrialWC.png","lowH","1","54","1","1","1","1","true","",""
"image-keyboard-response","300","230953","0.0-3.0-6.0-1.0-1.54","5e0e502b2fc4785903ee9029","6662009ae78f21dd82fcd179","666207a3ddafc2d18a2ddbdd","null","","null","","","","","","","","./tasks/HMM-beads/Images/WhiteBeadChoice.png","","","","","","","","","",""
"image-keyboard-response","301","231457","0.0-3.0-6.0-1.0-2.54","5e0e502b2fc4785903ee9029","6662009ae78f21dd82fcd179","666207a3ddafc2d18a2ddbdd","null","","null","","","","","","","","./tasks/HMM-beads/Images/WhiteBeadChoiceCorrect.png","","","","","","","","","",""
"image-keyboard-response","302","231537","0.0-3.0-6.0-1.0-0.55","5e0e502b2fc4785903ee9029","6662009ae78f21dd82fcd179","666207a3ddafc2d18a2ddbdd","80","","j","","","","","","","","./tasks/HMM-beads/Images/NewTrialWC.png","lowH","1","55","1","1","1","1","true","",""
"image-keyboard-response","303","231852","0.0-3.0-6.0-1.0-1.55","5e0e502b2fc4785903ee9029","6662009ae78f21dd82fcd179","666207a3ddafc2d18a2ddbdd","null","","null","","","","","","","","./tasks/HMM-beads/Images/WhiteBeadChoice.png","","","","","","","","","",""
"image-keyboard-response","304","232356","0.0-3.0-6.0-1.0-2.55","5e0e502b2fc4785903ee9029","6662009ae78f21dd82fcd179","666207a3ddafc2d18a2ddbdd","null","","null","","","","","","","","./tasks/HMM-beads/Images/WhiteBeadChoiceCorrect.png","","","","","","","","","",""
"image-keyboard-response","305","232750","0.0-3.0-6.0-1.0-0.56","5e0e502b2fc4785903ee9029","6662009ae78f21dd82fcd179","666207a3ddafc2d18a2ddbdd","393","","j","","","","","","","","./tasks/HMM-beads/Images/NewTrialWC.png","lowH","1","56","1","1","1","1","true","",""
"image-keyboard-response","306","233052","0.0-3.0-6.0-1.0-1.56","5e0e502b2fc4785903ee9029","6662009ae78f21dd82fcd179","666207a3ddafc2d18a2ddbdd","null","","null","","","","","","","","./tasks/HMM-beads/Images/WhiteBeadChoice.png","","","","","","","","","",""
"image-keyboard-response","307","233571","0.0-3.0-6.0-1.0-2.56","5e0e502b2fc4785903ee9029","6662009ae78f21dd82fcd179","666207a3ddafc2d18a2ddbdd","null","","null","","","","","","","","./tasks/HMM-beads/Images/WhiteBeadChoiceCorrect.png","","","","","","","","","",""
"image-keyboard-response","308","233758","0.0-3.0-6.0-1.0-0.57","5e0e502b2fc4785903ee9029","6662009ae78f21dd82fcd179","666207a3ddafc2d18a2ddbdd","186","","j","","","","","","","","./tasks/HMM-beads/Images/NewTrialWC.png","lowH","1","57","1","1","1","1","true","",""
"image-keyboard-response","309","234067","0.0-3.0-6.0-1.0-1.57","5e0e502b2fc4785903ee9029","6662009ae78f21dd82fcd179","666207a3ddafc2d18a2ddbdd","null","","null","","","","","","","","./tasks/HMM-beads/Images/WhiteBeadChoice.png","","","","","","","","","",""
"image-keyboard-response","310","234571","0.0-3.0-6.0-1.0-2.57","5e0e502b2fc4785903ee9029","6662009ae78f21dd82fcd179","666207a3ddafc2d18a2ddbdd","null","","null","","","","","","","","./tasks/HMM-beads/Images/WhiteBeadChoiceCorrect.png","","","","","","","","","",""
"image-keyboard-response","311","234722","0.0-3.0-6.0-1.0-0.58","5e0e502b2fc4785903ee9029","6662009ae78f21dd82fcd179","666207a3ddafc2d18a2ddbdd","150","","j","","","","","","","","./tasks/HMM-beads/Images/NewTrialWC.png","lowH","1","58","1","1","1","1","true","",""
"image-keyboard-response","312","235032","0.0-3.0-6.0-1.0-1.58","5e0e502b2fc4785903ee9029","6662009ae78f21dd82fcd179","666207a3ddafc2d18a2ddbdd","null","","null","","","","","","","","./tasks/HMM-beads/Images/WhiteBeadChoice.png","","","","","","","","","",""
"image-keyboard-response","313","235536","0.0-3.0-6.0-1.0-2.58","5e0e502b2fc4785903ee9029","6662009ae78f21dd82fcd179","666207a3ddafc2d18a2ddbdd","null","","null","","","","","","","","./tasks/HMM-beads/Images/WhiteBeadChoiceCorrect.png","","","","","","","","","",""
"image-keyboard-response","314","235681","0.0-3.0-6.0-1.0-0.59","5e0e502b2fc4785903ee9029","6662009ae78f21dd82fcd179","666207a3ddafc2d18a2ddbdd","144","","j","","","","","","","","./tasks/HMM-beads/Images/NewTrialWC.png","lowH","1","59","1","0","1","1","false","",""
"image-keyboard-response","315","235998","0.0-3.0-6.0-1.0-1.59","5e0e502b2fc4785903ee9029","6662009ae78f21dd82fcd179","666207a3ddafc2d18a2ddbdd","null","","null","","","","","","","","./tasks/HMM-beads/Images/WhiteBeadChoice.png","","","","","","","","","",""
"image-keyboard-response","316","236502","0.0-3.0-6.0-1.0-2.59","5e0e502b2fc4785903ee9029","6662009ae78f21dd82fcd179","666207a3ddafc2d18a2ddbdd","null","","null","","","","","","","","./tasks/HMM-beads/Images/WhiteBeadChoiceWrong.png","","","","","","","","","",""
"image-keyboard-response","317","236699","0.0-3.0-6.0-1.0-0.60","5e0e502b2fc4785903ee9029","6662009ae78f21dd82fcd179","666207a3ddafc2d18a2ddbdd","196","","j","","","","","","","","./tasks/HMM-beads/Images/NewTrialBC.png","lowH","1","60","1","1","0","1","true","",""
"image-keyboard-response","318","237014","0.0-3.0-6.0-1.0-1.60","5e0e502b2fc4785903ee9029","6662009ae78f21dd82fcd179","666207a3ddafc2d18a2ddbdd","null","","null","","","","","","","","./tasks/HMM-beads/Images/WhiteBeadChoice.png","","","","","","","","","",""
"image-keyboard-response","319","237517","0.0-3.0-6.0-1.0-2.60","5e0e502b2fc4785903ee9029","6662009ae78f21dd82fcd179","666207a3ddafc2d18a2ddbdd","null","","null","","","","","","","","./tasks/HMM-beads/Images/WhiteBeadChoiceCorrect.png","","","","","","","","","",""
"image-keyboard-response","320","237806","0.0-3.0-6.0-1.0-0.61","5e0e502b2fc4785903ee9029","6662009ae78f21dd82fcd179","666207a3ddafc2d18a2ddbdd","287","","j","","","","","","","","./tasks/HMM-beads/Images/NewTrialWC.png","lowH","1","61","1","1","1","1","true","",""
"image-keyboard-response","321","238113","0.0-3.0-6.0-1.0-1.61","5e0e502b2fc4785903ee9029","6662009ae78f21dd82fcd179","666207a3ddafc2d18a2ddbdd","null","","null","","","","","","","","./tasks/HMM-beads/Images/WhiteBeadChoice.png","","","","","","","","","",""
"image-keyboard-response","322","238617","0.0-3.0-6.0-1.0-2.61","5e0e502b2fc4785903ee9029","6662009ae78f21dd82fcd179","666207a3ddafc2d18a2ddbdd","null","","null","","","","","","","","./tasks/HMM-beads/Images/WhiteBeadChoiceCorrect.png","","","","","","","","","",""
"image-keyboard-response","323","238814","0.0-3.0-6.0-1.0-0.62","5e0e502b2fc4785903ee9029","6662009ae78f21dd82fcd179","666207a3ddafc2d18a2ddbdd","196","","j","","","","","","","","./tasks/HMM-beads/Images/NewTrialWC.png","lowH","1","62","1","0","1","1","false","",""
"image-keyboard-response","324","239128","0.0-3.0-6.0-1.0-1.62","5e0e502b2fc4785903ee9029","6662009ae78f21dd82fcd179","666207a3ddafc2d18a2ddbdd","null","","null","","","","","","","","./tasks/HMM-beads/Images/WhiteBeadChoice.png","","","","","","","","","",""
"image-keyboard-response","325","239632","0.0-3.0-6.0-1.0-2.62","5e0e502b2fc4785903ee9029","6662009ae78f21dd82fcd179","666207a3ddafc2d18a2ddbdd","null","","null","","","","","","","","./tasks/HMM-beads/Images/WhiteBeadChoiceWrong.png","","","","","","","","","",""
"image-keyboard-response","326","239822","0.0-3.0-6.0-1.0-0.63","5e0e502b2fc4785903ee9029","6662009ae78f21dd82fcd179","666207a3ddafc2d18a2ddbdd","189","","j","","","","","","","","./tasks/HMM-beads/Images/NewTrialBC.png","lowH","1","63","1","1","0","1","true","",""
"image-keyboard-response","327","240127","0.0-3.0-6.0-1.0-1.63","5e0e502b2fc4785903ee9029","6662009ae78f21dd82fcd179","666207a3ddafc2d18a2ddbdd","null","","null","","","","","","","","./tasks/HMM-beads/Images/WhiteBeadChoice.png","","","","","","","","","",""
"image-keyboard-response","328","240631","0.0-3.0-6.0-1.0-2.63","5e0e502b2fc4785903ee9029","6662009ae78f21dd82fcd179","666207a3ddafc2d18a2ddbdd","null","","null","","","","","","","","./tasks/HMM-beads/Images/WhiteBeadChoiceCorrect.png","","","","","","","","","",""
"image-keyboard-response","329","240870","0.0-3.0-6.0-1.0-0.64","5e0e502b2fc4785903ee9029","6662009ae78f21dd82fcd179","666207a3ddafc2d18a2ddbdd","237","","j","","","","","","","","./tasks/HMM-beads/Images/NewTrialWC.png","lowH","1","64","1","1","1","1","true","",""
"image-keyboard-response","330","241176","0.0-3.0-6.0-1.0-1.64","5e0e502b2fc4785903ee9029","6662009ae78f21dd82fcd179","666207a3ddafc2d18a2ddbdd","null","","null","","","","","","","","./tasks/HMM-beads/Images/WhiteBeadChoice.png","","","","","","","","","",""
"image-keyboard-response","331","241681","0.0-3.0-6.0-1.0-2.64","5e0e502b2fc4785903ee9029","6662009ae78f21dd82fcd179","666207a3ddafc2d18a2ddbdd","null","","null","","","","","","","","./tasks/HMM-beads/Images/WhiteBeadChoiceCorrect.png","","","","","","","","","",""
"image-keyboard-response","332","241831","0.0-3.0-6.0-1.0-0.65","5e0e502b2fc4785903ee9029","6662009ae78f21dd82fcd179","666207a3ddafc2d18a2ddbdd","149","","j","","","","","","","","./tasks/HMM-beads/Images/NewTrialWC.png","lowH","1","65","1","1","1","1","true","",""
"image-keyboard-response","333","242142","0.0-3.0-6.0-1.0-1.65","5e0e502b2fc4785903ee9029","6662009ae78f21dd82fcd179","666207a3ddafc2d18a2ddbdd","null","","null","","","","","","","","./tasks/HMM-beads/Images/WhiteBeadChoice.png","","","","","","","","","",""
"image-keyboard-response","334","242646","0.0-3.0-6.0-1.0-2.65","5e0e502b2fc4785903ee9029","6662009ae78f21dd82fcd179","666207a3ddafc2d18a2ddbdd","null","","null","","","","","","","","./tasks/HMM-beads/Images/WhiteBeadChoiceCorrect.png","","","","","","","","","",""
"image-keyboard-response","335","242724","0.0-3.0-6.0-1.0-0.66","5e0e502b2fc4785903ee9029","6662009ae78f21dd82fcd179","666207a3ddafc2d18a2ddbdd","77","","j","","","","","","","","./tasks/HMM-beads/Images/NewTrialWC.png","lowH","1","66","1","1","1","1","true","",""
"image-keyboard-response","336","243051","0.0-3.0-6.0-1.0-1.66","5e0e502b2fc4785903ee9029","6662009ae78f21dd82fcd179","666207a3ddafc2d18a2ddbdd","null","","null","","","","","","","","./tasks/HMM-beads/Images/WhiteBeadChoice.png","","","","","","","","","",""
"image-keyboard-response","337","243557","0.0-3.0-6.0-1.0-2.66","5e0e502b2fc4785903ee9029","6662009ae78f21dd82fcd179","666207a3ddafc2d18a2ddbdd","null","","null","","","","","","","","./tasks/HMM-beads/Images/WhiteBeadChoiceCorrect.png","","","","","","","","","",""
"image-keyboard-response","338","243739","0.0-3.0-6.0-1.0-0.67","5e0e502b2fc4785903ee9029","6662009ae78f21dd82fcd179","666207a3ddafc2d18a2ddbdd","181","","j","","","","","","","","./tasks/HMM-beads/Images/NewTrialWC.png","lowH","1","67","1","0","1","1","false","",""
"image-keyboard-response","339","244052","0.0-3.0-6.0-1.0-1.67","5e0e502b2fc4785903ee9029","6662009ae78f21dd82fcd179","666207a3ddafc2d18a2ddbdd","null","","null","","","","","","","","./tasks/HMM-beads/Images/WhiteBeadChoice.png","","","","","","","","","",""
"image-keyboard-response","340","244556","0.0-3.0-6.0-1.0-2.67","5e0e502b2fc4785903ee9029","6662009ae78f21dd82fcd179","666207a3ddafc2d18a2ddbdd","null","","null","","","","","","","","./tasks/HMM-beads/Images/WhiteBeadChoiceWrong.png","","","","","","","","","",""
"image-keyboard-response","341","244684","0.0-3.0-6.0-1.0-0.68","5e0e502b2fc4785903ee9029","6662009ae78f21dd82fcd179","666207a3ddafc2d18a2ddbdd","127","","j","","","","","","","","./tasks/HMM-beads/Images/NewTrialBC.png","lowH","1","68","1","1","0","1","true","",""
"image-keyboard-response","342","245001","0.0-3.0-6.0-1.0-1.68","5e0e502b2fc4785903ee9029","6662009ae78f21dd82fcd179","666207a3ddafc2d18a2ddbdd","null","","null","","","","","","","","./tasks/HMM-beads/Images/WhiteBeadChoice.png","","","","","","","","","",""
"image-keyboard-response","343","245505","0.0-3.0-6.0-1.0-2.68","5e0e502b2fc4785903ee9029","6662009ae78f21dd82fcd179","666207a3ddafc2d18a2ddbdd","null","","null","","","","","","","","./tasks/HMM-beads/Images/WhiteBeadChoiceCorrect.png","","","","","","","","","",""
"image-keyboard-response","344","245638","0.0-3.0-6.0-1.0-0.69","5e0e502b2fc4785903ee9029","6662009ae78f21dd82fcd179","666207a3ddafc2d18a2ddbdd","132","","j","","","","","","","","./tasks/HMM-beads/Images/NewTrialWC.png","lowH","1","69","0","1","1","1","true","",""
"image-keyboard-response","345","245950","0.0-3.0-6.0-1.0-1.69","5e0e502b2fc4785903ee9029","6662009ae78f21dd82fcd179","666207a3ddafc2d18a2ddbdd","null","","null","","","","","","","","./tasks/HMM-beads/Images/WhiteBeadChoice.png","","","","","","","","","",""
"image-keyboard-response","346","246470","0.0-3.0-6.0-1.0-2.69","5e0e502b2fc4785903ee9029","6662009ae78f21dd82fcd179","666207a3ddafc2d18a2ddbdd","null","","null","","","","","","","","./tasks/HMM-beads/Images/WhiteBeadChoiceCorrect.png","","","","","","","","","",""
"image-keyboard-response","347","246587","0.0-3.0-6.0-1.0-0.70","5e0e502b2fc4785903ee9029","6662009ae78f21dd82fcd179","666207a3ddafc2d18a2ddbdd","116","","j","","","","","","","","./tasks/HMM-beads/Images/NewTrialWC.png","lowH","1","70","0","1","1","1","true","",""
"image-keyboard-response","348","246899","0.0-3.0-6.0-1.0-1.70","5e0e502b2fc4785903ee9029","6662009ae78f21dd82fcd179","666207a3ddafc2d18a2ddbdd","null","","null","","","","","","","","./tasks/HMM-beads/Images/WhiteBeadChoice.png","","","","","","","","","",""
"image-keyboard-response","349","247403","0.0-3.0-6.0-1.0-2.70","5e0e502b2fc4785903ee9029","6662009ae78f21dd82fcd179","666207a3ddafc2d18a2ddbdd","null","","null","","","","","","","","./tasks/HMM-beads/Images/WhiteBeadChoiceCorrect.png","","","","","","","","","",""
"image-keyboard-response","350","247448","0.0-3.0-6.0-1.0-0.71","5e0e502b2fc4785903ee9029","6662009ae78f21dd82fcd179","666207a3ddafc2d18a2ddbdd","44","","j","","","","","","","","./tasks/HMM-beads/Images/NewTrialWC.png","lowH","1","71","0","0","1","1","false","",""
"image-keyboard-response","351","247765","0.0-3.0-6.0-1.0-1.71","5e0e502b2fc4785903ee9029","6662009ae78f21dd82fcd179","666207a3ddafc2d18a2ddbdd","null","","null","","","","","","","","./tasks/HMM-beads/Images/WhiteBeadChoice.png","","","","","","","","","",""
"image-keyboard-response","352","248269","0.0-3.0-6.0-1.0-2.71","5e0e502b2fc4785903ee9029","6662009ae78f21dd82fcd179","666207a3ddafc2d18a2ddbdd","null","","null","","","","","","","","./tasks/HMM-beads/Images/WhiteBeadChoiceWrong.png","","","","","","","","","",""
"image-keyboard-response","353","248431","0.0-3.0-6.0-1.0-0.72","5e0e502b2fc4785903ee9029","6662009ae78f21dd82fcd179","666207a3ddafc2d18a2ddbdd","161","","j","","","","","","","","./tasks/HMM-beads/Images/NewTrialBC.png","lowH","1","72","0","0","0","1","false","",""
"image-keyboard-response","354","248748","0.0-3.0-6.0-1.0-1.72","5e0e502b2fc4785903ee9029","6662009ae78f21dd82fcd179","666207a3ddafc2d18a2ddbdd","null","","null","","","","","","","","./tasks/HMM-beads/Images/WhiteBeadChoice.png","","","","","","","","","",""
"image-keyboard-response","355","249251","0.0-3.0-6.0-1.0-2.72","5e0e502b2fc4785903ee9029","6662009ae78f21dd82fcd179","666207a3ddafc2d18a2ddbdd","null","","null","","","","","","","","./tasks/HMM-beads/Images/WhiteBeadChoiceWrong.png","","","","","","","","","",""
"image-keyboard-response","356","249469","0.0-3.0-6.0-1.0-0.73","5e0e502b2fc4785903ee9029","6662009ae78f21dd82fcd179","666207a3ddafc2d18a2ddbdd","217","","f","","","","","","","","./tasks/HMM-beads/Images/NewTrialBC.png","lowH","1","73","0","1","0","0","false","",""
"image-keyboard-response","357","249780","0.0-3.0-6.0-1.0-1.73","5e0e502b2fc4785903ee9029","6662009ae78f21dd82fcd179","666207a3ddafc2d18a2ddbdd","null","","null","","","","","","","","./tasks/HMM-beads/Images/BlackBeadChoice.png","","","","","","","","","",""
"image-keyboard-response","358","250284","0.0-3.0-6.0-1.0-2.73","5e0e502b2fc4785903ee9029","6662009ae78f21dd82fcd179","666207a3ddafc2d18a2ddbdd","null","","null","","","","","","","","./tasks/HMM-beads/Images/BlackBeadChoiceWrong.png","","","","","","","","","",""
"image-keyboard-response","359","250345","0.0-3.0-6.0-1.0-0.74","5e0e502b2fc4785903ee9029","6662009ae78f21dd82fcd179","666207a3ddafc2d18a2ddbdd","60","","j","","","","","","","","./tasks/HMM-beads/Images/NewTrialWC.png","lowH","1","74","0","0","1","1","false","",""
"image-keyboard-response","360","250661","0.0-3.0-6.0-1.0-1.74","5e0e502b2fc4785903ee9029","6662009ae78f21dd82fcd179","666207a3ddafc2d18a2ddbdd","null","","null","","","","","","","","./tasks/HMM-beads/Images/WhiteBeadChoice.png","","","","","","","","","",""
"image-keyboard-response","361","251166","0.0-3.0-6.0-1.0-2.74","5e0e502b2fc4785903ee9029","6662009ae78f21dd82fcd179","666207a3ddafc2d18a2ddbdd","null","","null","","","","","","","","./tasks/HMM-beads/Images/WhiteBeadChoiceWrong.png","","","","","","","","","",""
"image-keyboard-response","362","251363","0.0-3.0-6.0-1.0-0.75","5e0e502b2fc4785903ee9029","6662009ae78f21dd82fcd179","666207a3ddafc2d18a2ddbdd","195","","j","","","","","","","","./tasks/HMM-beads/Images/NewTrialBC.png","lowH","1","75","0","1","0","1","true","",""
"image-keyboard-response","363","251677","0.0-3.0-6.0-1.0-1.75","5e0e502b2fc4785903ee9029","6662009ae78f21dd82fcd179","666207a3ddafc2d18a2ddbdd","null","","null","","","","","","","","./tasks/HMM-beads/Images/WhiteBeadChoice.png","","","","","","","","","",""
"image-keyboard-response","364","252182","0.0-3.0-6.0-1.0-2.75","5e0e502b2fc4785903ee9029","6662009ae78f21dd82fcd179","666207a3ddafc2d18a2ddbdd","null","","null","","","","","","","","./tasks/HMM-beads/Images/WhiteBeadChoiceCorrect.png","","","","","","","","","",""
"image-keyboard-response","365","252339","0.0-3.0-6.0-1.0-0.76","5e0e502b2fc4785903ee9029","6662009ae78f21dd82fcd179","666207a3ddafc2d18a2ddbdd","156","","j","","","","","","","","./tasks/HMM-beads/Images/NewTrialWC.png","lowH","1","76","0","1","1","1","true","",""
"image-keyboard-response","366","252644","0.0-3.0-6.0-1.0-1.76","5e0e502b2fc4785903ee9029","6662009ae78f21dd82fcd179","666207a3ddafc2d18a2ddbdd","null","","null","","","","","","","","./tasks/HMM-beads/Images/WhiteBeadChoice.png","","","","","","","","","",""
"image-keyboard-response","367","253147","0.0-3.0-6.0-1.0-2.76","5e0e502b2fc4785903ee9029","6662009ae78f21dd82fcd179","666207a3ddafc2d18a2ddbdd","null","","null","","","","","","","","./tasks/HMM-beads/Images/WhiteBeadChoiceCorrect.png","","","","","","","","","",""
"image-keyboard-response","368","253296","0.0-3.0-6.0-1.0-0.77","5e0e502b2fc4785903ee9029","6662009ae78f21dd82fcd179","666207a3ddafc2d18a2ddbdd","147","","j","","","","","","","","./tasks/HMM-beads/Images/NewTrialWC.png","lowH","1","77","0","0","1","1","false","",""
"image-keyboard-response","369","253609","0.0-3.0-6.0-1.0-1.77","5e0e502b2fc4785903ee9029","6662009ae78f21dd82fcd179","666207a3ddafc2d18a2ddbdd","null","","null","","","","","","","","./tasks/HMM-beads/Images/WhiteBeadChoice.png","","","","","","","","","",""
"image-keyboard-response","370","254113","0.0-3.0-6.0-1.0-2.77","5e0e502b2fc4785903ee9029","6662009ae78f21dd82fcd179","666207a3ddafc2d18a2ddbdd","null","","null","","","","","","","","./tasks/HMM-beads/Images/WhiteBeadChoiceWrong.png","","","","","","","","","",""
"image-keyboard-response","371","254231","0.0-3.0-6.0-1.0-0.78","5e0e502b2fc4785903ee9029","6662009ae78f21dd82fcd179","666207a3ddafc2d18a2ddbdd","117","","j","","","","","","","","./tasks/HMM-beads/Images/NewTrialBC.png","lowH","1","78","0","0","0","1","false","",""
"image-keyboard-response","372","254542","0.0-3.0-6.0-1.0-1.78","5e0e502b2fc4785903ee9029","6662009ae78f21dd82fcd179","666207a3ddafc2d18a2ddbdd","null","","null","","","","","","","","./tasks/HMM-beads/Images/WhiteBeadChoice.png","","","","","","","","","",""
"image-keyboard-response","373","255046","0.0-3.0-6.0-1.0-2.78","5e0e502b2fc4785903ee9029","6662009ae78f21dd82fcd179","666207a3ddafc2d18a2ddbdd","null","","null","","","","","","","","./tasks/HMM-beads/Images/WhiteBeadChoiceWrong.png","","","","","","","","","",""
"image-keyboard-response","374","255215","0.0-3.0-6.0-1.0-0.79","5e0e502b2fc4785903ee9029","6662009ae78f21dd82fcd179","666207a3ddafc2d18a2ddbdd","168","","j","","","","","","","","./tasks/HMM-beads/Images/NewTrialBC.png","lowH","1","79","0","0","0","1","false","",""
