"trial_type","trial_index","time_elapsed","internal_node_id","subject_id","study_id","session_id","rt","url","response","question_order","view_history","success","timeout","failed_images","failed_audio","failed_video","stimulus","block","block_rep","trial_number","jar","bead","previous_bead","choice","correct","lowH_score","total_bonus"
"pavlovia","0","1301","0.0-0.0","63ea74a7e00a26d45e75244c","6662009ae78f21dd82fcd179","66620b2d7e85da88b17d64d0","","","","","","","","","","","","","","","","","","","","",""
"external-html","1","8630","0.0-1.0-0.0","63ea74a7e00a26d45e75244c","6662009ae78f21dd82fcd179","66620b2d7e85da88b17d64d0","7191","new_consent.html","","","","","","","","","","","","","","","","","","",""
"survey-multi-choice","2","27363","0.0-1.0-1.0","63ea74a7e00a26d45e75244c","6662009ae78f21dd82fcd179","66620b2d7e85da88b17d64d0","18730","","{""Q0"":""Non-binary"",""Q1"":""Black or African American""}","[0,1]","","","","","","","","","","","","","","","","",""
"survey-text","3","31556","0.0-1.0-2.0","63ea74a7e00a26d45e75244c","6662009ae78f21dd82fcd179","66620b2d7e85da88b17d64d0","4190","","{""Q0"":""19""}","","","","","","","","","","","","","","","","","",""
"instructions","4","33273","0.0-2.0","63ea74a7e00a26d45e75244c","6662009ae78f21dd82fcd179","66620b2d7e85da88b17d64d0","1613","","","","[{""page_index"":0,""viewing_time"":1613}]","","","","","","","","","","","","","","","",""
"preload","5","34518","0.0-3.0-0.0","63ea74a7e00a26d45e75244c","6662009ae78f21dd82fcd179","66620b2d7e85da88b17d64d0","","","","","","true","false","[]","[]","[]","","","","","","","","","","",""
"instructions","6","618868","0.0-3.0-1.0","63ea74a7e00a26d45e75244c","6662009ae78f21dd82fcd179","66620b2d7e85da88b17d64d0","584348","","","","[{""page_index"":0,""viewing_time"":383085},{""page_index"":1,""viewing_time"":7267},{""page_index"":2,""viewing_time"":3026},{""page_index"":3,""viewing_time"":3523},{""page_index"":4,""viewing_time"":11656},{""page_index"":3,""viewing_time"":6266},{""page_index"":4,""viewing_time"":7969},{""page_index"":5,""viewing_time"":112782},{""page_index"":6,""viewing_time"":7963},{""page_index"":7,""viewing_time"":8379},{""page_index"":8,""viewing_time"":3470},{""page_index"":9,""viewing_time"":7268},{""page_index"":10,""viewing_time"":15936},{""page_index"":11,""viewing_time"":5758}]","","","","","","","","","","","","","","","",""
"html-button-response","7","624657","0.0-3.0-2.0-0.0-0.0","63ea74a7e00a26d45e75244c","6662009ae78f21dd82fcd179","66620b2d7e85da88b17d64d0","5789","","2","","","","","","","","<div align=center>Your goal is to predict…?<br><br></div>","","","","","","","","","",""
"html-button-response","8","627302","0.0-3.0-2.0-0.1-0.1","63ea74a7e00a26d45e75244c","6662009ae78f21dd82fcd179","66620b2d7e85da88b17d64d0","1263","","1","","","","","","","","<div align=center>Your goal is to predict…?<br><br></div>","","","","","","","","","",""
"html-button-response","9","636022","0.0-3.0-2.0-1.0-0.0","63ea74a7e00a26d45e75244c","6662009ae78f21dd82fcd179","66620b2d7e85da88b17d64d0","5836","","2","","","","","","","","<div align=center>In the jar with mostly white beads, there are ___% white beads and ___% black beads?<br><br></div>","","","","","","","","","",""
"html-button-response","10","645572","0.0-3.0-2.0-2.0-0.0","63ea74a7e00a26d45e75244c","6662009ae78f21dd82fcd179","66620b2d7e85da88b17d64d0","8019","","1","","","","","","","","<div align=center>When there is a 1% probability that the jars will switch, the next bead will most likely be drawn from the…<br><br></div>","","","","","","","","","",""
"html-button-response","11","647966","0.0-3.0-2.0-2.1-0.1","63ea74a7e00a26d45e75244c","6662009ae78f21dd82fcd179","66620b2d7e85da88b17d64d0","1102","","0","","","","","","","","<div align=center>When there is a 1% probability that the jars will switch, the next bead will most likely be drawn from the…<br><br></div>","","","","","","","","","",""
"html-button-response","12","652670","0.0-3.0-2.0-3.0-0.0","63ea74a7e00a26d45e75244c","6662009ae78f21dd82fcd179","66620b2d7e85da88b17d64d0","3710","","1","","","","","","","","<div align=center>When there is a 99% probability that the jars will switch, the next bead will most likely be drawn from the…<br><br></div>","","","","","","","","","",""
"instructions","13","663318","0.0-3.0-3.0","63ea74a7e00a26d45e75244c","6662009ae78f21dd82fcd179","66620b2d7e85da88b17d64d0","9347","","","","[{""page_index"":0,""viewing_time"":9347}]","","","","","","","","","","","","","","","",""
"html-keyboard-response","14","671292","0.0-3.0-4.0-0.0","63ea74a7e00a26d45e75244c","6662009ae78f21dd82fcd179","66620b2d7e85da88b17d64d0","7975",""," ","","","","","","","","<div align=center>In this practice block, there will be a <b>1% chance</b> that the jar on the next trial will be different from the jar on the current trial.<br><br></div>","","","","","","","","","",""
"image-keyboard-response","15","678476","0.0-3.0-4.0-1.0-0.0","63ea74a7e00a26d45e75244c","6662009ae78f21dd82fcd179","66620b2d7e85da88b17d64d0","7177","","j","","","","","","","","./tasks/HMM-beads/Images/NoChoice.png","practice","0","0","0","0","9","1","false","",""
"image-keyboard-response","16","678795","0.0-3.0-4.0-1.0-1.0","63ea74a7e00a26d45e75244c","6662009ae78f21dd82fcd179","66620b2d7e85da88b17d64d0","null","","null","","","","","","","","./tasks/HMM-beads/Images/WhiteBeadChoice.png","","","","","","","","","",""
"image-keyboard-response","17","679301","0.0-3.0-4.0-1.0-2.0","63ea74a7e00a26d45e75244c","6662009ae78f21dd82fcd179","66620b2d7e85da88b17d64d0","null","","null","","","","","","","","./tasks/HMM-beads/Images/WhiteBeadChoiceWrong.png","","","","","","","","","",""
"image-keyboard-response","18","685012","0.0-3.0-4.0-1.0-0.1","63ea74a7e00a26d45e75244c","6662009ae78f21dd82fcd179","66620b2d7e85da88b17d64d0","5705","","f","","","","","","","","./tasks/HMM-beads/Images/NewTrialBC.png","practice","0","1","0","0","0","0","true","",""
"image-keyboard-response","19","685326","0.0-3.0-4.0-1.0-1.1","63ea74a7e00a26d45e75244c","6662009ae78f21dd82fcd179","66620b2d7e85da88b17d64d0","null","","null","","","","","","","","./tasks/HMM-beads/Images/BlackBeadChoice.png","","","","","","","","","",""
"image-keyboard-response","20","685840","0.0-3.0-4.0-1.0-2.1","63ea74a7e00a26d45e75244c","6662009ae78f21dd82fcd179","66620b2d7e85da88b17d64d0","null","","null","","","","","","","","./tasks/HMM-beads/Images/BlackBeadChoiceCorrect.png","","","","","","","","","",""
"image-keyboard-response","21","689396","0.0-3.0-4.0-1.0-0.2","63ea74a7e00a26d45e75244c","6662009ae78f21dd82fcd179","66620b2d7e85da88b17d64d0","3555","","f","","","","","","","","./tasks/HMM-beads/Images/NewTrialBC.png","practice","0","2","0","1","0","0","false","",""
"image-keyboard-response","22","689700","0.0-3.0-4.0-1.0-1.2","63ea74a7e00a26d45e75244c","6662009ae78f21dd82fcd179","66620b2d7e85da88b17d64d0","null","","null","","","","","","","","./tasks/HMM-beads/Images/BlackBeadChoice.png","","","","","","","","","",""
"image-keyboard-response","23","690212","0.0-3.0-4.0-1.0-2.2","63ea74a7e00a26d45e75244c","6662009ae78f21dd82fcd179","66620b2d7e85da88b17d64d0","null","","null","","","","","","","","./tasks/HMM-beads/Images/BlackBeadChoiceWrong.png","","","","","","","","","",""
"image-keyboard-response","24","692164","0.0-3.0-4.0-1.0-0.3","63ea74a7e00a26d45e75244c","6662009ae78f21dd82fcd179","66620b2d7e85da88b17d64d0","1948","","j","","","","","","","","./tasks/HMM-beads/Images/NewTrialWC.png","practice","0","3","0","0","1","1","false","",""
"image-keyboard-response","25","692474","0.0-3.0-4.0-1.0-1.3","63ea74a7e00a26d45e75244c","6662009ae78f21dd82fcd179","66620b2d7e85da88b17d64d0","null","","null","","","","","","","","./tasks/HMM-beads/Images/WhiteBeadChoice.png","","","","","","","","","",""
"image-keyboard-response","26","692979","0.0-3.0-4.0-1.0-2.3","63ea74a7e00a26d45e75244c","6662009ae78f21dd82fcd179","66620b2d7e85da88b17d64d0","null","","null","","","","","","","","./tasks/HMM-beads/Images/WhiteBeadChoiceWrong.png","","","","","","","","","",""
"image-keyboard-response","27","694092","0.0-3.0-4.0-1.0-0.4","63ea74a7e00a26d45e75244c","6662009ae78f21dd82fcd179","66620b2d7e85da88b17d64d0","1112","","f","","","","","","","","./tasks/HMM-beads/Images/NewTrialBC.png","practice","0","4","0","0","0","0","true","",""
"image-keyboard-response","28","694406","0.0-3.0-4.0-1.0-1.4","63ea74a7e00a26d45e75244c","6662009ae78f21dd82fcd179","66620b2d7e85da88b17d64d0","null","","null","","","","","","","","./tasks/HMM-beads/Images/BlackBeadChoice.png","","","","","","","","","",""
"image-keyboard-response","29","694911","0.0-3.0-4.0-1.0-2.4","63ea74a7e00a26d45e75244c","6662009ae78f21dd82fcd179","66620b2d7e85da88b17d64d0","null","","null","","","","","","","","./tasks/HMM-beads/Images/BlackBeadChoiceCorrect.png","","","","","","","","","",""
"image-keyboard-response","30","698668","0.0-3.0-4.0-1.0-0.5","63ea74a7e00a26d45e75244c","6662009ae78f21dd82fcd179","66620b2d7e85da88b17d64d0","3756","","f","","","","","","","","./tasks/HMM-beads/Images/NewTrialBC.png","practice","0","5","0","1","0","0","false","",""
"image-keyboard-response","31","698980","0.0-3.0-4.0-1.0-1.5","63ea74a7e00a26d45e75244c","6662009ae78f21dd82fcd179","66620b2d7e85da88b17d64d0","null","","null","","","","","","","","./tasks/HMM-beads/Images/BlackBeadChoice.png","","","","","","","","","",""
"image-keyboard-response","32","699488","0.0-3.0-4.0-1.0-2.5","63ea74a7e00a26d45e75244c","6662009ae78f21dd82fcd179","66620b2d7e85da88b17d64d0","null","","null","","","","","","","","./tasks/HMM-beads/Images/BlackBeadChoiceWrong.png","","","","","","","","","",""
"image-keyboard-response","33","700772","0.0-3.0-4.0-1.0-0.6","63ea74a7e00a26d45e75244c","6662009ae78f21dd82fcd179","66620b2d7e85da88b17d64d0","1284","","j","","","","","","","","./tasks/HMM-beads/Images/NewTrialWC.png","practice","0","6","0","0","1","1","false","",""
"image-keyboard-response","34","701077","0.0-3.0-4.0-1.0-1.6","63ea74a7e00a26d45e75244c","6662009ae78f21dd82fcd179","66620b2d7e85da88b17d64d0","null","","null","","","","","","","","./tasks/HMM-beads/Images/WhiteBeadChoice.png","","","","","","","","","",""
"image-keyboard-response","35","701585","0.0-3.0-4.0-1.0-2.6","63ea74a7e00a26d45e75244c","6662009ae78f21dd82fcd179","66620b2d7e85da88b17d64d0","null","","null","","","","","","","","./tasks/HMM-beads/Images/WhiteBeadChoiceWrong.png","","","","","","","","","",""
"image-keyboard-response","36","702740","0.0-3.0-4.0-1.0-0.7","63ea74a7e00a26d45e75244c","6662009ae78f21dd82fcd179","66620b2d7e85da88b17d64d0","1155","","f","","","","","","","","./tasks/HMM-beads/Images/NewTrialBC.png","practice","0","7","0","0","0","0","true","",""
"image-keyboard-response","37","703057","0.0-3.0-4.0-1.0-1.7","63ea74a7e00a26d45e75244c","6662009ae78f21dd82fcd179","66620b2d7e85da88b17d64d0","null","","null","","","","","","","","./tasks/HMM-beads/Images/BlackBeadChoice.png","","","","","","","","","",""
"image-keyboard-response","38","703561","0.0-3.0-4.0-1.0-2.7","63ea74a7e00a26d45e75244c","6662009ae78f21dd82fcd179","66620b2d7e85da88b17d64d0","null","","null","","","","","","","","./tasks/HMM-beads/Images/BlackBeadChoiceCorrect.png","","","","","","","","","",""
"image-keyboard-response","39","704420","0.0-3.0-4.0-1.0-0.8","63ea74a7e00a26d45e75244c","6662009ae78f21dd82fcd179","66620b2d7e85da88b17d64d0","859","","j","","","","","","","","./tasks/HMM-beads/Images/NewTrialBC.png","practice","0","8","0","0","0","1","false","",""
"image-keyboard-response","40","704728","0.0-3.0-4.0-1.0-1.8","63ea74a7e00a26d45e75244c","6662009ae78f21dd82fcd179","66620b2d7e85da88b17d64d0","null","","null","","","","","","","","./tasks/HMM-beads/Images/WhiteBeadChoice.png","","","","","","","","","",""
"image-keyboard-response","41","705233","0.0-3.0-4.0-1.0-2.8","63ea74a7e00a26d45e75244c","6662009ae78f21dd82fcd179","66620b2d7e85da88b17d64d0","null","","null","","","","","","","","./tasks/HMM-beads/Images/WhiteBeadChoiceWrong.png","","","","","","","","","",""
"image-keyboard-response","42","707459","0.0-3.0-4.0-1.0-0.9","63ea74a7e00a26d45e75244c","6662009ae78f21dd82fcd179","66620b2d7e85da88b17d64d0","2225","","f","","","","","","","","./tasks/HMM-beads/Images/NewTrialBC.png","practice","0","9","0","1","0","0","false","",""
"image-keyboard-response","43","707761","0.0-3.0-4.0-1.0-1.9","63ea74a7e00a26d45e75244c","6662009ae78f21dd82fcd179","66620b2d7e85da88b17d64d0","null","","null","","","","","","","","./tasks/HMM-beads/Images/BlackBeadChoice.png","","","","","","","","","",""
"image-keyboard-response","44","708265","0.0-3.0-4.0-1.0-2.9","63ea74a7e00a26d45e75244c","6662009ae78f21dd82fcd179","66620b2d7e85da88b17d64d0","null","","null","","","","","","","","./tasks/HMM-beads/Images/BlackBeadChoiceWrong.png","","","","","","","","","",""
"image-keyboard-response","45","709028","0.0-3.0-4.0-1.0-0.10","63ea74a7e00a26d45e75244c","6662009ae78f21dd82fcd179","66620b2d7e85da88b17d64d0","763","","j","","","","","","","","./tasks/HMM-beads/Images/NewTrialWC.png","practice","0","10","0","0","1","1","false","",""
"image-keyboard-response","46","709342","0.0-3.0-4.0-1.0-1.10","63ea74a7e00a26d45e75244c","6662009ae78f21dd82fcd179","66620b2d7e85da88b17d64d0","null","","null","","","","","","","","./tasks/HMM-beads/Images/WhiteBeadChoice.png","","","","","","","","","",""
"image-keyboard-response","47","709860","0.0-3.0-4.0-1.0-2.10","63ea74a7e00a26d45e75244c","6662009ae78f21dd82fcd179","66620b2d7e85da88b17d64d0","null","","null","","","","","","","","./tasks/HMM-beads/Images/WhiteBeadChoiceWrong.png","","","","","","","","","",""
"image-keyboard-response","48","711580","0.0-3.0-4.0-1.0-0.11","63ea74a7e00a26d45e75244c","6662009ae78f21dd82fcd179","66620b2d7e85da88b17d64d0","1721","","f","","","","","","","","./tasks/HMM-beads/Images/NewTrialBC.png","practice","0","11","0","1","0","0","false","",""
"image-keyboard-response","49","711891","0.0-3.0-4.0-1.0-1.11","63ea74a7e00a26d45e75244c","6662009ae78f21dd82fcd179","66620b2d7e85da88b17d64d0","null","","null","","","","","","","","./tasks/HMM-beads/Images/BlackBeadChoice.png","","","","","","","","","",""
"image-keyboard-response","50","712414","0.0-3.0-4.0-1.0-2.11","63ea74a7e00a26d45e75244c","6662009ae78f21dd82fcd179","66620b2d7e85da88b17d64d0","null","","null","","","","","","","","./tasks/HMM-beads/Images/BlackBeadChoiceWrong.png","","","","","","","","","",""
"image-keyboard-response","51","713124","0.0-3.0-4.0-1.0-0.12","63ea74a7e00a26d45e75244c","6662009ae78f21dd82fcd179","66620b2d7e85da88b17d64d0","710","","j","","","","","","","","./tasks/HMM-beads/Images/NewTrialWC.png","practice","0","12","0","0","1","1","false","",""
"image-keyboard-response","52","713427","0.0-3.0-4.0-1.0-1.12","63ea74a7e00a26d45e75244c","6662009ae78f21dd82fcd179","66620b2d7e85da88b17d64d0","null","","null","","","","","","","","./tasks/HMM-beads/Images/WhiteBeadChoice.png","","","","","","","","","",""
"image-keyboard-response","53","713931","0.0-3.0-4.0-1.0-2.12","63ea74a7e00a26d45e75244c","6662009ae78f21dd82fcd179","66620b2d7e85da88b17d64d0","null","","null","","","","","","","","./tasks/HMM-beads/Images/WhiteBeadChoiceWrong.png","","","","","","","","","",""
"image-keyboard-response","54","717284","0.0-3.0-4.0-1.0-0.13","63ea74a7e00a26d45e75244c","6662009ae78f21dd82fcd179","66620b2d7e85da88b17d64d0","3351","","j","","","","","","","","./tasks/HMM-beads/Images/NewTrialBC.png","practice","0","13","0","0","0","1","false","",""
"image-keyboard-response","55","717594","0.0-3.0-4.0-1.0-1.13","63ea74a7e00a26d45e75244c","6662009ae78f21dd82fcd179","66620b2d7e85da88b17d64d0","null","","null","","","","","","","","./tasks/HMM-beads/Images/WhiteBeadChoice.png","","","","","","","","","",""
"image-keyboard-response","56","718100","0.0-3.0-4.0-1.0-2.13","63ea74a7e00a26d45e75244c","6662009ae78f21dd82fcd179","66620b2d7e85da88b17d64d0","null","","null","","","","","","","","./tasks/HMM-beads/Images/WhiteBeadChoiceWrong.png","","","","","","","","","",""
"image-keyboard-response","57","718420","0.0-3.0-4.0-1.0-0.14","63ea74a7e00a26d45e75244c","6662009ae78f21dd82fcd179","66620b2d7e85da88b17d64d0","319","","f","","","","","","","","./tasks/HMM-beads/Images/NewTrialBC.png","practice","0","14","0","0","0","0","true","",""
"image-keyboard-response","58","718722","0.0-3.0-4.0-1.0-1.14","63ea74a7e00a26d45e75244c","6662009ae78f21dd82fcd179","66620b2d7e85da88b17d64d0","null","","null","","","","","","","","./tasks/HMM-beads/Images/BlackBeadChoice.png","","","","","","","","","",""
"image-keyboard-response","59","719235","0.0-3.0-4.0-1.0-2.14","63ea74a7e00a26d45e75244c","6662009ae78f21dd82fcd179","66620b2d7e85da88b17d64d0","null","","null","","","","","","","","./tasks/HMM-beads/Images/BlackBeadChoiceCorrect.png","","","","","","","","","",""
"image-keyboard-response","60","720236","0.0-3.0-4.0-1.0-0.15","63ea74a7e00a26d45e75244c","6662009ae78f21dd82fcd179","66620b2d7e85da88b17d64d0","1001","","f","","","","","","","","./tasks/HMM-beads/Images/NewTrialBC.png","practice","0","15","0","0","0","0","true","",""
"image-keyboard-response","61","720542","0.0-3.0-4.0-1.0-1.15","63ea74a7e00a26d45e75244c","6662009ae78f21dd82fcd179","66620b2d7e85da88b17d64d0","null","","null","","","","","","","","./tasks/HMM-beads/Images/BlackBeadChoice.png","","","","","","","","","",""
"image-keyboard-response","62","721066","0.0-3.0-4.0-1.0-2.15","63ea74a7e00a26d45e75244c","6662009ae78f21dd82fcd179","66620b2d7e85da88b17d64d0","null","","null","","","","","","","","./tasks/HMM-beads/Images/BlackBeadChoiceCorrect.png","","","","","","","","","",""
"image-keyboard-response","63","721668","0.0-3.0-4.0-1.0-0.16","63ea74a7e00a26d45e75244c","6662009ae78f21dd82fcd179","66620b2d7e85da88b17d64d0","601","","j","","","","","","","","./tasks/HMM-beads/Images/NewTrialBC.png","practice","0","16","0","0","0","1","false","",""
"image-keyboard-response","64","721982","0.0-3.0-4.0-1.0-1.16","63ea74a7e00a26d45e75244c","6662009ae78f21dd82fcd179","66620b2d7e85da88b17d64d0","null","","null","","","","","","","","./tasks/HMM-beads/Images/WhiteBeadChoice.png","","","","","","","","","",""
"image-keyboard-response","65","722490","0.0-3.0-4.0-1.0-2.16","63ea74a7e00a26d45e75244c","6662009ae78f21dd82fcd179","66620b2d7e85da88b17d64d0","null","","null","","","","","","","","./tasks/HMM-beads/Images/WhiteBeadChoiceWrong.png","","","","","","","","","",""
"image-keyboard-response","66","722499","0.0-3.0-4.0-1.0-0.17","63ea74a7e00a26d45e75244c","6662009ae78f21dd82fcd179","66620b2d7e85da88b17d64d0","9","","f","","","","","","","","./tasks/HMM-beads/Images/NewTrialBC.png","practice","0","17","0","0","0","0","true","",""
"image-keyboard-response","67","722808","0.0-3.0-4.0-1.0-1.17","63ea74a7e00a26d45e75244c","6662009ae78f21dd82fcd179","66620b2d7e85da88b17d64d0","null","","null","","","","","","","","./tasks/HMM-beads/Images/BlackBeadChoice.png","","","","","","","","","",""
"image-keyboard-response","68","723312","0.0-3.0-4.0-1.0-2.17","63ea74a7e00a26d45e75244c","6662009ae78f21dd82fcd179","66620b2d7e85da88b17d64d0","null","","null","","","","","","","","./tasks/HMM-beads/Images/BlackBeadChoiceCorrect.png","","","","","","","","","",""
"image-keyboard-response","69","723756","0.0-3.0-4.0-1.0-0.18","63ea74a7e00a26d45e75244c","6662009ae78f21dd82fcd179","66620b2d7e85da88b17d64d0","443","","j","","","","","","","","./tasks/HMM-beads/Images/NewTrialBC.png","practice","0","18","0","1","0","1","true","",""
"image-keyboard-response","70","724065","0.0-3.0-4.0-1.0-1.18","63ea74a7e00a26d45e75244c","6662009ae78f21dd82fcd179","66620b2d7e85da88b17d64d0","null","","null","","","","","","","","./tasks/HMM-beads/Images/WhiteBeadChoice.png","","","","","","","","","",""
"image-keyboard-response","71","724571","0.0-3.0-4.0-1.0-2.18","63ea74a7e00a26d45e75244c","6662009ae78f21dd82fcd179","66620b2d7e85da88b17d64d0","null","","null","","","","","","","","./tasks/HMM-beads/Images/WhiteBeadChoiceCorrect.png","","","","","","","","","",""
"image-keyboard-response","72","724884","0.0-3.0-4.0-1.0-0.19","63ea74a7e00a26d45e75244c","6662009ae78f21dd82fcd179","66620b2d7e85da88b17d64d0","313","","f","","","","","","","","./tasks/HMM-beads/Images/NewTrialWC.png","practice","0","19","0","0","1","0","true","",""
"image-keyboard-response","73","725188","0.0-3.0-4.0-1.0-1.19","63ea74a7e00a26d45e75244c","6662009ae78f21dd82fcd179","66620b2d7e85da88b17d64d0","null","","null","","","","","","","","./tasks/HMM-beads/Images/BlackBeadChoice.png","","","","","","","","","",""
"image-keyboard-response","74","725695","0.0-3.0-4.0-1.0-2.19","63ea74a7e00a26d45e75244c","6662009ae78f21dd82fcd179","66620b2d7e85da88b17d64d0","null","","null","","","","","","","","./tasks/HMM-beads/Images/BlackBeadChoiceCorrect.png","","","","","","","","","",""
"image-keyboard-response","75","725908","0.0-3.0-4.0-1.0-0.20","63ea74a7e00a26d45e75244c","6662009ae78f21dd82fcd179","66620b2d7e85da88b17d64d0","213","","j","","","","","","","","./tasks/HMM-beads/Images/NewTrialBC.png","practice","0","20","0","0","0","1","false","",""
"image-keyboard-response","76","726223","0.0-3.0-4.0-1.0-1.20","63ea74a7e00a26d45e75244c","6662009ae78f21dd82fcd179","66620b2d7e85da88b17d64d0","null","","null","","","","","","","","./tasks/HMM-beads/Images/WhiteBeadChoice.png","","","","","","","","","",""
"image-keyboard-response","77","726728","0.0-3.0-4.0-1.0-2.20","63ea74a7e00a26d45e75244c","6662009ae78f21dd82fcd179","66620b2d7e85da88b17d64d0","null","","null","","","","","","","","./tasks/HMM-beads/Images/WhiteBeadChoiceWrong.png","","","","","","","","","",""
"image-keyboard-response","78","727540","0.0-3.0-4.0-1.0-0.21","63ea74a7e00a26d45e75244c","6662009ae78f21dd82fcd179","66620b2d7e85da88b17d64d0","812","","f","","","","","","","","./tasks/HMM-beads/Images/NewTrialBC.png","practice","0","21","0","1","0","0","false","",""
"image-keyboard-response","79","727841","0.0-3.0-4.0-1.0-1.21","63ea74a7e00a26d45e75244c","6662009ae78f21dd82fcd179","66620b2d7e85da88b17d64d0","null","","null","","","","","","","","./tasks/HMM-beads/Images/BlackBeadChoice.png","","","","","","","","","",""
"image-keyboard-response","80","728351","0.0-3.0-4.0-1.0-2.21","63ea74a7e00a26d45e75244c","6662009ae78f21dd82fcd179","66620b2d7e85da88b17d64d0","null","","null","","","","","","","","./tasks/HMM-beads/Images/BlackBeadChoiceWrong.png","","","","","","","","","",""
"image-keyboard-response","81","728515","0.0-3.0-4.0-1.0-0.22","63ea74a7e00a26d45e75244c","6662009ae78f21dd82fcd179","66620b2d7e85da88b17d64d0","164","","j","","","","","","","","./tasks/HMM-beads/Images/NewTrialWC.png","practice","0","22","1","1","1","1","true","",""
"image-keyboard-response","82","728823","0.0-3.0-4.0-1.0-1.22","63ea74a7e00a26d45e75244c","6662009ae78f21dd82fcd179","66620b2d7e85da88b17d64d0","null","","null","","","","","","","","./tasks/HMM-beads/Images/WhiteBeadChoice.png","","","","","","","","","",""
"image-keyboard-response","83","729338","0.0-3.0-4.0-1.0-2.22","63ea74a7e00a26d45e75244c","6662009ae78f21dd82fcd179","66620b2d7e85da88b17d64d0","null","","null","","","","","","","","./tasks/HMM-beads/Images/WhiteBeadChoiceCorrect.png","","","","","","","","","",""
"image-keyboard-response","84","729724","0.0-3.0-4.0-1.0-0.23","63ea74a7e00a26d45e75244c","6662009ae78f21dd82fcd179","66620b2d7e85da88b17d64d0","386","","j","","","","","","","","./tasks/HMM-beads/Images/NewTrialWC.png","practice","0","23","1","0","1","1","false","",""
"image-keyboard-response","85","730025","0.0-3.0-4.0-1.0-1.23","63ea74a7e00a26d45e75244c","6662009ae78f21dd82fcd179","66620b2d7e85da88b17d64d0","null","","null","","","","","","","","./tasks/HMM-beads/Images/WhiteBeadChoice.png","","","","","","","","","",""
"image-keyboard-response","86","730528","0.0-3.0-4.0-1.0-2.23","63ea74a7e00a26d45e75244c","6662009ae78f21dd82fcd179","66620b2d7e85da88b17d64d0","null","","null","","","","","","","","./tasks/HMM-beads/Images/WhiteBeadChoiceWrong.png","","","","","","","","","",""
"image-keyboard-response","87","730939","0.0-3.0-4.0-1.0-0.24","63ea74a7e00a26d45e75244c","6662009ae78f21dd82fcd179","66620b2d7e85da88b17d64d0","412","","f","","","","","","","","./tasks/HMM-beads/Images/NewTrialBC.png","practice","0","24","1","1","0","0","false","",""
"image-keyboard-response","88","731247","0.0-3.0-4.0-1.0-1.24","63ea74a7e00a26d45e75244c","6662009ae78f21dd82fcd179","66620b2d7e85da88b17d64d0","null","","null","","","","","","","","./tasks/HMM-beads/Images/BlackBeadChoice.png","","","","","","","","","",""
"image-keyboard-response","89","731759","0.0-3.0-4.0-1.0-2.24","63ea74a7e00a26d45e75244c","6662009ae78f21dd82fcd179","66620b2d7e85da88b17d64d0","null","","null","","","","","","","","./tasks/HMM-beads/Images/BlackBeadChoiceWrong.png","","","","","","","","","",""
"image-keyboard-response","90","732108","0.0-3.0-4.0-1.0-0.25","63ea74a7e00a26d45e75244c","6662009ae78f21dd82fcd179","66620b2d7e85da88b17d64d0","348","","j","","","","","","","","./tasks/HMM-beads/Images/NewTrialWC.png","practice","0","25","1","1","1","1","true","",""
"image-keyboard-response","91","732421","0.0-3.0-4.0-1.0-1.25","63ea74a7e00a26d45e75244c","6662009ae78f21dd82fcd179","66620b2d7e85da88b17d64d0","null","","null","","","","","","","","./tasks/HMM-beads/Images/WhiteBeadChoice.png","","","","","","","","","",""
"image-keyboard-response","92","732928","0.0-3.0-4.0-1.0-2.25","63ea74a7e00a26d45e75244c","6662009ae78f21dd82fcd179","66620b2d7e85da88b17d64d0","null","","null","","","","","","","","./tasks/HMM-beads/Images/WhiteBeadChoiceCorrect.png","","","","","","","","","",""
"image-keyboard-response","93","733196","0.0-3.0-4.0-1.0-0.26","63ea74a7e00a26d45e75244c","6662009ae78f21dd82fcd179","66620b2d7e85da88b17d64d0","268","","j","","","","","","","","./tasks/HMM-beads/Images/NewTrialWC.png","practice","0","26","1","1","1","1","true","",""
"image-keyboard-response","94","733500","0.0-3.0-4.0-1.0-1.26","63ea74a7e00a26d45e75244c","6662009ae78f21dd82fcd179","66620b2d7e85da88b17d64d0","null","","null","","","","","","","","./tasks/HMM-beads/Images/WhiteBeadChoice.png","","","","","","","","","",""
"image-keyboard-response","95","734004","0.0-3.0-4.0-1.0-2.26","63ea74a7e00a26d45e75244c","6662009ae78f21dd82fcd179","66620b2d7e85da88b17d64d0","null","","null","","","","","","","","./tasks/HMM-beads/Images/WhiteBeadChoiceCorrect.png","","","","","","","","","",""
"image-keyboard-response","96","734308","0.0-3.0-4.0-1.0-0.27","63ea74a7e00a26d45e75244c","6662009ae78f21dd82fcd179","66620b2d7e85da88b17d64d0","303","","j","","","","","","","","./tasks/HMM-beads/Images/NewTrialWC.png","practice","0","27","1","1","1","1","true","",""
"image-keyboard-response","97","734621","0.0-3.0-4.0-1.0-1.27","63ea74a7e00a26d45e75244c","6662009ae78f21dd82fcd179","66620b2d7e85da88b17d64d0","null","","null","","","","","","","","./tasks/HMM-beads/Images/WhiteBeadChoice.png","","","","","","","","","",""
"image-keyboard-response","98","735125","0.0-3.0-4.0-1.0-2.27","63ea74a7e00a26d45e75244c","6662009ae78f21dd82fcd179","66620b2d7e85da88b17d64d0","null","","null","","","","","","","","./tasks/HMM-beads/Images/WhiteBeadChoiceCorrect.png","","","","","","","","","",""
"image-keyboard-response","99","735332","0.0-3.0-4.0-1.0-0.28","63ea74a7e00a26d45e75244c","6662009ae78f21dd82fcd179","66620b2d7e85da88b17d64d0","207","","j","","","","","","","","./tasks/HMM-beads/Images/NewTrialWC.png","practice","0","28","1","0","1","1","false","",""
"image-keyboard-response","100","735646","0.0-3.0-4.0-1.0-1.28","63ea74a7e00a26d45e75244c","6662009ae78f21dd82fcd179","66620b2d7e85da88b17d64d0","null","","null","","","","","","","","./tasks/HMM-beads/Images/WhiteBeadChoice.png","","","","","","","","","",""
"image-keyboard-response","101","736152","0.0-3.0-4.0-1.0-2.28","63ea74a7e00a26d45e75244c","6662009ae78f21dd82fcd179","66620b2d7e85da88b17d64d0","null","","null","","","","","","","","./tasks/HMM-beads/Images/WhiteBeadChoiceWrong.png","","","","","","","","","",""
"image-keyboard-response","102","736220","0.0-3.0-4.0-1.0-0.29","63ea74a7e00a26d45e75244c","6662009ae78f21dd82fcd179","66620b2d7e85da88b17d64d0","67","","f","","","","","","","","./tasks/HMM-beads/Images/NewTrialBC.png","practice","0","29","1","1","0","0","false","",""
"image-keyboard-response","103","736532","0.0-3.0-4.0-1.0-1.29","63ea74a7e00a26d45e75244c","6662009ae78f21dd82fcd179","66620b2d7e85da88b17d64d0","null","","null","","","","","","","","./tasks/HMM-beads/Images/BlackBeadChoice.png","","","","","","","","","",""
"image-keyboard-response","104","737038","0.0-3.0-4.0-1.0-2.29","63ea74a7e00a26d45e75244c","6662009ae78f21dd82fcd179","66620b2d7e85da88b17d64d0","null","","null","","","","","","","","./tasks/HMM-beads/Images/BlackBeadChoiceWrong.png","","","","","","","","","",""
"image-keyboard-response","105","737331","0.0-3.0-4.0-1.0-0.30","63ea74a7e00a26d45e75244c","6662009ae78f21dd82fcd179","66620b2d7e85da88b17d64d0","293","","j","","","","","","","","./tasks/HMM-beads/Images/NewTrialWC.png","practice","0","30","1","0","1","1","false","",""
"image-keyboard-response","106","737640","0.0-3.0-4.0-1.0-1.30","63ea74a7e00a26d45e75244c","6662009ae78f21dd82fcd179","66620b2d7e85da88b17d64d0","null","","null","","","","","","","","./tasks/HMM-beads/Images/WhiteBeadChoice.png","","","","","","","","","",""
"image-keyboard-response","107","738146","0.0-3.0-4.0-1.0-2.30","63ea74a7e00a26d45e75244c","6662009ae78f21dd82fcd179","66620b2d7e85da88b17d64d0","null","","null","","","","","","","","./tasks/HMM-beads/Images/WhiteBeadChoiceWrong.png","","","","","","","","","",""
"image-keyboard-response","108","738204","0.0-3.0-4.0-1.0-0.31","63ea74a7e00a26d45e75244c","6662009ae78f21dd82fcd179","66620b2d7e85da88b17d64d0","60","","f","","","","","","","","./tasks/HMM-beads/Images/NewTrialBC.png","practice","0","31","1","1","0","0","false","",""
"image-keyboard-response","109","738510","0.0-3.0-4.0-1.0-1.31","63ea74a7e00a26d45e75244c","6662009ae78f21dd82fcd179","66620b2d7e85da88b17d64d0","null","","null","","","","","","","","./tasks/HMM-beads/Images/BlackBeadChoice.png","","","","","","","","","",""
"image-keyboard-response","110","739017","0.0-3.0-4.0-1.0-2.31","63ea74a7e00a26d45e75244c","6662009ae78f21dd82fcd179","66620b2d7e85da88b17d64d0","null","","null","","","","","","","","./tasks/HMM-beads/Images/BlackBeadChoiceWrong.png","","","","","","","","","",""
"image-keyboard-response","111","739171","0.0-3.0-4.0-1.0-0.32","63ea74a7e00a26d45e75244c","6662009ae78f21dd82fcd179","66620b2d7e85da88b17d64d0","154","","j","","","","","","","","./tasks/HMM-beads/Images/NewTrialWC.png","practice","0","32","1","1","1","1","true","",""
"image-keyboard-response","112","739475","0.0-3.0-4.0-1.0-1.32","63ea74a7e00a26d45e75244c","6662009ae78f21dd82fcd179","66620b2d7e85da88b17d64d0","null","","null","","","","","","","","./tasks/HMM-beads/Images/WhiteBeadChoice.png","","","","","","","","","",""
"image-keyboard-response","113","739992","0.0-3.0-4.0-1.0-2.32","63ea74a7e00a26d45e75244c","6662009ae78f21dd82fcd179","66620b2d7e85da88b17d64d0","null","","null","","","","","","","","./tasks/HMM-beads/Images/WhiteBeadChoiceCorrect.png","","","","","","","","","",""
"image-keyboard-response","114","740156","0.0-3.0-4.0-1.0-0.33","63ea74a7e00a26d45e75244c","6662009ae78f21dd82fcd179","66620b2d7e85da88b17d64d0","164","","j","","","","","","","","./tasks/HMM-beads/Images/NewTrialWC.png","practice","0","33","1","1","1","1","true","",""
"image-keyboard-response","115","740464","0.0-3.0-4.0-1.0-1.33","63ea74a7e00a26d45e75244c","6662009ae78f21dd82fcd179","66620b2d7e85da88b17d64d0","null","","null","","","","","","","","./tasks/HMM-beads/Images/WhiteBeadChoice.png","","","","","","","","","",""
"image-keyboard-response","116","740975","0.0-3.0-4.0-1.0-2.33","63ea74a7e00a26d45e75244c","6662009ae78f21dd82fcd179","66620b2d7e85da88b17d64d0","null","","null","","","","","","","","./tasks/HMM-beads/Images/WhiteBeadChoiceCorrect.png","","","","","","","","","",""
"image-keyboard-response","117","741051","0.0-3.0-4.0-1.0-0.34","63ea74a7e00a26d45e75244c","6662009ae78f21dd82fcd179","66620b2d7e85da88b17d64d0","76","","j","","","","","","","","./tasks/HMM-beads/Images/NewTrialWC.png","practice","0","34","1","1","1","1","true","",""
"image-keyboard-response","118","741360","0.0-3.0-4.0-1.0-1.34","63ea74a7e00a26d45e75244c","6662009ae78f21dd82fcd179","66620b2d7e85da88b17d64d0","null","","null","","","","","","","","./tasks/HMM-beads/Images/WhiteBeadChoice.png","","","","","","","","","",""
"image-keyboard-response","119","741863","0.0-3.0-4.0-1.0-2.34","63ea74a7e00a26d45e75244c","6662009ae78f21dd82fcd179","66620b2d7e85da88b17d64d0","null","","null","","","","","","","","./tasks/HMM-beads/Images/WhiteBeadChoiceCorrect.png","","","","","","","","","",""
"image-keyboard-response","120","742356","0.0-3.0-4.0-1.0-0.35","63ea74a7e00a26d45e75244c","6662009ae78f21dd82fcd179","66620b2d7e85da88b17d64d0","493","","f","","","","","","","","./tasks/HMM-beads/Images/NewTrialWC.png","practice","0","35","1","1","1","0","false","",""
"image-keyboard-response","121","742672","0.0-3.0-4.0-1.0-1.35","63ea74a7e00a26d45e75244c","6662009ae78f21dd82fcd179","66620b2d7e85da88b17d64d0","null","","null","","","","","","","","./tasks/HMM-beads/Images/BlackBeadChoice.png","","","","","","","","","",""
"image-keyboard-response","122","743178","0.0-3.0-4.0-1.0-2.35","63ea74a7e00a26d45e75244c","6662009ae78f21dd82fcd179","66620b2d7e85da88b17d64d0","null","","null","","","","","","","","./tasks/HMM-beads/Images/BlackBeadChoiceWrong.png","","","","","","","","","",""
"image-keyboard-response","123","743556","0.0-3.0-4.0-1.0-0.36","63ea74a7e00a26d45e75244c","6662009ae78f21dd82fcd179","66620b2d7e85da88b17d64d0","376","","f","","","","","","","","./tasks/HMM-beads/Images/NewTrialWC.png","practice","0","36","1","0","1","0","true","",""
"image-keyboard-response","124","743860","0.0-3.0-4.0-1.0-1.36","63ea74a7e00a26d45e75244c","6662009ae78f21dd82fcd179","66620b2d7e85da88b17d64d0","null","","null","","","","","","","","./tasks/HMM-beads/Images/BlackBeadChoice.png","","","","","","","","","",""
"image-keyboard-response","125","744372","0.0-3.0-4.0-1.0-2.36","63ea74a7e00a26d45e75244c","6662009ae78f21dd82fcd179","66620b2d7e85da88b17d64d0","null","","null","","","","","","","","./tasks/HMM-beads/Images/BlackBeadChoiceCorrect.png","","","","","","","","","",""
"image-keyboard-response","126","744972","0.0-3.0-4.0-1.0-0.37","63ea74a7e00a26d45e75244c","6662009ae78f21dd82fcd179","66620b2d7e85da88b17d64d0","599","","f","","","","","","","","./tasks/HMM-beads/Images/NewTrialBC.png","practice","0","37","1","1","0","0","false","",""
"image-keyboard-response","127","745275","0.0-3.0-4.0-1.0-1.37","63ea74a7e00a26d45e75244c","6662009ae78f21dd82fcd179","66620b2d7e85da88b17d64d0","null","","null","","","","","","","","./tasks/HMM-beads/Images/BlackBeadChoice.png","","","","","","","","","",""
"image-keyboard-response","128","745790","0.0-3.0-4.0-1.0-2.37","63ea74a7e00a26d45e75244c","6662009ae78f21dd82fcd179","66620b2d7e85da88b17d64d0","null","","null","","","","","","","","./tasks/HMM-beads/Images/BlackBeadChoiceWrong.png","","","","","","","","","",""
"image-keyboard-response","129","745843","0.0-3.0-4.0-1.0-0.38","63ea74a7e00a26d45e75244c","6662009ae78f21dd82fcd179","66620b2d7e85da88b17d64d0","53","","j","","","","","","","","./tasks/HMM-beads/Images/NewTrialWC.png","practice","0","38","1","1","1","1","true","",""
"image-keyboard-response","130","746151","0.0-3.0-4.0-1.0-1.38","63ea74a7e00a26d45e75244c","6662009ae78f21dd82fcd179","66620b2d7e85da88b17d64d0","null","","null","","","","","","","","./tasks/HMM-beads/Images/WhiteBeadChoice.png","","","","","","","","","",""
"image-keyboard-response","131","746653","0.0-3.0-4.0-1.0-2.38","63ea74a7e00a26d45e75244c","6662009ae78f21dd82fcd179","66620b2d7e85da88b17d64d0","null","","null","","","","","","","","./tasks/HMM-beads/Images/WhiteBeadChoiceCorrect.png","","","","","","","","","",""
"image-keyboard-response","132","747155","0.0-3.0-4.0-1.0-0.39","63ea74a7e00a26d45e75244c","6662009ae78f21dd82fcd179","66620b2d7e85da88b17d64d0","503","","f","","","","","","","","./tasks/HMM-beads/Images/NewTrialWC.png","practice","0","39","1","1","1","0","false","",""
"image-keyboard-response","133","747459","0.0-3.0-4.0-1.0-1.39","63ea74a7e00a26d45e75244c","6662009ae78f21dd82fcd179","66620b2d7e85da88b17d64d0","null","","null","","","","","","","","./tasks/HMM-beads/Images/BlackBeadChoice.png","","","","","","","","","",""
"image-keyboard-response","134","747963","0.0-3.0-4.0-1.0-2.39","63ea74a7e00a26d45e75244c","6662009ae78f21dd82fcd179","66620b2d7e85da88b17d64d0","null","","null","","","","","","","","./tasks/HMM-beads/Images/BlackBeadChoiceWrong.png","","","","","","","","","",""
"html-keyboard-response","135","752613","0.0-3.0-4.0-2.0","63ea74a7e00a26d45e75244c","6662009ae78f21dd82fcd179","66620b2d7e85da88b17d64d0","4648",""," ","","","","","","","","","","","","","","","","","",""
"instructions","136","767937","0.0-3.0-5.0","63ea74a7e00a26d45e75244c","6662009ae78f21dd82fcd179","66620b2d7e85da88b17d64d0","15325","","","","[{""page_index"":0,""viewing_time"":11693},{""page_index"":1,""viewing_time"":3631}]","","","","","","","","","","","","","","","",""
"html-keyboard-response","137","775061","0.0-3.0-6.0-0.0","63ea74a7e00a26d45e75244c","6662009ae78f21dd82fcd179","66620b2d7e85da88b17d64d0","7121",""," ","","","","","","","","<div align=center>In this block, there will be a <b>1% chance</b> that the jar on the next trial will be different from the jar on the current trial.<br><br></div>","","","","","","","","","",""
"image-keyboard-response","138","778092","0.0-3.0-6.0-1.0-0.0","63ea74a7e00a26d45e75244c","6662009ae78f21dd82fcd179","66620b2d7e85da88b17d64d0","3026","","f","","","","","","","","./tasks/HMM-beads/Images/NoChoice.png","lowH","1","0","1","0","9","0","true","",""
"image-keyboard-response","139","778399","0.0-3.0-6.0-1.0-1.0","63ea74a7e00a26d45e75244c","6662009ae78f21dd82fcd179","66620b2d7e85da88b17d64d0","null","","null","","","","","","","","./tasks/HMM-beads/Images/BlackBeadChoice.png","","","","","","","","","",""
"image-keyboard-response","140","778909","0.0-3.0-6.0-1.0-2.0","63ea74a7e00a26d45e75244c","6662009ae78f21dd82fcd179","66620b2d7e85da88b17d64d0","null","","null","","","","","","","","./tasks/HMM-beads/Images/BlackBeadChoiceCorrect.png","","","","","","","","","",""
"image-keyboard-response","141","779300","0.0-3.0-6.0-1.0-0.1","63ea74a7e00a26d45e75244c","6662009ae78f21dd82fcd179","66620b2d7e85da88b17d64d0","390","","f","","","","","","","","./tasks/HMM-beads/Images/NewTrialBC.png","lowH","1","1","1","1","0","0","false","",""
"image-keyboard-response","142","779603","0.0-3.0-6.0-1.0-1.1","63ea74a7e00a26d45e75244c","6662009ae78f21dd82fcd179","66620b2d7e85da88b17d64d0","null","","null","","","","","","","","./tasks/HMM-beads/Images/BlackBeadChoice.png","","","","","","","","","",""
"image-keyboard-response","143","780112","0.0-3.0-6.0-1.0-2.1","63ea74a7e00a26d45e75244c","6662009ae78f21dd82fcd179","66620b2d7e85da88b17d64d0","null","","null","","","","","","","","./tasks/HMM-beads/Images/BlackBeadChoiceWrong.png","","","","","","","","","",""
"image-keyboard-response","144","780531","0.0-3.0-6.0-1.0-0.2","63ea74a7e00a26d45e75244c","6662009ae78f21dd82fcd179","66620b2d7e85da88b17d64d0","419","","j","","","","","","","","./tasks/HMM-beads/Images/NewTrialWC.png","lowH","1","2","1","1","1","1","true","",""
"image-keyboard-response","145","780838","0.0-3.0-6.0-1.0-1.2","63ea74a7e00a26d45e75244c","6662009ae78f21dd82fcd179","66620b2d7e85da88b17d64d0","null","","null","","","","","","","","./tasks/HMM-beads/Images/WhiteBeadChoice.png","","","","","","","","","",""
"image-keyboard-response","146","781348","0.0-3.0-6.0-1.0-2.2","63ea74a7e00a26d45e75244c","6662009ae78f21dd82fcd179","66620b2d7e85da88b17d64d0","null","","null","","","","","","","","./tasks/HMM-beads/Images/WhiteBeadChoiceCorrect.png","","","","","","","","","",""
"image-keyboard-response","147","782340","0.0-3.0-6.0-1.0-0.3","63ea74a7e00a26d45e75244c","6662009ae78f21dd82fcd179","66620b2d7e85da88b17d64d0","992","","f","","","","","","","","./tasks/HMM-beads/Images/NewTrialWC.png","lowH","1","3","1","1","1","0","false","",""
"image-keyboard-response","148","782650","0.0-3.0-6.0-1.0-1.3","63ea74a7e00a26d45e75244c","6662009ae78f21dd82fcd179","66620b2d7e85da88b17d64d0","null","","null","","","","","","","","./tasks/HMM-beads/Images/BlackBeadChoice.png","","","","","","","","","",""
"image-keyboard-response","149","783159","0.0-3.0-6.0-1.0-2.3","63ea74a7e00a26d45e75244c","6662009ae78f21dd82fcd179","66620b2d7e85da88b17d64d0","null","","null","","","","","","","","./tasks/HMM-beads/Images/BlackBeadChoiceWrong.png","","","","","","","","","",""
"image-keyboard-response","150","783644","0.0-3.0-6.0-1.0-0.4","63ea74a7e00a26d45e75244c","6662009ae78f21dd82fcd179","66620b2d7e85da88b17d64d0","485","","j","","","","","","","","./tasks/HMM-beads/Images/NewTrialWC.png","lowH","1","4","1","1","1","1","true","",""
"image-keyboard-response","151","783949","0.0-3.0-6.0-1.0-1.4","63ea74a7e00a26d45e75244c","6662009ae78f21dd82fcd179","66620b2d7e85da88b17d64d0","null","","null","","","","","","","","./tasks/HMM-beads/Images/WhiteBeadChoice.png","","","","","","","","","",""
"image-keyboard-response","152","784459","0.0-3.0-6.0-1.0-2.4","63ea74a7e00a26d45e75244c","6662009ae78f21dd82fcd179","66620b2d7e85da88b17d64d0","null","","null","","","","","","","","./tasks/HMM-beads/Images/WhiteBeadChoiceCorrect.png","","","","","","","","","",""
"image-keyboard-response","153","785012","0.0-3.0-6.0-1.0-0.5","63ea74a7e00a26d45e75244c","6662009ae78f21dd82fcd179","66620b2d7e85da88b17d64d0","552","","j","","","","","","","","./tasks/HMM-beads/Images/NewTrialWC.png","lowH","1","5","1","1","1","1","true","",""
"image-keyboard-response","154","785313","0.0-3.0-6.0-1.0-1.5","63ea74a7e00a26d45e75244c","6662009ae78f21dd82fcd179","66620b2d7e85da88b17d64d0","null","","null","","","","","","","","./tasks/HMM-beads/Images/WhiteBeadChoice.png","","","","","","","","","",""
"image-keyboard-response","155","785818","0.0-3.0-6.0-1.0-2.5","63ea74a7e00a26d45e75244c","6662009ae78f21dd82fcd179","66620b2d7e85da88b17d64d0","null","","null","","","","","","","","./tasks/HMM-beads/Images/WhiteBeadChoiceCorrect.png","","","","","","","","","",""
"image-keyboard-response","156","786188","0.0-3.0-6.0-1.0-0.6","63ea74a7e00a26d45e75244c","6662009ae78f21dd82fcd179","66620b2d7e85da88b17d64d0","369","","j","","","","","","","","./tasks/HMM-beads/Images/NewTrialWC.png","lowH","1","6","1","0","1","1","false","",""
"image-keyboard-response","157","786501","0.0-3.0-6.0-1.0-1.6","63ea74a7e00a26d45e75244c","6662009ae78f21dd82fcd179","66620b2d7e85da88b17d64d0","null","","null","","","","","","","","./tasks/HMM-beads/Images/WhiteBeadChoice.png","","","","","","","","","",""
"image-keyboard-response","158","787008","0.0-3.0-6.0-1.0-2.6","63ea74a7e00a26d45e75244c","6662009ae78f21dd82fcd179","66620b2d7e85da88b17d64d0","null","","null","","","","","","","","./tasks/HMM-beads/Images/WhiteBeadChoiceWrong.png","","","","","","","","","",""
"image-keyboard-response","159","787580","0.0-3.0-6.0-1.0-0.7","63ea74a7e00a26d45e75244c","6662009ae78f21dd82fcd179","66620b2d7e85da88b17d64d0","572","","f","","","","","","","","./tasks/HMM-beads/Images/NewTrialBC.png","lowH","1","7","1","1","0","0","false","",""
"image-keyboard-response","160","787894","0.0-3.0-6.0-1.0-1.7","63ea74a7e00a26d45e75244c","6662009ae78f21dd82fcd179","66620b2d7e85da88b17d64d0","null","","null","","","","","","","","./tasks/HMM-beads/Images/BlackBeadChoice.png","","","","","","","","","",""
"image-keyboard-response","161","788400","0.0-3.0-6.0-1.0-2.7","63ea74a7e00a26d45e75244c","6662009ae78f21dd82fcd179","66620b2d7e85da88b17d64d0","null","","null","","","","","","","","./tasks/HMM-beads/Images/BlackBeadChoiceWrong.png","","","","","","","","","",""
"image-keyboard-response","162","788875","0.0-3.0-6.0-1.0-0.8","63ea74a7e00a26d45e75244c","6662009ae78f21dd82fcd179","66620b2d7e85da88b17d64d0","475","","j","","","","","","","","./tasks/HMM-beads/Images/NewTrialWC.png","lowH","1","8","1","1","1","1","true","",""
"image-keyboard-response","163","789188","0.0-3.0-6.0-1.0-1.8","63ea74a7e00a26d45e75244c","6662009ae78f21dd82fcd179","66620b2d7e85da88b17d64d0","null","","null","","","","","","","","./tasks/HMM-beads/Images/WhiteBeadChoice.png","","","","","","","","","",""
"image-keyboard-response","164","789694","0.0-3.0-6.0-1.0-2.8","63ea74a7e00a26d45e75244c","6662009ae78f21dd82fcd179","66620b2d7e85da88b17d64d0","null","","null","","","","","","","","./tasks/HMM-beads/Images/WhiteBeadChoiceCorrect.png","","","","","","","","","",""
"image-keyboard-response","165","789884","0.0-3.0-6.0-1.0-0.9","63ea74a7e00a26d45e75244c","6662009ae78f21dd82fcd179","66620b2d7e85da88b17d64d0","189","","j","","","","","","","","./tasks/HMM-beads/Images/NewTrialWC.png","lowH","1","9","1","1","1","1","true","",""
"image-keyboard-response","166","790188","0.0-3.0-6.0-1.0-1.9","63ea74a7e00a26d45e75244c","6662009ae78f21dd82fcd179","66620b2d7e85da88b17d64d0","null","","null","","","","","","","","./tasks/HMM-beads/Images/WhiteBeadChoice.png","","","","","","","","","",""
"image-keyboard-response","167","790698","0.0-3.0-6.0-1.0-2.9","63ea74a7e00a26d45e75244c","6662009ae78f21dd82fcd179","66620b2d7e85da88b17d64d0","null","","null","","","","","","","","./tasks/HMM-beads/Images/WhiteBeadChoiceCorrect.png","","","","","","","","","",""
"image-keyboard-response","168","790708","0.0-3.0-6.0-1.0-0.10","63ea74a7e00a26d45e75244c","6662009ae78f21dd82fcd179","66620b2d7e85da88b17d64d0","10","","j","","","","","","","","./tasks/HMM-beads/Images/NewTrialWC.png","lowH","1","10","1","1","1","1","true","",""
"image-keyboard-response","169","791014","0.0-3.0-6.0-1.0-1.10","63ea74a7e00a26d45e75244c","6662009ae78f21dd82fcd179","66620b2d7e85da88b17d64d0","null","","null","","","","","","","","./tasks/HMM-beads/Images/WhiteBeadChoice.png","","","","","","","","","",""
"image-keyboard-response","170","791516","0.0-3.0-6.0-1.0-2.10","63ea74a7e00a26d45e75244c","6662009ae78f21dd82fcd179","66620b2d7e85da88b17d64d0","null","","null","","","","","","","","./tasks/HMM-beads/Images/WhiteBeadChoiceCorrect.png","","","","","","","","","",""
"image-keyboard-response","171","791988","0.0-3.0-6.0-1.0-0.11","63ea74a7e00a26d45e75244c","6662009ae78f21dd82fcd179","66620b2d7e85da88b17d64d0","472","","f","","","","","","","","./tasks/HMM-beads/Images/NewTrialWC.png","lowH","1","11","1","1","1","0","false","",""
"image-keyboard-response","172","792302","0.0-3.0-6.0-1.0-1.11","63ea74a7e00a26d45e75244c","6662009ae78f21dd82fcd179","66620b2d7e85da88b17d64d0","null","","null","","","","","","","","./tasks/HMM-beads/Images/BlackBeadChoice.png","","","","","","","","","",""
"image-keyboard-response","173","792809","0.0-3.0-6.0-1.0-2.11","63ea74a7e00a26d45e75244c","6662009ae78f21dd82fcd179","66620b2d7e85da88b17d64d0","null","","null","","","","","","","","./tasks/HMM-beads/Images/BlackBeadChoiceWrong.png","","","","","","","","","",""
"image-keyboard-response","174","792852","0.0-3.0-6.0-1.0-0.12","63ea74a7e00a26d45e75244c","6662009ae78f21dd82fcd179","66620b2d7e85da88b17d64d0","43","","f","","","","","","","","./tasks/HMM-beads/Images/NewTrialWC.png","lowH","1","12","1","1","1","0","false","",""
"image-keyboard-response","175","793152","0.0-3.0-6.0-1.0-1.12","63ea74a7e00a26d45e75244c","6662009ae78f21dd82fcd179","66620b2d7e85da88b17d64d0","null","","null","","","","","","","","./tasks/HMM-beads/Images/BlackBeadChoice.png","","","","","","","","","",""
"image-keyboard-response","176","793663","0.0-3.0-6.0-1.0-2.12","63ea74a7e00a26d45e75244c","6662009ae78f21dd82fcd179","66620b2d7e85da88b17d64d0","null","","null","","","","","","","","./tasks/HMM-beads/Images/BlackBeadChoiceWrong.png","","","","","","","","","",""
"image-keyboard-response","177","794116","0.0-3.0-6.0-1.0-0.13","63ea74a7e00a26d45e75244c","6662009ae78f21dd82fcd179","66620b2d7e85da88b17d64d0","452","","j","","","","","","","","./tasks/HMM-beads/Images/NewTrialWC.png","lowH","1","13","1","0","1","1","false","",""
"image-keyboard-response","178","794424","0.0-3.0-6.0-1.0-1.13","63ea74a7e00a26d45e75244c","6662009ae78f21dd82fcd179","66620b2d7e85da88b17d64d0","null","","null","","","","","","","","./tasks/HMM-beads/Images/WhiteBeadChoice.png","","","","","","","","","",""
"image-keyboard-response","179","794932","0.0-3.0-6.0-1.0-2.13","63ea74a7e00a26d45e75244c","6662009ae78f21dd82fcd179","66620b2d7e85da88b17d64d0","null","","null","","","","","","","","./tasks/HMM-beads/Images/WhiteBeadChoiceWrong.png","","","","","","","","","",""
"image-keyboard-response","180","795212","0.0-3.0-6.0-1.0-0.14","63ea74a7e00a26d45e75244c","6662009ae78f21dd82fcd179","66620b2d7e85da88b17d64d0","279","","f","","","","","","","","./tasks/HMM-beads/Images/NewTrialBC.png","lowH","1","14","1","0","0","0","true","",""
"image-keyboard-response","181","795515","0.0-3.0-6.0-1.0-1.14","63ea74a7e00a26d45e75244c","6662009ae78f21dd82fcd179","66620b2d7e85da88b17d64d0","null","","null","","","","","","","","./tasks/HMM-beads/Images/BlackBeadChoice.png","","","","","","","","","",""
"image-keyboard-response","182","796024","0.0-3.0-6.0-1.0-2.14","63ea74a7e00a26d45e75244c","6662009ae78f21dd82fcd179","66620b2d7e85da88b17d64d0","null","","null","","","","","","","","./tasks/HMM-beads/Images/BlackBeadChoiceCorrect.png","","","","","","","","","",""
"image-keyboard-response","183","796340","0.0-3.0-6.0-1.0-0.15","63ea74a7e00a26d45e75244c","6662009ae78f21dd82fcd179","66620b2d7e85da88b17d64d0","315","","j","","","","","","","","./tasks/HMM-beads/Images/NewTrialBC.png","lowH","1","15","1","1","0","1","true","",""
"image-keyboard-response","184","796642","0.0-3.0-6.0-1.0-1.15","63ea74a7e00a26d45e75244c","6662009ae78f21dd82fcd179","66620b2d7e85da88b17d64d0","null","","null","","","","","","","","./tasks/HMM-beads/Images/WhiteBeadChoice.png","","","","","","","","","",""
"image-keyboard-response","185","797151","0.0-3.0-6.0-1.0-2.15","63ea74a7e00a26d45e75244c","6662009ae78f21dd82fcd179","66620b2d7e85da88b17d64d0","null","","null","","","","","","","","./tasks/HMM-beads/Images/WhiteBeadChoiceCorrect.png","","","","","","","","","",""
"image-keyboard-response","186","797276","0.0-3.0-6.0-1.0-0.16","63ea74a7e00a26d45e75244c","6662009ae78f21dd82fcd179","66620b2d7e85da88b17d64d0","125","","j","","","","","","","","./tasks/HMM-beads/Images/NewTrialWC.png","lowH","1","16","1","1","1","1","true","",""
"image-keyboard-response","187","797591","0.0-3.0-6.0-1.0-1.16","63ea74a7e00a26d45e75244c","6662009ae78f21dd82fcd179","66620b2d7e85da88b17d64d0","null","","null","","","","","","","","./tasks/HMM-beads/Images/WhiteBeadChoice.png","","","","","","","","","",""
"image-keyboard-response","188","798094","0.0-3.0-6.0-1.0-2.16","63ea74a7e00a26d45e75244c","6662009ae78f21dd82fcd179","66620b2d7e85da88b17d64d0","null","","null","","","","","","","","./tasks/HMM-beads/Images/WhiteBeadChoiceCorrect.png","","","","","","","","","",""
"image-keyboard-response","189","798948","0.0-3.0-6.0-1.0-0.17","63ea74a7e00a26d45e75244c","6662009ae78f21dd82fcd179","66620b2d7e85da88b17d64d0","853","","j","","","","","","","","./tasks/HMM-beads/Images/NewTrialWC.png","lowH","1","17","1","1","1","1","true","",""
"image-keyboard-response","190","799249","0.0-3.0-6.0-1.0-1.17","63ea74a7e00a26d45e75244c","6662009ae78f21dd82fcd179","66620b2d7e85da88b17d64d0","null","","null","","","","","","","","./tasks/HMM-beads/Images/WhiteBeadChoice.png","","","","","","","","","",""
"image-keyboard-response","191","799756","0.0-3.0-6.0-1.0-2.17","63ea74a7e00a26d45e75244c","6662009ae78f21dd82fcd179","66620b2d7e85da88b17d64d0","null","","null","","","","","","","","./tasks/HMM-beads/Images/WhiteBeadChoiceCorrect.png","","","","","","","","","",""
"image-keyboard-response","192","800172","0.0-3.0-6.0-1.0-0.18","63ea74a7e00a26d45e75244c","6662009ae78f21dd82fcd179","66620b2d7e85da88b17d64d0","415","","f","","","","","","","","./tasks/HMM-beads/Images/NewTrialWC.png","lowH","1","18","1","1","1","0","false","",""
"image-keyboard-response","193","800487","0.0-3.0-6.0-1.0-1.18","63ea74a7e00a26d45e75244c","6662009ae78f21dd82fcd179","66620b2d7e85da88b17d64d0","null","","null","","","","","","","","./tasks/HMM-beads/Images/BlackBeadChoice.png","","","","","","","","","",""
"image-keyboard-response","194","800990","0.0-3.0-6.0-1.0-2.18","63ea74a7e00a26d45e75244c","6662009ae78f21dd82fcd179","66620b2d7e85da88b17d64d0","null","","null","","","","","","","","./tasks/HMM-beads/Images/BlackBeadChoiceWrong.png","","","","","","","","","",""
"image-keyboard-response","195","801003","0.0-3.0-6.0-1.0-0.19","63ea74a7e00a26d45e75244c","6662009ae78f21dd82fcd179","66620b2d7e85da88b17d64d0","13","","j","","","","","","","","./tasks/HMM-beads/Images/NewTrialWC.png","lowH","1","19","1","1","1","1","true","",""
"image-keyboard-response","196","801306","0.0-3.0-6.0-1.0-1.19","63ea74a7e00a26d45e75244c","6662009ae78f21dd82fcd179","66620b2d7e85da88b17d64d0","null","","null","","","","","","","","./tasks/HMM-beads/Images/WhiteBeadChoice.png","","","","","","","","","",""
"image-keyboard-response","197","801808","0.0-3.0-6.0-1.0-2.19","63ea74a7e00a26d45e75244c","6662009ae78f21dd82fcd179","66620b2d7e85da88b17d64d0","null","","null","","","","","","","","./tasks/HMM-beads/Images/WhiteBeadChoiceCorrect.png","","","","","","","","","",""
"image-keyboard-response","198","802547","0.0-3.0-6.0-1.0-0.20","63ea74a7e00a26d45e75244c","6662009ae78f21dd82fcd179","66620b2d7e85da88b17d64d0","739","","f","","","","","","","","./tasks/HMM-beads/Images/NewTrialWC.png","lowH","1","20","1","1","1","0","false","",""
"image-keyboard-response","199","802863","0.0-3.0-6.0-1.0-1.20","63ea74a7e00a26d45e75244c","6662009ae78f21dd82fcd179","66620b2d7e85da88b17d64d0","null","","null","","","","","","","","./tasks/HMM-beads/Images/BlackBeadChoice.png","","","","","","","","","",""
"image-keyboard-response","200","803370","0.0-3.0-6.0-1.0-2.20","63ea74a7e00a26d45e75244c","6662009ae78f21dd82fcd179","66620b2d7e85da88b17d64d0","null","","null","","","","","","","","./tasks/HMM-beads/Images/BlackBeadChoiceWrong.png","","","","","","","","","",""
"image-keyboard-response","201","803564","0.0-3.0-6.0-1.0-0.21","63ea74a7e00a26d45e75244c","6662009ae78f21dd82fcd179","66620b2d7e85da88b17d64d0","193","","j","","","","","","","","./tasks/HMM-beads/Images/NewTrialWC.png","lowH","1","21","1","1","1","1","true","",""
"image-keyboard-response","202","803875","0.0-3.0-6.0-1.0-1.21","63ea74a7e00a26d45e75244c","6662009ae78f21dd82fcd179","66620b2d7e85da88b17d64d0","null","","null","","","","","","","","./tasks/HMM-beads/Images/WhiteBeadChoice.png","","","","","","","","","",""
"image-keyboard-response","203","804383","0.0-3.0-6.0-1.0-2.21","63ea74a7e00a26d45e75244c","6662009ae78f21dd82fcd179","66620b2d7e85da88b17d64d0","null","","null","","","","","","","","./tasks/HMM-beads/Images/WhiteBeadChoiceCorrect.png","","","","","","","","","",""
"image-keyboard-response","204","804932","0.0-3.0-6.0-1.0-0.22","63ea74a7e00a26d45e75244c","6662009ae78f21dd82fcd179","66620b2d7e85da88b17d64d0","549","","f","","","","","","","","./tasks/HMM-beads/Images/NewTrialWC.png","lowH","1","22","1","1","1","0","false","",""
"image-keyboard-response","205","805240","0.0-3.0-6.0-1.0-1.22","63ea74a7e00a26d45e75244c","6662009ae78f21dd82fcd179","66620b2d7e85da88b17d64d0","null","","null","","","","","","","","./tasks/HMM-beads/Images/BlackBeadChoice.png","","","","","","","","","",""
"image-keyboard-response","206","805742","0.0-3.0-6.0-1.0-2.22","63ea74a7e00a26d45e75244c","6662009ae78f21dd82fcd179","66620b2d7e85da88b17d64d0","null","","null","","","","","","","","./tasks/HMM-beads/Images/BlackBeadChoiceWrong.png","","","","","","","","","",""
"image-keyboard-response","207","805948","0.0-3.0-6.0-1.0-0.23","63ea74a7e00a26d45e75244c","6662009ae78f21dd82fcd179","66620b2d7e85da88b17d64d0","204","","f","","","","","","","","./tasks/HMM-beads/Images/NewTrialWC.png","lowH","1","23","1","1","1","0","false","",""
"image-keyboard-response","208","806250","0.0-3.0-6.0-1.0-1.23","63ea74a7e00a26d45e75244c","6662009ae78f21dd82fcd179","66620b2d7e85da88b17d64d0","null","","null","","","","","","","","./tasks/HMM-beads/Images/BlackBeadChoice.png","","","","","","","","","",""
"image-keyboard-response","209","806760","0.0-3.0-6.0-1.0-2.23","63ea74a7e00a26d45e75244c","6662009ae78f21dd82fcd179","66620b2d7e85da88b17d64d0","null","","null","","","","","","","","./tasks/HMM-beads/Images/BlackBeadChoiceWrong.png","","","","","","","","","",""
"image-keyboard-response","210","807308","0.0-3.0-6.0-1.0-0.24","63ea74a7e00a26d45e75244c","6662009ae78f21dd82fcd179","66620b2d7e85da88b17d64d0","547","","j","","","","","","","","./tasks/HMM-beads/Images/NewTrialWC.png","lowH","1","24","1","0","1","1","false","",""
"image-keyboard-response","211","807616","0.0-3.0-6.0-1.0-1.24","63ea74a7e00a26d45e75244c","6662009ae78f21dd82fcd179","66620b2d7e85da88b17d64d0","null","","null","","","","","","","","./tasks/HMM-beads/Images/WhiteBeadChoice.png","","","","","","","","","",""
"image-keyboard-response","212","808131","0.0-3.0-6.0-1.0-2.24","63ea74a7e00a26d45e75244c","6662009ae78f21dd82fcd179","66620b2d7e85da88b17d64d0","null","","null","","","","","","","","./tasks/HMM-beads/Images/WhiteBeadChoiceWrong.png","","","","","","","","","",""
"image-keyboard-response","213","808203","0.0-3.0-6.0-1.0-0.25","63ea74a7e00a26d45e75244c","6662009ae78f21dd82fcd179","66620b2d7e85da88b17d64d0","71","","f","","","","","","","","./tasks/HMM-beads/Images/NewTrialBC.png","lowH","1","25","1","1","0","0","false","",""
"image-keyboard-response","214","808519","0.0-3.0-6.0-1.0-1.25","63ea74a7e00a26d45e75244c","6662009ae78f21dd82fcd179","66620b2d7e85da88b17d64d0","null","","null","","","","","","","","./tasks/HMM-beads/Images/BlackBeadChoice.png","","","","","","","","","",""
"image-keyboard-response","215","809030","0.0-3.0-6.0-1.0-2.25","63ea74a7e00a26d45e75244c","6662009ae78f21dd82fcd179","66620b2d7e85da88b17d64d0","null","","null","","","","","","","","./tasks/HMM-beads/Images/BlackBeadChoiceWrong.png","","","","","","","","","",""
"image-keyboard-response","216","809307","0.0-3.0-6.0-1.0-0.26","63ea74a7e00a26d45e75244c","6662009ae78f21dd82fcd179","66620b2d7e85da88b17d64d0","278","","j","","","","","","","","./tasks/HMM-beads/Images/NewTrialWC.png","lowH","1","26","1","0","1","1","false","",""
"image-keyboard-response","217","809623","0.0-3.0-6.0-1.0-1.26","63ea74a7e00a26d45e75244c","6662009ae78f21dd82fcd179","66620b2d7e85da88b17d64d0","null","","null","","","","","","","","./tasks/HMM-beads/Images/WhiteBeadChoice.png","","","","","","","","","",""
"image-keyboard-response","218","810136","0.0-3.0-6.0-1.0-2.26","63ea74a7e00a26d45e75244c","6662009ae78f21dd82fcd179","66620b2d7e85da88b17d64d0","null","","null","","","","","","","","./tasks/HMM-beads/Images/WhiteBeadChoiceWrong.png","","","","","","","","","",""
"image-keyboard-response","219","811932","0.0-3.0-6.0-1.0-0.27","63ea74a7e00a26d45e75244c","6662009ae78f21dd82fcd179","66620b2d7e85da88b17d64d0","1796","","f","","","","","","","","./tasks/HMM-beads/Images/NewTrialBC.png","lowH","1","27","1","1","0","0","false","",""
"image-keyboard-response","220","812240","0.0-3.0-6.0-1.0-1.27","63ea74a7e00a26d45e75244c","6662009ae78f21dd82fcd179","66620b2d7e85da88b17d64d0","null","","null","","","","","","","","./tasks/HMM-beads/Images/BlackBeadChoice.png","","","","","","","","","",""
"image-keyboard-response","221","812745","0.0-3.0-6.0-1.0-2.27","63ea74a7e00a26d45e75244c","6662009ae78f21dd82fcd179","66620b2d7e85da88b17d64d0","null","","null","","","","","","","","./tasks/HMM-beads/Images/BlackBeadChoiceWrong.png","","","","","","","","","",""
"image-keyboard-response","222","812891","0.0-3.0-6.0-1.0-0.28","63ea74a7e00a26d45e75244c","6662009ae78f21dd82fcd179","66620b2d7e85da88b17d64d0","146","","j","","","","","","","","./tasks/HMM-beads/Images/NewTrialWC.png","lowH","1","28","1","1","1","1","true","",""
"image-keyboard-response","223","813199","0.0-3.0-6.0-1.0-1.28","63ea74a7e00a26d45e75244c","6662009ae78f21dd82fcd179","66620b2d7e85da88b17d64d0","null","","null","","","","","","","","./tasks/HMM-beads/Images/WhiteBeadChoice.png","","","","","","","","","",""
"image-keyboard-response","224","813706","0.0-3.0-6.0-1.0-2.28","63ea74a7e00a26d45e75244c","6662009ae78f21dd82fcd179","66620b2d7e85da88b17d64d0","null","","null","","","","","","","","./tasks/HMM-beads/Images/WhiteBeadChoiceCorrect.png","","","","","","","","","",""
"image-keyboard-response","225","814180","0.0-3.0-6.0-1.0-0.29","63ea74a7e00a26d45e75244c","6662009ae78f21dd82fcd179","66620b2d7e85da88b17d64d0","473","","j","","","","","","","","./tasks/HMM-beads/Images/NewTrialWC.png","lowH","1","29","1","1","1","1","true","",""
"image-keyboard-response","226","814495","0.0-3.0-6.0-1.0-1.29","63ea74a7e00a26d45e75244c","6662009ae78f21dd82fcd179","66620b2d7e85da88b17d64d0","null","","null","","","","","","","","./tasks/HMM-beads/Images/WhiteBeadChoice.png","","","","","","","","","",""
"image-keyboard-response","227","815010","0.0-3.0-6.0-1.0-2.29","63ea74a7e00a26d45e75244c","6662009ae78f21dd82fcd179","66620b2d7e85da88b17d64d0","null","","null","","","","","","","","./tasks/HMM-beads/Images/WhiteBeadChoiceCorrect.png","","","","","","","","","",""
"image-keyboard-response","228","815076","0.0-3.0-6.0-1.0-0.30","63ea74a7e00a26d45e75244c","6662009ae78f21dd82fcd179","66620b2d7e85da88b17d64d0","65","","j","","","","","","","","./tasks/HMM-beads/Images/NewTrialWC.png","lowH","1","30","1","1","1","1","true","",""
"image-keyboard-response","229","815391","0.0-3.0-6.0-1.0-1.30","63ea74a7e00a26d45e75244c","6662009ae78f21dd82fcd179","66620b2d7e85da88b17d64d0","null","","null","","","","","","","","./tasks/HMM-beads/Images/WhiteBeadChoice.png","","","","","","","","","",""
"image-keyboard-response","230","815894","0.0-3.0-6.0-1.0-2.30","63ea74a7e00a26d45e75244c","6662009ae78f21dd82fcd179","66620b2d7e85da88b17d64d0","null","","null","","","","","","","","./tasks/HMM-beads/Images/WhiteBeadChoiceCorrect.png","","","","","","","","","",""
"image-keyboard-response","231","816668","0.0-3.0-6.0-1.0-0.31","63ea74a7e00a26d45e75244c","6662009ae78f21dd82fcd179","66620b2d7e85da88b17d64d0","772","","j","","","","","","","","./tasks/HMM-beads/Images/NewTrialWC.png","lowH","1","31","1","1","1","1","true","",""
"image-keyboard-response","232","816969","0.0-3.0-6.0-1.0-1.31","63ea74a7e00a26d45e75244c","6662009ae78f21dd82fcd179","66620b2d7e85da88b17d64d0","null","","null","","","","","","","","./tasks/HMM-beads/Images/WhiteBeadChoice.png","","","","","","","","","",""
"image-keyboard-response","233","817474","0.0-3.0-6.0-1.0-2.31","63ea74a7e00a26d45e75244c","6662009ae78f21dd82fcd179","66620b2d7e85da88b17d64d0","null","","null","","","","","","","","./tasks/HMM-beads/Images/WhiteBeadChoiceCorrect.png","","","","","","","","","",""
"image-keyboard-response","234","819196","0.0-3.0-6.0-1.0-0.32","63ea74a7e00a26d45e75244c","6662009ae78f21dd82fcd179","66620b2d7e85da88b17d64d0","1722","","j","","","","","","","","./tasks/HMM-beads/Images/NewTrialWC.png","lowH","1","32","1","1","1","1","true","",""
"image-keyboard-response","235","819512","0.0-3.0-6.0-1.0-1.32","63ea74a7e00a26d45e75244c","6662009ae78f21dd82fcd179","66620b2d7e85da88b17d64d0","null","","null","","","","","","","","./tasks/HMM-beads/Images/WhiteBeadChoice.png","","","","","","","","","",""
"image-keyboard-response","236","820016","0.0-3.0-6.0-1.0-2.32","63ea74a7e00a26d45e75244c","6662009ae78f21dd82fcd179","66620b2d7e85da88b17d64d0","null","","null","","","","","","","","./tasks/HMM-beads/Images/WhiteBeadChoiceCorrect.png","","","","","","","","","",""
"image-keyboard-response","237","820484","0.0-3.0-6.0-1.0-0.33","63ea74a7e00a26d45e75244c","6662009ae78f21dd82fcd179","66620b2d7e85da88b17d64d0","467","","f","","","","","","","","./tasks/HMM-beads/Images/NewTrialWC.png","lowH","1","33","1","1","1","0","false","",""
"image-keyboard-response","238","820792","0.0-3.0-6.0-1.0-1.33","63ea74a7e00a26d45e75244c","6662009ae78f21dd82fcd179","66620b2d7e85da88b17d64d0","null","","null","","","","","","","","./tasks/HMM-beads/Images/BlackBeadChoice.png","","","","","","","","","",""
"image-keyboard-response","239","821298","0.0-3.0-6.0-1.0-2.33","63ea74a7e00a26d45e75244c","6662009ae78f21dd82fcd179","66620b2d7e85da88b17d64d0","null","","null","","","","","","","","./tasks/HMM-beads/Images/BlackBeadChoiceWrong.png","","","","","","","","","",""
"image-keyboard-response","240","821315","0.0-3.0-6.0-1.0-0.34","63ea74a7e00a26d45e75244c","6662009ae78f21dd82fcd179","66620b2d7e85da88b17d64d0","17","","j","","","","","","","","./tasks/HMM-beads/Images/NewTrialWC.png","lowH","1","34","1","1","1","1","true","",""
"image-keyboard-response","241","821631","0.0-3.0-6.0-1.0-1.34","63ea74a7e00a26d45e75244c","6662009ae78f21dd82fcd179","66620b2d7e85da88b17d64d0","null","","null","","","","","","","","./tasks/HMM-beads/Images/WhiteBeadChoice.png","","","","","","","","","",""
"image-keyboard-response","242","822135","0.0-3.0-6.0-1.0-2.34","63ea74a7e00a26d45e75244c","6662009ae78f21dd82fcd179","66620b2d7e85da88b17d64d0","null","","null","","","","","","","","./tasks/HMM-beads/Images/WhiteBeadChoiceCorrect.png","","","","","","","","","",""
"image-keyboard-response","243","822252","0.0-3.0-6.0-1.0-0.35","63ea74a7e00a26d45e75244c","6662009ae78f21dd82fcd179","66620b2d7e85da88b17d64d0","117","","j","","","","","","","","./tasks/HMM-beads/Images/NewTrialWC.png","lowH","1","35","1","1","1","1","true","",""
"image-keyboard-response","244","822564","0.0-3.0-6.0-1.0-1.35","63ea74a7e00a26d45e75244c","6662009ae78f21dd82fcd179","66620b2d7e85da88b17d64d0","null","","null","","","","","","","","./tasks/HMM-beads/Images/WhiteBeadChoice.png","","","","","","","","","",""
"image-keyboard-response","245","823072","0.0-3.0-6.0-1.0-2.35","63ea74a7e00a26d45e75244c","6662009ae78f21dd82fcd179","66620b2d7e85da88b17d64d0","null","","null","","","","","","","","./tasks/HMM-beads/Images/WhiteBeadChoiceCorrect.png","","","","","","","","","",""
"image-keyboard-response","246","823684","0.0-3.0-6.0-1.0-0.36","63ea74a7e00a26d45e75244c","6662009ae78f21dd82fcd179","66620b2d7e85da88b17d64d0","611","","j","","","","","","","","./tasks/HMM-beads/Images/NewTrialWC.png","lowH","1","36","1","1","1","1","true","",""
"image-keyboard-response","247","823985","0.0-3.0-6.0-1.0-1.36","63ea74a7e00a26d45e75244c","6662009ae78f21dd82fcd179","66620b2d7e85da88b17d64d0","null","","null","","","","","","","","./tasks/HMM-beads/Images/WhiteBeadChoice.png","","","","","","","","","",""
"image-keyboard-response","248","824493","0.0-3.0-6.0-1.0-2.36","63ea74a7e00a26d45e75244c","6662009ae78f21dd82fcd179","66620b2d7e85da88b17d64d0","null","","null","","","","","","","","./tasks/HMM-beads/Images/WhiteBeadChoiceCorrect.png","","","","","","","","","",""
"image-keyboard-response","249","825300","0.0-3.0-6.0-1.0-0.37","63ea74a7e00a26d45e75244c","6662009ae78f21dd82fcd179","66620b2d7e85da88b17d64d0","807","","j","","","","","","","","./tasks/HMM-beads/Images/NewTrialWC.png","lowH","1","37","1","1","1","1","true","",""
"image-keyboard-response","250","825602","0.0-3.0-6.0-1.0-1.37","63ea74a7e00a26d45e75244c","6662009ae78f21dd82fcd179","66620b2d7e85da88b17d64d0","null","","null","","","","","","","","./tasks/HMM-beads/Images/WhiteBeadChoice.png","","","","","","","","","",""
"image-keyboard-response","251","826115","0.0-3.0-6.0-1.0-2.37","63ea74a7e00a26d45e75244c","6662009ae78f21dd82fcd179","66620b2d7e85da88b17d64d0","null","","null","","","","","","","","./tasks/HMM-beads/Images/WhiteBeadChoiceCorrect.png","","","","","","","","","",""
"image-keyboard-response","252","826244","0.0-3.0-6.0-1.0-0.38","63ea74a7e00a26d45e75244c","6662009ae78f21dd82fcd179","66620b2d7e85da88b17d64d0","128","","j","","","","","","","","./tasks/HMM-beads/Images/NewTrialWC.png","lowH","1","38","1","1","1","1","true","",""
"image-keyboard-response","253","826558","0.0-3.0-6.0-1.0-1.38","63ea74a7e00a26d45e75244c","6662009ae78f21dd82fcd179","66620b2d7e85da88b17d64d0","null","","null","","","","","","","","./tasks/HMM-beads/Images/WhiteBeadChoice.png","","","","","","","","","",""
"image-keyboard-response","254","827075","0.0-3.0-6.0-1.0-2.38","63ea74a7e00a26d45e75244c","6662009ae78f21dd82fcd179","66620b2d7e85da88b17d64d0","null","","null","","","","","","","","./tasks/HMM-beads/Images/WhiteBeadChoiceCorrect.png","","","","","","","","","",""
"image-keyboard-response","255","827283","0.0-3.0-6.0-1.0-0.39","63ea74a7e00a26d45e75244c","6662009ae78f21dd82fcd179","66620b2d7e85da88b17d64d0","209","","j","","","","","","","","./tasks/HMM-beads/Images/NewTrialWC.png","lowH","1","39","1","1","1","1","true","",""
"image-keyboard-response","256","827595","0.0-3.0-6.0-1.0-1.39","63ea74a7e00a26d45e75244c","6662009ae78f21dd82fcd179","66620b2d7e85da88b17d64d0","null","","null","","","","","","","","./tasks/HMM-beads/Images/WhiteBeadChoice.png","","","","","","","","","",""
"image-keyboard-response","257","828103","0.0-3.0-6.0-1.0-2.39","63ea74a7e00a26d45e75244c","6662009ae78f21dd82fcd179","66620b2d7e85da88b17d64d0","null","","null","","","","","","","","./tasks/HMM-beads/Images/WhiteBeadChoiceCorrect.png","","","","","","","","","",""
"image-keyboard-response","258","828252","0.0-3.0-6.0-1.0-0.40","63ea74a7e00a26d45e75244c","6662009ae78f21dd82fcd179","66620b2d7e85da88b17d64d0","149","","j","","","","","","","","./tasks/HMM-beads/Images/NewTrialWC.png","lowH","1","40","1","1","1","1","true","",""
"image-keyboard-response","259","828563","0.0-3.0-6.0-1.0-1.40","63ea74a7e00a26d45e75244c","6662009ae78f21dd82fcd179","66620b2d7e85da88b17d64d0","null","","null","","","","","","","","./tasks/HMM-beads/Images/WhiteBeadChoice.png","","","","","","","","","",""
"image-keyboard-response","260","829064","0.0-3.0-6.0-1.0-2.40","63ea74a7e00a26d45e75244c","6662009ae78f21dd82fcd179","66620b2d7e85da88b17d64d0","null","","null","","","","","","","","./tasks/HMM-beads/Images/WhiteBeadChoiceCorrect.png","","","","","","","","","",""
"image-keyboard-response","261","829508","0.0-3.0-6.0-1.0-0.41","63ea74a7e00a26d45e75244c","6662009ae78f21dd82fcd179","66620b2d7e85da88b17d64d0","443","","f","","","","","","","","./tasks/HMM-beads/Images/NewTrialWC.png","lowH","1","41","1","1","1","0","false","",""
"image-keyboard-response","262","829816","0.0-3.0-6.0-1.0-1.41","63ea74a7e00a26d45e75244c","6662009ae78f21dd82fcd179","66620b2d7e85da88b17d64d0","null","","null","","","","","","","","./tasks/HMM-beads/Images/BlackBeadChoice.png","","","","","","","","","",""
"image-keyboard-response","263","830319","0.0-3.0-6.0-1.0-2.41","63ea74a7e00a26d45e75244c","6662009ae78f21dd82fcd179","66620b2d7e85da88b17d64d0","null","","null","","","","","","","","./tasks/HMM-beads/Images/BlackBeadChoiceWrong.png","","","","","","","","","",""
"image-keyboard-response","264","830787","0.0-3.0-6.0-1.0-0.42","63ea74a7e00a26d45e75244c","6662009ae78f21dd82fcd179","66620b2d7e85da88b17d64d0","467","","j","","","","","","","","./tasks/HMM-beads/Images/NewTrialWC.png","lowH","1","42","1","1","1","1","true","",""
"image-keyboard-response","265","831092","0.0-3.0-6.0-1.0-1.42","63ea74a7e00a26d45e75244c","6662009ae78f21dd82fcd179","66620b2d7e85da88b17d64d0","null","","null","","","","","","","","./tasks/HMM-beads/Images/WhiteBeadChoice.png","","","","","","","","","",""
"image-keyboard-response","266","831600","0.0-3.0-6.0-1.0-2.42","63ea74a7e00a26d45e75244c","6662009ae78f21dd82fcd179","66620b2d7e85da88b17d64d0","null","","null","","","","","","","","./tasks/HMM-beads/Images/WhiteBeadChoiceCorrect.png","","","","","","","","","",""
"image-keyboard-response","267","831892","0.0-3.0-6.0-1.0-0.43","63ea74a7e00a26d45e75244c","6662009ae78f21dd82fcd179","66620b2d7e85da88b17d64d0","292","","f","","","","","","","","./tasks/HMM-beads/Images/NewTrialWC.png","lowH","1","43","1","1","1","0","false","",""
"image-keyboard-response","268","832197","0.0-3.0-6.0-1.0-1.43","63ea74a7e00a26d45e75244c","6662009ae78f21dd82fcd179","66620b2d7e85da88b17d64d0","null","","null","","","","","","","","./tasks/HMM-beads/Images/BlackBeadChoice.png","","","","","","","","","",""
"image-keyboard-response","269","832703","0.0-3.0-6.0-1.0-2.43","63ea74a7e00a26d45e75244c","6662009ae78f21dd82fcd179","66620b2d7e85da88b17d64d0","null","","null","","","","","","","","./tasks/HMM-beads/Images/BlackBeadChoiceWrong.png","","","","","","","","","",""
"image-keyboard-response","270","833172","0.0-3.0-6.0-1.0-0.44","63ea74a7e00a26d45e75244c","6662009ae78f21dd82fcd179","66620b2d7e85da88b17d64d0","469","","j","","","","","","","","./tasks/HMM-beads/Images/NewTrialWC.png","lowH","1","44","1","1","1","1","true","",""
"image-keyboard-response","271","833476","0.0-3.0-6.0-1.0-1.44","63ea74a7e00a26d45e75244c","6662009ae78f21dd82fcd179","66620b2d7e85da88b17d64d0","null","","null","","","","","","","","./tasks/HMM-beads/Images/WhiteBeadChoice.png","","","","","","","","","",""
"image-keyboard-response","272","833981","0.0-3.0-6.0-1.0-2.44","63ea74a7e00a26d45e75244c","6662009ae78f21dd82fcd179","66620b2d7e85da88b17d64d0","null","","null","","","","","","","","./tasks/HMM-beads/Images/WhiteBeadChoiceCorrect.png","","","","","","","","","",""
"image-keyboard-response","273","834700","0.0-3.0-6.0-1.0-0.45","63ea74a7e00a26d45e75244c","6662009ae78f21dd82fcd179","66620b2d7e85da88b17d64d0","718","","j","","","","","","","","./tasks/HMM-beads/Images/NewTrialWC.png","lowH","1","45","1","1","1","1","true","",""
"image-keyboard-response","274","835003","0.0-3.0-6.0-1.0-1.45","63ea74a7e00a26d45e75244c","6662009ae78f21dd82fcd179","66620b2d7e85da88b17d64d0","null","","null","","","","","","","","./tasks/HMM-beads/Images/WhiteBeadChoice.png","","","","","","","","","",""
"image-keyboard-response","275","835507","0.0-3.0-6.0-1.0-2.45","63ea74a7e00a26d45e75244c","6662009ae78f21dd82fcd179","66620b2d7e85da88b17d64d0","null","","null","","","","","","","","./tasks/HMM-beads/Images/WhiteBeadChoiceCorrect.png","","","","","","","","","",""
"image-keyboard-response","276","835932","0.0-3.0-6.0-1.0-0.46","63ea74a7e00a26d45e75244c","6662009ae78f21dd82fcd179","66620b2d7e85da88b17d64d0","424","","j","","","","","","","","./tasks/HMM-beads/Images/NewTrialWC.png","lowH","1","46","1","1","1","1","true","",""
"image-keyboard-response","277","836234","0.0-3.0-6.0-1.0-1.46","63ea74a7e00a26d45e75244c","6662009ae78f21dd82fcd179","66620b2d7e85da88b17d64d0","null","","null","","","","","","","","./tasks/HMM-beads/Images/WhiteBeadChoice.png","","","","","","","","","",""
"image-keyboard-response","278","836742","0.0-3.0-6.0-1.0-2.46","63ea74a7e00a26d45e75244c","6662009ae78f21dd82fcd179","66620b2d7e85da88b17d64d0","null","","null","","","","","","","","./tasks/HMM-beads/Images/WhiteBeadChoiceCorrect.png","","","","","","","","","",""
"image-keyboard-response","279","837124","0.0-3.0-6.0-1.0-0.47","63ea74a7e00a26d45e75244c","6662009ae78f21dd82fcd179","66620b2d7e85da88b17d64d0","381","","f","","","","","","","","./tasks/HMM-beads/Images/NewTrialWC.png","lowH","1","47","1","0","1","0","true","",""
"image-keyboard-response","280","837428","0.0-3.0-6.0-1.0-1.47","63ea74a7e00a26d45e75244c","6662009ae78f21dd82fcd179","66620b2d7e85da88b17d64d0","null","","null","","","","","","","","./tasks/HMM-beads/Images/BlackBeadChoice.png","","","","","","","","","",""
"image-keyboard-response","281","837930","0.0-3.0-6.0-1.0-2.47","63ea74a7e00a26d45e75244c","6662009ae78f21dd82fcd179","66620b2d7e85da88b17d64d0","null","","null","","","","","","","","./tasks/HMM-beads/Images/BlackBeadChoiceCorrect.png","","","","","","","","","",""
"image-keyboard-response","282","838420","0.0-3.0-6.0-1.0-0.48","63ea74a7e00a26d45e75244c","6662009ae78f21dd82fcd179","66620b2d7e85da88b17d64d0","490","","f","","","","","","","","./tasks/HMM-beads/Images/NewTrialBC.png","lowH","1","48","1","0","0","0","true","",""
"image-keyboard-response","283","838723","0.0-3.0-6.0-1.0-1.48","63ea74a7e00a26d45e75244c","6662009ae78f21dd82fcd179","66620b2d7e85da88b17d64d0","null","","null","","","","","","","","./tasks/HMM-beads/Images/BlackBeadChoice.png","","","","","","","","","",""
"image-keyboard-response","284","839225","0.0-3.0-6.0-1.0-2.48","63ea74a7e00a26d45e75244c","6662009ae78f21dd82fcd179","66620b2d7e85da88b17d64d0","null","","null","","","","","","","","./tasks/HMM-beads/Images/BlackBeadChoiceCorrect.png","","","","","","","","","",""
"image-keyboard-response","285","839771","0.0-3.0-6.0-1.0-0.49","63ea74a7e00a26d45e75244c","6662009ae78f21dd82fcd179","66620b2d7e85da88b17d64d0","545","","f","","","","","","","","./tasks/HMM-beads/Images/NewTrialBC.png","lowH","1","49","1","0","0","0","true","",""
"image-keyboard-response","286","840077","0.0-3.0-6.0-1.0-1.49","63ea74a7e00a26d45e75244c","6662009ae78f21dd82fcd179","66620b2d7e85da88b17d64d0","null","","null","","","","","","","","./tasks/HMM-beads/Images/BlackBeadChoice.png","","","","","","","","","",""
"image-keyboard-response","287","840580","0.0-3.0-6.0-1.0-2.49","63ea74a7e00a26d45e75244c","6662009ae78f21dd82fcd179","66620b2d7e85da88b17d64d0","null","","null","","","","","","","","./tasks/HMM-beads/Images/BlackBeadChoiceCorrect.png","","","","","","","","","",""
"image-keyboard-response","288","840924","0.0-3.0-6.0-1.0-0.50","63ea74a7e00a26d45e75244c","6662009ae78f21dd82fcd179","66620b2d7e85da88b17d64d0","343","","f","","","","","","","","./tasks/HMM-beads/Images/NewTrialBC.png","lowH","1","50","1","1","0","0","false","",""
"image-keyboard-response","289","841228","0.0-3.0-6.0-1.0-1.50","63ea74a7e00a26d45e75244c","6662009ae78f21dd82fcd179","66620b2d7e85da88b17d64d0","null","","null","","","","","","","","./tasks/HMM-beads/Images/BlackBeadChoice.png","","","","","","","","","",""
"image-keyboard-response","290","841733","0.0-3.0-6.0-1.0-2.50","63ea74a7e00a26d45e75244c","6662009ae78f21dd82fcd179","66620b2d7e85da88b17d64d0","null","","null","","","","","","","","./tasks/HMM-beads/Images/BlackBeadChoiceWrong.png","","","","","","","","","",""
"image-keyboard-response","291","842340","0.0-3.0-6.0-1.0-0.51","63ea74a7e00a26d45e75244c","6662009ae78f21dd82fcd179","66620b2d7e85da88b17d64d0","605","","j","","","","","","","","./tasks/HMM-beads/Images/NewTrialWC.png","lowH","1","51","1","1","1","1","true","",""
"image-keyboard-response","292","842649","0.0-3.0-6.0-1.0-1.51","63ea74a7e00a26d45e75244c","6662009ae78f21dd82fcd179","66620b2d7e85da88b17d64d0","null","","null","","","","","","","","./tasks/HMM-beads/Images/WhiteBeadChoice.png","","","","","","","","","",""
"image-keyboard-response","293","843156","0.0-3.0-6.0-1.0-2.51","63ea74a7e00a26d45e75244c","6662009ae78f21dd82fcd179","66620b2d7e85da88b17d64d0","null","","null","","","","","","","","./tasks/HMM-beads/Images/WhiteBeadChoiceCorrect.png","","","","","","","","","",""
"image-keyboard-response","294","843427","0.0-3.0-6.0-1.0-0.52","63ea74a7e00a26d45e75244c","6662009ae78f21dd82fcd179","66620b2d7e85da88b17d64d0","272","","f","","","","","","","","./tasks/HMM-beads/Images/NewTrialWC.png","lowH","1","52","1","1","1","0","false","",""
"image-keyboard-response","295","843743","0.0-3.0-6.0-1.0-1.52","63ea74a7e00a26d45e75244c","6662009ae78f21dd82fcd179","66620b2d7e85da88b17d64d0","null","","null","","","","","","","","./tasks/HMM-beads/Images/BlackBeadChoice.png","","","","","","","","","",""
"image-keyboard-response","296","844246","0.0-3.0-6.0-1.0-2.52","63ea74a7e00a26d45e75244c","6662009ae78f21dd82fcd179","66620b2d7e85da88b17d64d0","null","","null","","","","","","","","./tasks/HMM-beads/Images/BlackBeadChoiceWrong.png","","","","","","","","","",""
"image-keyboard-response","297","844548","0.0-3.0-6.0-1.0-0.53","63ea74a7e00a26d45e75244c","6662009ae78f21dd82fcd179","66620b2d7e85da88b17d64d0","301","","j","","","","","","","","./tasks/HMM-beads/Images/NewTrialWC.png","lowH","1","53","1","1","1","1","true","",""
"image-keyboard-response","298","844864","0.0-3.0-6.0-1.0-1.53","63ea74a7e00a26d45e75244c","6662009ae78f21dd82fcd179","66620b2d7e85da88b17d64d0","null","","null","","","","","","","","./tasks/HMM-beads/Images/WhiteBeadChoice.png","","","","","","","","","",""
"image-keyboard-response","299","845367","0.0-3.0-6.0-1.0-2.53","63ea74a7e00a26d45e75244c","6662009ae78f21dd82fcd179","66620b2d7e85da88b17d64d0","null","","null","","","","","","","","./tasks/HMM-beads/Images/WhiteBeadChoiceCorrect.png","","","","","","","","","",""
"image-keyboard-response","300","845396","0.0-3.0-6.0-1.0-0.54","63ea74a7e00a26d45e75244c","6662009ae78f21dd82fcd179","66620b2d7e85da88b17d64d0","29","","j","","","","","","","","./tasks/HMM-beads/Images/NewTrialWC.png","lowH","1","54","1","1","1","1","true","",""
"image-keyboard-response","301","845711","0.0-3.0-6.0-1.0-1.54","63ea74a7e00a26d45e75244c","6662009ae78f21dd82fcd179","66620b2d7e85da88b17d64d0","null","","null","","","","","","","","./tasks/HMM-beads/Images/WhiteBeadChoice.png","","","","","","","","","",""
"image-keyboard-response","302","846220","0.0-3.0-6.0-1.0-2.54","63ea74a7e00a26d45e75244c","6662009ae78f21dd82fcd179","66620b2d7e85da88b17d64d0","null","","null","","","","","","","","./tasks/HMM-beads/Images/WhiteBeadChoiceCorrect.png","","","","","","","","","",""
"image-keyboard-response","303","846459","0.0-3.0-6.0-1.0-0.55","63ea74a7e00a26d45e75244c","6662009ae78f21dd82fcd179","66620b2d7e85da88b17d64d0","239","","j","","","","","","","","./tasks/HMM-beads/Images/NewTrialWC.png","lowH","1","55","1","1","1","1","true","",""
"image-keyboard-response","304","846773","0.0-3.0-6.0-1.0-1.55","63ea74a7e00a26d45e75244c","6662009ae78f21dd82fcd179","66620b2d7e85da88b17d64d0","null","","null","","","","","","","","./tasks/HMM-beads/Images/WhiteBeadChoice.png","","","","","","","","","",""
"image-keyboard-response","305","847282","0.0-3.0-6.0-1.0-2.55","63ea74a7e00a26d45e75244c","6662009ae78f21dd82fcd179","66620b2d7e85da88b17d64d0","null","","null","","","","","","","","./tasks/HMM-beads/Images/WhiteBeadChoiceCorrect.png","","","","","","","","","",""
"image-keyboard-response","306","847324","0.0-3.0-6.0-1.0-0.56","63ea74a7e00a26d45e75244c","6662009ae78f21dd82fcd179","66620b2d7e85da88b17d64d0","42","","j","","","","","","","","./tasks/HMM-beads/Images/NewTrialWC.png","lowH","1","56","1","1","1","1","true","",""
"image-keyboard-response","307","847627","0.0-3.0-6.0-1.0-1.56","63ea74a7e00a26d45e75244c","6662009ae78f21dd82fcd179","66620b2d7e85da88b17d64d0","null","","null","","","","","","","","./tasks/HMM-beads/Images/WhiteBeadChoice.png","","","","","","","","","",""
"image-keyboard-response","308","848143","0.0-3.0-6.0-1.0-2.56","63ea74a7e00a26d45e75244c","6662009ae78f21dd82fcd179","66620b2d7e85da88b17d64d0","null","","null","","","","","","","","./tasks/HMM-beads/Images/WhiteBeadChoiceCorrect.png","","","","","","","","","",""
"image-keyboard-response","309","848388","0.0-3.0-6.0-1.0-0.57","63ea74a7e00a26d45e75244c","6662009ae78f21dd82fcd179","66620b2d7e85da88b17d64d0","245","","j","","","","","","","","./tasks/HMM-beads/Images/NewTrialWC.png","lowH","1","57","1","1","1","1","true","",""
"image-keyboard-response","310","848693","0.0-3.0-6.0-1.0-1.57","63ea74a7e00a26d45e75244c","6662009ae78f21dd82fcd179","66620b2d7e85da88b17d64d0","null","","null","","","","","","","","./tasks/HMM-beads/Images/WhiteBeadChoice.png","","","","","","","","","",""
"image-keyboard-response","311","849198","0.0-3.0-6.0-1.0-2.57","63ea74a7e00a26d45e75244c","6662009ae78f21dd82fcd179","66620b2d7e85da88b17d64d0","null","","null","","","","","","","","./tasks/HMM-beads/Images/WhiteBeadChoiceCorrect.png","","","","","","","","","",""
"image-keyboard-response","312","849236","0.0-3.0-6.0-1.0-0.58","63ea74a7e00a26d45e75244c","6662009ae78f21dd82fcd179","66620b2d7e85da88b17d64d0","37","","j","","","","","","","","./tasks/HMM-beads/Images/NewTrialWC.png","lowH","1","58","1","1","1","1","true","",""
"image-keyboard-response","313","849545","0.0-3.0-6.0-1.0-1.58","63ea74a7e00a26d45e75244c","6662009ae78f21dd82fcd179","66620b2d7e85da88b17d64d0","null","","null","","","","","","","","./tasks/HMM-beads/Images/WhiteBeadChoice.png","","","","","","","","","",""
"image-keyboard-response","314","850051","0.0-3.0-6.0-1.0-2.58","63ea74a7e00a26d45e75244c","6662009ae78f21dd82fcd179","66620b2d7e85da88b17d64d0","null","","null","","","","","","","","./tasks/HMM-beads/Images/WhiteBeadChoiceCorrect.png","","","","","","","","","",""
"image-keyboard-response","315","850708","0.0-3.0-6.0-1.0-0.59","63ea74a7e00a26d45e75244c","6662009ae78f21dd82fcd179","66620b2d7e85da88b17d64d0","655","","j","","","","","","","","./tasks/HMM-beads/Images/NewTrialWC.png","lowH","1","59","1","0","1","1","false","",""
"image-keyboard-response","316","851015","0.0-3.0-6.0-1.0-1.59","63ea74a7e00a26d45e75244c","6662009ae78f21dd82fcd179","66620b2d7e85da88b17d64d0","null","","null","","","","","","","","./tasks/HMM-beads/Images/WhiteBeadChoice.png","","","","","","","","","",""
"image-keyboard-response","317","851519","0.0-3.0-6.0-1.0-2.59","63ea74a7e00a26d45e75244c","6662009ae78f21dd82fcd179","66620b2d7e85da88b17d64d0","null","","null","","","","","","","","./tasks/HMM-beads/Images/WhiteBeadChoiceWrong.png","","","","","","","","","",""
"image-keyboard-response","318","851548","0.0-3.0-6.0-1.0-0.60","63ea74a7e00a26d45e75244c","6662009ae78f21dd82fcd179","66620b2d7e85da88b17d64d0","29","","f","","","","","","","","./tasks/HMM-beads/Images/NewTrialBC.png","lowH","1","60","1","1","0","0","false","",""
"image-keyboard-response","319","851848","0.0-3.0-6.0-1.0-1.60","63ea74a7e00a26d45e75244c","6662009ae78f21dd82fcd179","66620b2d7e85da88b17d64d0","null","","null","","","","","","","","./tasks/HMM-beads/Images/BlackBeadChoice.png","","","","","","","","","",""
"image-keyboard-response","320","852357","0.0-3.0-6.0-1.0-2.60","63ea74a7e00a26d45e75244c","6662009ae78f21dd82fcd179","66620b2d7e85da88b17d64d0","null","","null","","","","","","","","./tasks/HMM-beads/Images/BlackBeadChoiceWrong.png","","","","","","","","","",""
"image-keyboard-response","321","852380","0.0-3.0-6.0-1.0-0.61","63ea74a7e00a26d45e75244c","6662009ae78f21dd82fcd179","66620b2d7e85da88b17d64d0","22","","j","","","","","","","","./tasks/HMM-beads/Images/NewTrialWC.png","lowH","1","61","1","1","1","1","true","",""
"image-keyboard-response","322","852690","0.0-3.0-6.0-1.0-1.61","63ea74a7e00a26d45e75244c","6662009ae78f21dd82fcd179","66620b2d7e85da88b17d64d0","null","","null","","","","","","","","./tasks/HMM-beads/Images/WhiteBeadChoice.png","","","","","","","","","",""
"image-keyboard-response","323","853201","0.0-3.0-6.0-1.0-2.61","63ea74a7e00a26d45e75244c","6662009ae78f21dd82fcd179","66620b2d7e85da88b17d64d0","null","","null","","","","","","","","./tasks/HMM-beads/Images/WhiteBeadChoiceCorrect.png","","","","","","","","","",""
"image-keyboard-response","324","853564","0.0-3.0-6.0-1.0-0.62","63ea74a7e00a26d45e75244c","6662009ae78f21dd82fcd179","66620b2d7e85da88b17d64d0","363","","f","","","","","","","","./tasks/HMM-beads/Images/NewTrialWC.png","lowH","1","62","1","0","1","0","true","",""
"image-keyboard-response","325","853874","0.0-3.0-6.0-1.0-1.62","63ea74a7e00a26d45e75244c","6662009ae78f21dd82fcd179","66620b2d7e85da88b17d64d0","null","","null","","","","","","","","./tasks/HMM-beads/Images/BlackBeadChoice.png","","","","","","","","","",""
"image-keyboard-response","326","854381","0.0-3.0-6.0-1.0-2.62","63ea74a7e00a26d45e75244c","6662009ae78f21dd82fcd179","66620b2d7e85da88b17d64d0","null","","null","","","","","","","","./tasks/HMM-beads/Images/BlackBeadChoiceCorrect.png","","","","","","","","","",""
"image-keyboard-response","327","855427","0.0-3.0-6.0-1.0-0.63","63ea74a7e00a26d45e75244c","6662009ae78f21dd82fcd179","66620b2d7e85da88b17d64d0","1047","","j","","","","","","","","./tasks/HMM-beads/Images/NewTrialBC.png","lowH","1","63","1","1","0","1","true","",""
"image-keyboard-response","328","855732","0.0-3.0-6.0-1.0-1.63","63ea74a7e00a26d45e75244c","6662009ae78f21dd82fcd179","66620b2d7e85da88b17d64d0","null","","null","","","","","","","","./tasks/HMM-beads/Images/WhiteBeadChoice.png","","","","","","","","","",""
"image-keyboard-response","329","856248","0.0-3.0-6.0-1.0-2.63","63ea74a7e00a26d45e75244c","6662009ae78f21dd82fcd179","66620b2d7e85da88b17d64d0","null","","null","","","","","","","","./tasks/HMM-beads/Images/WhiteBeadChoiceCorrect.png","","","","","","","","","",""
"image-keyboard-response","330","856276","0.0-3.0-6.0-1.0-0.64","63ea74a7e00a26d45e75244c","6662009ae78f21dd82fcd179","66620b2d7e85da88b17d64d0","28","","j","","","","","","","","./tasks/HMM-beads/Images/NewTrialWC.png","lowH","1","64","1","1","1","1","true","",""
"image-keyboard-response","331","856580","0.0-3.0-6.0-1.0-1.64","63ea74a7e00a26d45e75244c","6662009ae78f21dd82fcd179","66620b2d7e85da88b17d64d0","null","","null","","","","","","","","./tasks/HMM-beads/Images/WhiteBeadChoice.png","","","","","","","","","",""
"image-keyboard-response","332","857089","0.0-3.0-6.0-1.0-2.64","63ea74a7e00a26d45e75244c","6662009ae78f21dd82fcd179","66620b2d7e85da88b17d64d0","null","","null","","","","","","","","./tasks/HMM-beads/Images/WhiteBeadChoiceCorrect.png","","","","","","","","","",""
"image-keyboard-response","333","857452","0.0-3.0-6.0-1.0-0.65","63ea74a7e00a26d45e75244c","6662009ae78f21dd82fcd179","66620b2d7e85da88b17d64d0","361","","j","","","","","","","","./tasks/HMM-beads/Images/NewTrialWC.png","lowH","1","65","1","1","1","1","true","",""
"image-keyboard-response","334","857766","0.0-3.0-6.0-1.0-1.65","63ea74a7e00a26d45e75244c","6662009ae78f21dd82fcd179","66620b2d7e85da88b17d64d0","null","","null","","","","","","","","./tasks/HMM-beads/Images/WhiteBeadChoice.png","","","","","","","","","",""
"image-keyboard-response","335","858270","0.0-3.0-6.0-1.0-2.65","63ea74a7e00a26d45e75244c","6662009ae78f21dd82fcd179","66620b2d7e85da88b17d64d0","null","","null","","","","","","","","./tasks/HMM-beads/Images/WhiteBeadChoiceCorrect.png","","","","","","","","","",""
"image-keyboard-response","336","858740","0.0-3.0-6.0-1.0-0.66","63ea74a7e00a26d45e75244c","6662009ae78f21dd82fcd179","66620b2d7e85da88b17d64d0","470","","j","","","","","","","","./tasks/HMM-beads/Images/NewTrialWC.png","lowH","1","66","1","1","1","1","true","",""
"image-keyboard-response","337","859044","0.0-3.0-6.0-1.0-1.66","63ea74a7e00a26d45e75244c","6662009ae78f21dd82fcd179","66620b2d7e85da88b17d64d0","null","","null","","","","","","","","./tasks/HMM-beads/Images/WhiteBeadChoice.png","","","","","","","","","",""
"image-keyboard-response","338","859548","0.0-3.0-6.0-1.0-2.66","63ea74a7e00a26d45e75244c","6662009ae78f21dd82fcd179","66620b2d7e85da88b17d64d0","null","","null","","","","","","","","./tasks/HMM-beads/Images/WhiteBeadChoiceCorrect.png","","","","","","","","","",""
"image-keyboard-response","339","859948","0.0-3.0-6.0-1.0-0.67","63ea74a7e00a26d45e75244c","6662009ae78f21dd82fcd179","66620b2d7e85da88b17d64d0","399","","f","","","","","","","","./tasks/HMM-beads/Images/NewTrialWC.png","lowH","1","67","1","0","1","0","true","",""
"image-keyboard-response","340","860252","0.0-3.0-6.0-1.0-1.67","63ea74a7e00a26d45e75244c","6662009ae78f21dd82fcd179","66620b2d7e85da88b17d64d0","null","","null","","","","","","","","./tasks/HMM-beads/Images/BlackBeadChoice.png","","","","","","","","","",""
"image-keyboard-response","341","860760","0.0-3.0-6.0-1.0-2.67","63ea74a7e00a26d45e75244c","6662009ae78f21dd82fcd179","66620b2d7e85da88b17d64d0","null","","null","","","","","","","","./tasks/HMM-beads/Images/BlackBeadChoiceCorrect.png","","","","","","","","","",""
"image-keyboard-response","342","860923","0.0-3.0-6.0-1.0-0.68","63ea74a7e00a26d45e75244c","6662009ae78f21dd82fcd179","66620b2d7e85da88b17d64d0","163","","j","","","","","","","","./tasks/HMM-beads/Images/NewTrialBC.png","lowH","1","68","1","1","0","1","true","",""
"image-keyboard-response","343","861230","0.0-3.0-6.0-1.0-1.68","63ea74a7e00a26d45e75244c","6662009ae78f21dd82fcd179","66620b2d7e85da88b17d64d0","null","","null","","","","","","","","./tasks/HMM-beads/Images/WhiteBeadChoice.png","","","","","","","","","",""
"image-keyboard-response","344","861735","0.0-3.0-6.0-1.0-2.68","63ea74a7e00a26d45e75244c","6662009ae78f21dd82fcd179","66620b2d7e85da88b17d64d0","null","","null","","","","","","","","./tasks/HMM-beads/Images/WhiteBeadChoiceCorrect.png","","","","","","","","","",""
"image-keyboard-response","345","861852","0.0-3.0-6.0-1.0-0.69","63ea74a7e00a26d45e75244c","6662009ae78f21dd82fcd179","66620b2d7e85da88b17d64d0","117","","j","","","","","","","","./tasks/HMM-beads/Images/NewTrialWC.png","lowH","1","69","0","1","1","1","true","",""
"image-keyboard-response","346","862165","0.0-3.0-6.0-1.0-1.69","63ea74a7e00a26d45e75244c","6662009ae78f21dd82fcd179","66620b2d7e85da88b17d64d0","null","","null","","","","","","","","./tasks/HMM-beads/Images/WhiteBeadChoice.png","","","","","","","","","",""
"image-keyboard-response","347","862668","0.0-3.0-6.0-1.0-2.69","63ea74a7e00a26d45e75244c","6662009ae78f21dd82fcd179","66620b2d7e85da88b17d64d0","null","","null","","","","","","","","./tasks/HMM-beads/Images/WhiteBeadChoiceCorrect.png","","","","","","","","","",""
"image-keyboard-response","348","863092","0.0-3.0-6.0-1.0-0.70","63ea74a7e00a26d45e75244c","6662009ae78f21dd82fcd179","66620b2d7e85da88b17d64d0","423","","j","","","","","","","","./tasks/HMM-beads/Images/NewTrialWC.png","lowH","1","70","0","1","1","1","true","",""
"image-keyboard-response","349","863395","0.0-3.0-6.0-1.0-1.70","63ea74a7e00a26d45e75244c","6662009ae78f21dd82fcd179","66620b2d7e85da88b17d64d0","null","","null","","","","","","","","./tasks/HMM-beads/Images/WhiteBeadChoice.png","","","","","","","","","",""
"image-keyboard-response","350","863900","0.0-3.0-6.0-1.0-2.70","63ea74a7e00a26d45e75244c","6662009ae78f21dd82fcd179","66620b2d7e85da88b17d64d0","null","","null","","","","","","","","./tasks/HMM-beads/Images/WhiteBeadChoiceCorrect.png","","","","","","","","","",""
"image-keyboard-response","351","864403","0.0-3.0-6.0-1.0-0.71","63ea74a7e00a26d45e75244c","6662009ae78f21dd82fcd179","66620b2d7e85da88b17d64d0","503","","f","","","","","","","","./tasks/HMM-beads/Images/NewTrialWC.png","lowH","1","71","0","0","1","0","true","",""
"image-keyboard-response","352","864710","0.0-3.0-6.0-1.0-1.71","63ea74a7e00a26d45e75244c","6662009ae78f21dd82fcd179","66620b2d7e85da88b17d64d0","null","","null","","","","","","","","./tasks/HMM-beads/Images/BlackBeadChoice.png","","","","","","","","","",""
"image-keyboard-response","353","865212","0.0-3.0-6.0-1.0-2.71","63ea74a7e00a26d45e75244c","6662009ae78f21dd82fcd179","66620b2d7e85da88b17d64d0","null","","null","","","","","","","","./tasks/HMM-beads/Images/BlackBeadChoiceCorrect.png","","","","","","","","","",""
"image-keyboard-response","354","865284","0.0-3.0-6.0-1.0-0.72","63ea74a7e00a26d45e75244c","6662009ae78f21dd82fcd179","66620b2d7e85da88b17d64d0","72","","f","","","","","","","","./tasks/HMM-beads/Images/NewTrialBC.png","lowH","1","72","0","0","0","0","true","",""
"image-keyboard-response","355","865592","0.0-3.0-6.0-1.0-1.72","63ea74a7e00a26d45e75244c","6662009ae78f21dd82fcd179","66620b2d7e85da88b17d64d0","null","","null","","","","","","","","./tasks/HMM-beads/Images/BlackBeadChoice.png","","","","","","","","","",""
"image-keyboard-response","356","866097","0.0-3.0-6.0-1.0-2.72","63ea74a7e00a26d45e75244c","6662009ae78f21dd82fcd179","66620b2d7e85da88b17d64d0","null","","null","","","","","","","","./tasks/HMM-beads/Images/BlackBeadChoiceCorrect.png","","","","","","","","","",""
"image-keyboard-response","357","866524","0.0-3.0-6.0-1.0-0.73","63ea74a7e00a26d45e75244c","6662009ae78f21dd82fcd179","66620b2d7e85da88b17d64d0","427","","f","","","","","","","","./tasks/HMM-beads/Images/NewTrialBC.png","lowH","1","73","0","1","0","0","false","",""
"image-keyboard-response","358","866832","0.0-3.0-6.0-1.0-1.73","63ea74a7e00a26d45e75244c","6662009ae78f21dd82fcd179","66620b2d7e85da88b17d64d0","null","","null","","","","","","","","./tasks/HMM-beads/Images/BlackBeadChoice.png","","","","","","","","","",""
"image-keyboard-response","359","867345","0.0-3.0-6.0-1.0-2.73","63ea74a7e00a26d45e75244c","6662009ae78f21dd82fcd179","66620b2d7e85da88b17d64d0","null","","null","","","","","","","","./tasks/HMM-beads/Images/BlackBeadChoiceWrong.png","","","","","","","","","",""
"image-keyboard-response","360","867403","0.0-3.0-6.0-1.0-0.74","63ea74a7e00a26d45e75244c","6662009ae78f21dd82fcd179","66620b2d7e85da88b17d64d0","59","","j","","","","","","","","./tasks/HMM-beads/Images/NewTrialWC.png","lowH","1","74","0","0","1","1","false","",""
"image-keyboard-response","361","867708","0.0-3.0-6.0-1.0-1.74","63ea74a7e00a26d45e75244c","6662009ae78f21dd82fcd179","66620b2d7e85da88b17d64d0","null","","null","","","","","","","","./tasks/HMM-beads/Images/WhiteBeadChoice.png","","","","","","","","","",""
"image-keyboard-response","362","868215","0.0-3.0-6.0-1.0-2.74","63ea74a7e00a26d45e75244c","6662009ae78f21dd82fcd179","66620b2d7e85da88b17d64d0","null","","null","","","","","","","","./tasks/HMM-beads/Images/WhiteBeadChoiceWrong.png","","","","","","","","","",""
"image-keyboard-response","363","868236","0.0-3.0-6.0-1.0-0.75","63ea74a7e00a26d45e75244c","6662009ae78f21dd82fcd179","66620b2d7e85da88b17d64d0","20","","f","","","","","","","","./tasks/HMM-beads/Images/NewTrialBC.png","lowH","1","75","0","1","0","0","false","",""
"image-keyboard-response","364","868548","0.0-3.0-6.0-1.0-1.75","63ea74a7e00a26d45e75244c","6662009ae78f21dd82fcd179","66620b2d7e85da88b17d64d0","null","","null","","","","","","","","./tasks/HMM-beads/Images/BlackBeadChoice.png","","","","","","","","","",""
"image-keyboard-response","365","869059","0.0-3.0-6.0-1.0-2.75","63ea74a7e00a26d45e75244c","6662009ae78f21dd82fcd179","66620b2d7e85da88b17d64d0","null","","null","","","","","","","","./tasks/HMM-beads/Images/BlackBeadChoiceWrong.png","","","","","","","","","",""
"image-keyboard-response","366","869115","0.0-3.0-6.0-1.0-0.76","63ea74a7e00a26d45e75244c","6662009ae78f21dd82fcd179","66620b2d7e85da88b17d64d0","57","","j","","","","","","","","./tasks/HMM-beads/Images/NewTrialWC.png","lowH","1","76","0","1","1","1","true","",""
"image-keyboard-response","367","869419","0.0-3.0-6.0-1.0-1.76","63ea74a7e00a26d45e75244c","6662009ae78f21dd82fcd179","66620b2d7e85da88b17d64d0","null","","null","","","","","","","","./tasks/HMM-beads/Images/WhiteBeadChoice.png","","","","","","","","","",""
"image-keyboard-response","368","869920","0.0-3.0-6.0-1.0-2.76","63ea74a7e00a26d45e75244c","6662009ae78f21dd82fcd179","66620b2d7e85da88b17d64d0","null","","null","","","","","","","","./tasks/HMM-beads/Images/WhiteBeadChoiceCorrect.png","","","","","","","","","",""
"image-keyboard-response","369","870092","0.0-3.0-6.0-1.0-0.77","63ea74a7e00a26d45e75244c","6662009ae78f21dd82fcd179","66620b2d7e85da88b17d64d0","171","","j","","","","","","","","./tasks/HMM-beads/Images/NewTrialWC.png","lowH","1","77","0","0","1","1","false","",""
"image-keyboard-response","370","870396","0.0-3.0-6.0-1.0-1.77","63ea74a7e00a26d45e75244c","6662009ae78f21dd82fcd179","66620b2d7e85da88b17d64d0","null","","null","","","","","","","","./tasks/HMM-beads/Images/WhiteBeadChoice.png","","","","","","","","","",""
"image-keyboard-response","371","870902","0.0-3.0-6.0-1.0-2.77","63ea74a7e00a26d45e75244c","6662009ae78f21dd82fcd179","66620b2d7e85da88b17d64d0","null","","null","","","","","","","","./tasks/HMM-beads/Images/WhiteBeadChoiceWrong.png","","","","","","","","","",""
"image-keyboard-response","372","870988","0.0-3.0-6.0-1.0-0.78","63ea74a7e00a26d45e75244c","6662009ae78f21dd82fcd179","66620b2d7e85da88b17d64d0","85","","f","","","","","","","","./tasks/HMM-beads/Images/NewTrialBC.png","lowH","1","78","0","0","0","0","true","",""
"image-keyboard-response","373","871299","0.0-3.0-6.0-1.0-1.78","63ea74a7e00a26d45e75244c","6662009ae78f21dd82fcd179","66620b2d7e85da88b17d64d0","null","","null","","","","","","","","./tasks/HMM-beads/Images/BlackBeadChoice.png","","","","","","","","","",""
