"trial_type","trial_index","time_elapsed","internal_node_id","subject_id","study_id","session_id","rt","url","response","question_order","view_history","success","timeout","failed_images","failed_audio","failed_video","stimulus","block","block_rep","trial_number","jar","bead","previous_bead","choice","correct","lowH_score","total_bonus"
"pavlovia","0","1219","0.0-0.0","5df0524c1217a00b60a0328d","6662009ae78f21dd82fcd179","666208df2b1c87908d265de9","","","","","","","","","","","","","","","","","","","","",""
"external-html","1","16924","0.0-1.0-0.0","5df0524c1217a00b60a0328d","6662009ae78f21dd82fcd179","666208df2b1c87908d265de9","15587","new_consent.html","","","","","","","","","","","","","","","","","","",""
"survey-multi-choice","2","23971","0.0-1.0-1.0","5df0524c1217a00b60a0328d","6662009ae78f21dd82fcd179","666208df2b1c87908d265de9","7046","","{""Q0"":""Female"",""Q1"":""White""}","[0,1]","","","","","","","","","","","","","","","","",""
"survey-text","3","28345","0.0-1.0-2.0","5df0524c1217a00b60a0328d","6662009ae78f21dd82fcd179","666208df2b1c87908d265de9","4372","","{""Q0"":""34""}","","","","","","","","","","","","","","","","","",""
"instructions","4","29985","0.0-2.0","5df0524c1217a00b60a0328d","6662009ae78f21dd82fcd179","666208df2b1c87908d265de9","1530","","","","[{""page_index"":0,""viewing_time"":1530}]","","","","","","","","","","","","","","","",""
"preload","5","31060","0.0-3.0-0.0","5df0524c1217a00b60a0328d","6662009ae78f21dd82fcd179","666208df2b1c87908d265de9","","","","","","true","false","[]","[]","[]","","","","","","","","","","",""
"instructions","6","161699","0.0-3.0-1.0","5df0524c1217a00b60a0328d","6662009ae78f21dd82fcd179","666208df2b1c87908d265de9","130639","","","","[{""page_index"":0,""viewing_time"":57138},{""page_index"":1,""viewing_time"":2971},{""page_index"":2,""viewing_time"":1640},{""page_index"":3,""viewing_time"":856},{""page_index"":4,""viewing_time"":3022},{""page_index"":5,""viewing_time"":19832},{""page_index"":6,""viewing_time"":2980},{""page_index"":7,""viewing_time"":4246},{""page_index"":8,""viewing_time"":3990},{""page_index"":9,""viewing_time"":1954},{""page_index"":10,""viewing_time"":24320},{""page_index"":11,""viewing_time"":7691}]","","","","","","","","","","","","","","","",""
"html-button-response","7","163667","0.0-3.0-2.0-0.0-0.0","5df0524c1217a00b60a0328d","6662009ae78f21dd82fcd179","666208df2b1c87908d265de9","1967","","1","","","","","","","","<div align=center>Your goal is to predict…?<br><br></div>","","","","","","","","","",""
"html-button-response","8","167540","0.0-3.0-2.0-1.0-0.0","5df0524c1217a00b60a0328d","6662009ae78f21dd82fcd179","666208df2b1c87908d265de9","2721","","2","","","","","","","","<div align=center>In the jar with mostly white beads, there are ___% white beads and ___% black beads?<br><br></div>","","","","","","","","","",""
"html-button-response","9","173059","0.0-3.0-2.0-2.0-0.0","5df0524c1217a00b60a0328d","6662009ae78f21dd82fcd179","666208df2b1c87908d265de9","4547","","0","","","","","","","","<div align=center>When there is a 1% probability that the jars will switch, the next bead will most likely be drawn from the…<br><br></div>","","","","","","","","","",""
"html-button-response","10","175666","0.0-3.0-2.0-3.0-0.0","5df0524c1217a00b60a0328d","6662009ae78f21dd82fcd179","666208df2b1c87908d265de9","1582","","1","","","","","","","","<div align=center>When there is a 99% probability that the jars will switch, the next bead will most likely be drawn from the…<br><br></div>","","","","","","","","","",""
"instructions","11","190324","0.0-3.0-3.0","5df0524c1217a00b60a0328d","6662009ae78f21dd82fcd179","666208df2b1c87908d265de9","13919","","","","[{""page_index"":0,""viewing_time"":13919}]","","","","","","","","","","","","","","","",""
"html-keyboard-response","12","209015","0.0-3.0-4.0-0.0","5df0524c1217a00b60a0328d","6662009ae78f21dd82fcd179","666208df2b1c87908d265de9","18690",""," ","","","","","","","","<div align=center>In this practice block, there will be a <b>1% chance</b> that the jar on the next trial will be different from the jar on the current trial.<br><br></div>","","","","","","","","","",""
"image-keyboard-response","13","212672","0.0-3.0-4.0-1.0-0.0","5df0524c1217a00b60a0328d","6662009ae78f21dd82fcd179","666208df2b1c87908d265de9","3653","","f","","","","","","","","./tasks/HMM-beads/Images/NoChoice.png","practice","0","0","0","0","9","0","true","",""
"image-keyboard-response","14","212980","0.0-3.0-4.0-1.0-1.0","5df0524c1217a00b60a0328d","6662009ae78f21dd82fcd179","666208df2b1c87908d265de9","null","","null","","","","","","","","./tasks/HMM-beads/Images/BlackBeadChoice.png","","","","","","","","","",""
"image-keyboard-response","15","213494","0.0-3.0-4.0-1.0-2.0","5df0524c1217a00b60a0328d","6662009ae78f21dd82fcd179","666208df2b1c87908d265de9","null","","null","","","","","","","","./tasks/HMM-beads/Images/BlackBeadChoiceCorrect.png","","","","","","","","","",""
"image-keyboard-response","16","216657","0.0-3.0-4.0-1.0-0.1","5df0524c1217a00b60a0328d","6662009ae78f21dd82fcd179","666208df2b1c87908d265de9","3159","","j","","","","","","","","./tasks/HMM-beads/Images/NewTrialBC.png","practice","0","1","0","0","0","1","false","",""
"image-keyboard-response","17","216970","0.0-3.0-4.0-1.0-1.1","5df0524c1217a00b60a0328d","6662009ae78f21dd82fcd179","666208df2b1c87908d265de9","null","","null","","","","","","","","./tasks/HMM-beads/Images/WhiteBeadChoice.png","","","","","","","","","",""
"image-keyboard-response","18","217480","0.0-3.0-4.0-1.0-2.1","5df0524c1217a00b60a0328d","6662009ae78f21dd82fcd179","666208df2b1c87908d265de9","null","","null","","","","","","","","./tasks/HMM-beads/Images/WhiteBeadChoiceWrong.png","","","","","","","","","",""
"image-keyboard-response","19","220438","0.0-3.0-4.0-1.0-0.2","5df0524c1217a00b60a0328d","6662009ae78f21dd82fcd179","666208df2b1c87908d265de9","2956","","f","","","","","","","","./tasks/HMM-beads/Images/NewTrialBC.png","practice","0","2","0","1","0","0","false","",""
"image-keyboard-response","20","220742","0.0-3.0-4.0-1.0-1.2","5df0524c1217a00b60a0328d","6662009ae78f21dd82fcd179","666208df2b1c87908d265de9","null","","null","","","","","","","","./tasks/HMM-beads/Images/BlackBeadChoice.png","","","","","","","","","",""
"image-keyboard-response","21","221255","0.0-3.0-4.0-1.0-2.2","5df0524c1217a00b60a0328d","6662009ae78f21dd82fcd179","666208df2b1c87908d265de9","null","","null","","","","","","","","./tasks/HMM-beads/Images/BlackBeadChoiceWrong.png","","","","","","","","","",""
"image-keyboard-response","22","221820","0.0-3.0-4.0-1.0-0.3","5df0524c1217a00b60a0328d","6662009ae78f21dd82fcd179","666208df2b1c87908d265de9","561","","f","","","","","","","","./tasks/HMM-beads/Images/NewTrialWC.png","practice","0","3","0","0","1","0","true","",""
"image-keyboard-response","23","222132","0.0-3.0-4.0-1.0-1.3","5df0524c1217a00b60a0328d","6662009ae78f21dd82fcd179","666208df2b1c87908d265de9","null","","null","","","","","","","","./tasks/HMM-beads/Images/BlackBeadChoice.png","","","","","","","","","",""
"image-keyboard-response","24","222644","0.0-3.0-4.0-1.0-2.3","5df0524c1217a00b60a0328d","6662009ae78f21dd82fcd179","666208df2b1c87908d265de9","null","","null","","","","","","","","./tasks/HMM-beads/Images/BlackBeadChoiceCorrect.png","","","","","","","","","",""
"image-keyboard-response","25","224789","0.0-3.0-4.0-1.0-0.4","5df0524c1217a00b60a0328d","6662009ae78f21dd82fcd179","666208df2b1c87908d265de9","2142","","f","","","","","","","","./tasks/HMM-beads/Images/NewTrialBC.png","practice","0","4","0","0","0","0","true","",""
"image-keyboard-response","26","225103","0.0-3.0-4.0-1.0-1.4","5df0524c1217a00b60a0328d","6662009ae78f21dd82fcd179","666208df2b1c87908d265de9","null","","null","","","","","","","","./tasks/HMM-beads/Images/BlackBeadChoice.png","","","","","","","","","",""
"image-keyboard-response","27","225618","0.0-3.0-4.0-1.0-2.4","5df0524c1217a00b60a0328d","6662009ae78f21dd82fcd179","666208df2b1c87908d265de9","null","","null","","","","","","","","./tasks/HMM-beads/Images/BlackBeadChoiceCorrect.png","","","","","","","","","",""
"image-keyboard-response","28","226495","0.0-3.0-4.0-1.0-0.5","5df0524c1217a00b60a0328d","6662009ae78f21dd82fcd179","666208df2b1c87908d265de9","875","","j","","","","","","","","./tasks/HMM-beads/Images/NewTrialBC.png","practice","0","5","0","1","0","1","true","",""
"image-keyboard-response","29","226814","0.0-3.0-4.0-1.0-1.5","5df0524c1217a00b60a0328d","6662009ae78f21dd82fcd179","666208df2b1c87908d265de9","null","","null","","","","","","","","./tasks/HMM-beads/Images/WhiteBeadChoice.png","","","","","","","","","",""
"image-keyboard-response","30","227324","0.0-3.0-4.0-1.0-2.5","5df0524c1217a00b60a0328d","6662009ae78f21dd82fcd179","666208df2b1c87908d265de9","null","","null","","","","","","","","./tasks/HMM-beads/Images/WhiteBeadChoiceCorrect.png","","","","","","","","","",""
"image-keyboard-response","31","228688","0.0-3.0-4.0-1.0-0.6","5df0524c1217a00b60a0328d","6662009ae78f21dd82fcd179","666208df2b1c87908d265de9","1361","","j","","","","","","","","./tasks/HMM-beads/Images/NewTrialWC.png","practice","0","6","0","0","1","1","false","",""
"image-keyboard-response","32","228990","0.0-3.0-4.0-1.0-1.6","5df0524c1217a00b60a0328d","6662009ae78f21dd82fcd179","666208df2b1c87908d265de9","null","","null","","","","","","","","./tasks/HMM-beads/Images/WhiteBeadChoice.png","","","","","","","","","",""
"image-keyboard-response","33","229495","0.0-3.0-4.0-1.0-2.6","5df0524c1217a00b60a0328d","6662009ae78f21dd82fcd179","666208df2b1c87908d265de9","null","","null","","","","","","","","./tasks/HMM-beads/Images/WhiteBeadChoiceWrong.png","","","","","","","","","",""
"image-keyboard-response","34","229828","0.0-3.0-4.0-1.0-0.7","5df0524c1217a00b60a0328d","6662009ae78f21dd82fcd179","666208df2b1c87908d265de9","331","","f","","","","","","","","./tasks/HMM-beads/Images/NewTrialBC.png","practice","0","7","0","0","0","0","true","",""
"image-keyboard-response","35","230139","0.0-3.0-4.0-1.0-1.7","5df0524c1217a00b60a0328d","6662009ae78f21dd82fcd179","666208df2b1c87908d265de9","null","","null","","","","","","","","./tasks/HMM-beads/Images/BlackBeadChoice.png","","","","","","","","","",""
"image-keyboard-response","36","230644","0.0-3.0-4.0-1.0-2.7","5df0524c1217a00b60a0328d","6662009ae78f21dd82fcd179","666208df2b1c87908d265de9","null","","null","","","","","","","","./tasks/HMM-beads/Images/BlackBeadChoiceCorrect.png","","","","","","","","","",""
"image-keyboard-response","37","231280","0.0-3.0-4.0-1.0-0.8","5df0524c1217a00b60a0328d","6662009ae78f21dd82fcd179","666208df2b1c87908d265de9","632","","f","","","","","","","","./tasks/HMM-beads/Images/NewTrialBC.png","practice","0","8","0","0","0","0","true","",""
"image-keyboard-response","38","231583","0.0-3.0-4.0-1.0-1.8","5df0524c1217a00b60a0328d","6662009ae78f21dd82fcd179","666208df2b1c87908d265de9","null","","null","","","","","","","","./tasks/HMM-beads/Images/BlackBeadChoice.png","","","","","","","","","",""
"image-keyboard-response","39","232098","0.0-3.0-4.0-1.0-2.8","5df0524c1217a00b60a0328d","6662009ae78f21dd82fcd179","666208df2b1c87908d265de9","null","","null","","","","","","","","./tasks/HMM-beads/Images/BlackBeadChoiceCorrect.png","","","","","","","","","",""
"image-keyboard-response","40","233016","0.0-3.0-4.0-1.0-0.9","5df0524c1217a00b60a0328d","6662009ae78f21dd82fcd179","666208df2b1c87908d265de9","915","","f","","","","","","","","./tasks/HMM-beads/Images/NewTrialBC.png","practice","0","9","0","1","0","0","false","",""
"image-keyboard-response","41","233325","0.0-3.0-4.0-1.0-1.9","5df0524c1217a00b60a0328d","6662009ae78f21dd82fcd179","666208df2b1c87908d265de9","null","","null","","","","","","","","./tasks/HMM-beads/Images/BlackBeadChoice.png","","","","","","","","","",""
"image-keyboard-response","42","233834","0.0-3.0-4.0-1.0-2.9","5df0524c1217a00b60a0328d","6662009ae78f21dd82fcd179","666208df2b1c87908d265de9","null","","null","","","","","","","","./tasks/HMM-beads/Images/BlackBeadChoiceWrong.png","","","","","","","","","",""
"image-keyboard-response","43","234382","0.0-3.0-4.0-1.0-0.10","5df0524c1217a00b60a0328d","6662009ae78f21dd82fcd179","666208df2b1c87908d265de9","545","","f","","","","","","","","./tasks/HMM-beads/Images/NewTrialWC.png","practice","0","10","0","0","1","0","true","",""
"image-keyboard-response","44","234687","0.0-3.0-4.0-1.0-1.10","5df0524c1217a00b60a0328d","6662009ae78f21dd82fcd179","666208df2b1c87908d265de9","null","","null","","","","","","","","./tasks/HMM-beads/Images/BlackBeadChoice.png","","","","","","","","","",""
"image-keyboard-response","45","235194","0.0-3.0-4.0-1.0-2.10","5df0524c1217a00b60a0328d","6662009ae78f21dd82fcd179","666208df2b1c87908d265de9","null","","null","","","","","","","","./tasks/HMM-beads/Images/BlackBeadChoiceCorrect.png","","","","","","","","","",""
"image-keyboard-response","46","235892","0.0-3.0-4.0-1.0-0.11","5df0524c1217a00b60a0328d","6662009ae78f21dd82fcd179","666208df2b1c87908d265de9","695","","f","","","","","","","","./tasks/HMM-beads/Images/NewTrialBC.png","practice","0","11","0","1","0","0","false","",""
"image-keyboard-response","47","236199","0.0-3.0-4.0-1.0-1.11","5df0524c1217a00b60a0328d","6662009ae78f21dd82fcd179","666208df2b1c87908d265de9","null","","null","","","","","","","","./tasks/HMM-beads/Images/BlackBeadChoice.png","","","","","","","","","",""
"image-keyboard-response","48","236711","0.0-3.0-4.0-1.0-2.11","5df0524c1217a00b60a0328d","6662009ae78f21dd82fcd179","666208df2b1c87908d265de9","null","","null","","","","","","","","./tasks/HMM-beads/Images/BlackBeadChoiceWrong.png","","","","","","","","","",""
"image-keyboard-response","49","237243","0.0-3.0-4.0-1.0-0.12","5df0524c1217a00b60a0328d","6662009ae78f21dd82fcd179","666208df2b1c87908d265de9","528","","j","","","","","","","","./tasks/HMM-beads/Images/NewTrialWC.png","practice","0","12","0","0","1","1","false","",""
"image-keyboard-response","50","237560","0.0-3.0-4.0-1.0-1.12","5df0524c1217a00b60a0328d","6662009ae78f21dd82fcd179","666208df2b1c87908d265de9","null","","null","","","","","","","","./tasks/HMM-beads/Images/WhiteBeadChoice.png","","","","","","","","","",""
"image-keyboard-response","51","238075","0.0-3.0-4.0-1.0-2.12","5df0524c1217a00b60a0328d","6662009ae78f21dd82fcd179","666208df2b1c87908d265de9","null","","null","","","","","","","","./tasks/HMM-beads/Images/WhiteBeadChoiceWrong.png","","","","","","","","","",""
"image-keyboard-response","52","238438","0.0-3.0-4.0-1.0-0.13","5df0524c1217a00b60a0328d","6662009ae78f21dd82fcd179","666208df2b1c87908d265de9","362","","j","","","","","","","","./tasks/HMM-beads/Images/NewTrialBC.png","practice","0","13","0","0","0","1","false","",""
"image-keyboard-response","53","238745","0.0-3.0-4.0-1.0-1.13","5df0524c1217a00b60a0328d","6662009ae78f21dd82fcd179","666208df2b1c87908d265de9","null","","null","","","","","","","","./tasks/HMM-beads/Images/WhiteBeadChoice.png","","","","","","","","","",""
"image-keyboard-response","54","239264","0.0-3.0-4.0-1.0-2.13","5df0524c1217a00b60a0328d","6662009ae78f21dd82fcd179","666208df2b1c87908d265de9","null","","null","","","","","","","","./tasks/HMM-beads/Images/WhiteBeadChoiceWrong.png","","","","","","","","","",""
"image-keyboard-response","55","240860","0.0-3.0-4.0-1.0-0.14","5df0524c1217a00b60a0328d","6662009ae78f21dd82fcd179","666208df2b1c87908d265de9","1594","","j","","","","","","","","./tasks/HMM-beads/Images/NewTrialBC.png","practice","0","14","0","0","0","1","false","",""
"image-keyboard-response","56","241167","0.0-3.0-4.0-1.0-1.14","5df0524c1217a00b60a0328d","6662009ae78f21dd82fcd179","666208df2b1c87908d265de9","null","","null","","","","","","","","./tasks/HMM-beads/Images/WhiteBeadChoice.png","","","","","","","","","",""
"image-keyboard-response","57","241672","0.0-3.0-4.0-1.0-2.14","5df0524c1217a00b60a0328d","6662009ae78f21dd82fcd179","666208df2b1c87908d265de9","null","","null","","","","","","","","./tasks/HMM-beads/Images/WhiteBeadChoiceWrong.png","","","","","","","","","",""
"image-keyboard-response","58","242155","0.0-3.0-4.0-1.0-0.15","5df0524c1217a00b60a0328d","6662009ae78f21dd82fcd179","666208df2b1c87908d265de9","482","","f","","","","","","","","./tasks/HMM-beads/Images/NewTrialBC.png","practice","0","15","0","0","0","0","true","",""
"image-keyboard-response","59","242457","0.0-3.0-4.0-1.0-1.15","5df0524c1217a00b60a0328d","6662009ae78f21dd82fcd179","666208df2b1c87908d265de9","null","","null","","","","","","","","./tasks/HMM-beads/Images/BlackBeadChoice.png","","","","","","","","","",""
"image-keyboard-response","60","242963","0.0-3.0-4.0-1.0-2.15","5df0524c1217a00b60a0328d","6662009ae78f21dd82fcd179","666208df2b1c87908d265de9","null","","null","","","","","","","","./tasks/HMM-beads/Images/BlackBeadChoiceCorrect.png","","","","","","","","","",""
"image-keyboard-response","61","243482","0.0-3.0-4.0-1.0-0.16","5df0524c1217a00b60a0328d","6662009ae78f21dd82fcd179","666208df2b1c87908d265de9","517","","f","","","","","","","","./tasks/HMM-beads/Images/NewTrialBC.png","practice","0","16","0","0","0","0","true","",""
"image-keyboard-response","62","243789","0.0-3.0-4.0-1.0-1.16","5df0524c1217a00b60a0328d","6662009ae78f21dd82fcd179","666208df2b1c87908d265de9","null","","null","","","","","","","","./tasks/HMM-beads/Images/BlackBeadChoice.png","","","","","","","","","",""
"image-keyboard-response","63","244302","0.0-3.0-4.0-1.0-2.16","5df0524c1217a00b60a0328d","6662009ae78f21dd82fcd179","666208df2b1c87908d265de9","null","","null","","","","","","","","./tasks/HMM-beads/Images/BlackBeadChoiceCorrect.png","","","","","","","","","",""
"image-keyboard-response","64","245086","0.0-3.0-4.0-1.0-0.17","5df0524c1217a00b60a0328d","6662009ae78f21dd82fcd179","666208df2b1c87908d265de9","781","","f","","","","","","","","./tasks/HMM-beads/Images/NewTrialBC.png","practice","0","17","0","0","0","0","true","",""
"image-keyboard-response","65","245393","0.0-3.0-4.0-1.0-1.17","5df0524c1217a00b60a0328d","6662009ae78f21dd82fcd179","666208df2b1c87908d265de9","null","","null","","","","","","","","./tasks/HMM-beads/Images/BlackBeadChoice.png","","","","","","","","","",""
"image-keyboard-response","66","245901","0.0-3.0-4.0-1.0-2.17","5df0524c1217a00b60a0328d","6662009ae78f21dd82fcd179","666208df2b1c87908d265de9","null","","null","","","","","","","","./tasks/HMM-beads/Images/BlackBeadChoiceCorrect.png","","","","","","","","","",""
"image-keyboard-response","67","246640","0.0-3.0-4.0-1.0-0.18","5df0524c1217a00b60a0328d","6662009ae78f21dd82fcd179","666208df2b1c87908d265de9","737","","f","","","","","","","","./tasks/HMM-beads/Images/NewTrialBC.png","practice","0","18","0","1","0","0","false","",""
"image-keyboard-response","68","246943","0.0-3.0-4.0-1.0-1.18","5df0524c1217a00b60a0328d","6662009ae78f21dd82fcd179","666208df2b1c87908d265de9","null","","null","","","","","","","","./tasks/HMM-beads/Images/BlackBeadChoice.png","","","","","","","","","",""
"image-keyboard-response","69","247447","0.0-3.0-4.0-1.0-2.18","5df0524c1217a00b60a0328d","6662009ae78f21dd82fcd179","666208df2b1c87908d265de9","null","","null","","","","","","","","./tasks/HMM-beads/Images/BlackBeadChoiceWrong.png","","","","","","","","","",""
"image-keyboard-response","70","249081","0.0-3.0-4.0-1.0-0.19","5df0524c1217a00b60a0328d","6662009ae78f21dd82fcd179","666208df2b1c87908d265de9","1631","","f","","","","","","","","./tasks/HMM-beads/Images/NewTrialWC.png","practice","0","19","0","0","1","0","true","",""
"image-keyboard-response","71","249394","0.0-3.0-4.0-1.0-1.19","5df0524c1217a00b60a0328d","6662009ae78f21dd82fcd179","666208df2b1c87908d265de9","null","","null","","","","","","","","./tasks/HMM-beads/Images/BlackBeadChoice.png","","","","","","","","","",""
"image-keyboard-response","72","249910","0.0-3.0-4.0-1.0-2.19","5df0524c1217a00b60a0328d","6662009ae78f21dd82fcd179","666208df2b1c87908d265de9","null","","null","","","","","","","","./tasks/HMM-beads/Images/BlackBeadChoiceCorrect.png","","","","","","","","","",""
"image-keyboard-response","73","250426","0.0-3.0-4.0-1.0-0.20","5df0524c1217a00b60a0328d","6662009ae78f21dd82fcd179","666208df2b1c87908d265de9","512","","j","","","","","","","","./tasks/HMM-beads/Images/NewTrialBC.png","practice","0","20","0","0","0","1","false","",""
"image-keyboard-response","74","250740","0.0-3.0-4.0-1.0-1.20","5df0524c1217a00b60a0328d","6662009ae78f21dd82fcd179","666208df2b1c87908d265de9","null","","null","","","","","","","","./tasks/HMM-beads/Images/WhiteBeadChoice.png","","","","","","","","","",""
"image-keyboard-response","75","251255","0.0-3.0-4.0-1.0-2.20","5df0524c1217a00b60a0328d","6662009ae78f21dd82fcd179","666208df2b1c87908d265de9","null","","null","","","","","","","","./tasks/HMM-beads/Images/WhiteBeadChoiceWrong.png","","","","","","","","","",""
"image-keyboard-response","76","251714","0.0-3.0-4.0-1.0-0.21","5df0524c1217a00b60a0328d","6662009ae78f21dd82fcd179","666208df2b1c87908d265de9","457","","f","","","","","","","","./tasks/HMM-beads/Images/NewTrialBC.png","practice","0","21","0","1","0","0","false","",""
"image-keyboard-response","77","252022","0.0-3.0-4.0-1.0-1.21","5df0524c1217a00b60a0328d","6662009ae78f21dd82fcd179","666208df2b1c87908d265de9","null","","null","","","","","","","","./tasks/HMM-beads/Images/BlackBeadChoice.png","","","","","","","","","",""
"image-keyboard-response","78","252535","0.0-3.0-4.0-1.0-2.21","5df0524c1217a00b60a0328d","6662009ae78f21dd82fcd179","666208df2b1c87908d265de9","null","","null","","","","","","","","./tasks/HMM-beads/Images/BlackBeadChoiceWrong.png","","","","","","","","","",""
"image-keyboard-response","79","253164","0.0-3.0-4.0-1.0-0.22","5df0524c1217a00b60a0328d","6662009ae78f21dd82fcd179","666208df2b1c87908d265de9","627","","f","","","","","","","","./tasks/HMM-beads/Images/NewTrialWC.png","practice","0","22","1","1","1","0","false","",""
"image-keyboard-response","80","253478","0.0-3.0-4.0-1.0-1.22","5df0524c1217a00b60a0328d","6662009ae78f21dd82fcd179","666208df2b1c87908d265de9","null","","null","","","","","","","","./tasks/HMM-beads/Images/BlackBeadChoice.png","","","","","","","","","",""
"image-keyboard-response","81","253990","0.0-3.0-4.0-1.0-2.22","5df0524c1217a00b60a0328d","6662009ae78f21dd82fcd179","666208df2b1c87908d265de9","null","","null","","","","","","","","./tasks/HMM-beads/Images/BlackBeadChoiceWrong.png","","","","","","","","","",""
"image-keyboard-response","82","254281","0.0-3.0-4.0-1.0-0.23","5df0524c1217a00b60a0328d","6662009ae78f21dd82fcd179","666208df2b1c87908d265de9","288","","j","","","","","","","","./tasks/HMM-beads/Images/NewTrialWC.png","practice","0","23","1","0","1","1","false","",""
"image-keyboard-response","83","254592","0.0-3.0-4.0-1.0-1.23","5df0524c1217a00b60a0328d","6662009ae78f21dd82fcd179","666208df2b1c87908d265de9","null","","null","","","","","","","","./tasks/HMM-beads/Images/WhiteBeadChoice.png","","","","","","","","","",""
"image-keyboard-response","84","255103","0.0-3.0-4.0-1.0-2.23","5df0524c1217a00b60a0328d","6662009ae78f21dd82fcd179","666208df2b1c87908d265de9","null","","null","","","","","","","","./tasks/HMM-beads/Images/WhiteBeadChoiceWrong.png","","","","","","","","","",""
"image-keyboard-response","85","255892","0.0-3.0-4.0-1.0-0.24","5df0524c1217a00b60a0328d","6662009ae78f21dd82fcd179","666208df2b1c87908d265de9","786","","f","","","","","","","","./tasks/HMM-beads/Images/NewTrialBC.png","practice","0","24","1","1","0","0","false","",""
"image-keyboard-response","86","256202","0.0-3.0-4.0-1.0-1.24","5df0524c1217a00b60a0328d","6662009ae78f21dd82fcd179","666208df2b1c87908d265de9","null","","null","","","","","","","","./tasks/HMM-beads/Images/BlackBeadChoice.png","","","","","","","","","",""
"image-keyboard-response","87","256716","0.0-3.0-4.0-1.0-2.24","5df0524c1217a00b60a0328d","6662009ae78f21dd82fcd179","666208df2b1c87908d265de9","null","","null","","","","","","","","./tasks/HMM-beads/Images/BlackBeadChoiceWrong.png","","","","","","","","","",""
"image-keyboard-response","88","256992","0.0-3.0-4.0-1.0-0.25","5df0524c1217a00b60a0328d","6662009ae78f21dd82fcd179","666208df2b1c87908d265de9","274","","j","","","","","","","","./tasks/HMM-beads/Images/NewTrialWC.png","practice","0","25","1","1","1","1","true","",""
"image-keyboard-response","89","257302","0.0-3.0-4.0-1.0-1.25","5df0524c1217a00b60a0328d","6662009ae78f21dd82fcd179","666208df2b1c87908d265de9","null","","null","","","","","","","","./tasks/HMM-beads/Images/WhiteBeadChoice.png","","","","","","","","","",""
"image-keyboard-response","90","257819","0.0-3.0-4.0-1.0-2.25","5df0524c1217a00b60a0328d","6662009ae78f21dd82fcd179","666208df2b1c87908d265de9","null","","null","","","","","","","","./tasks/HMM-beads/Images/WhiteBeadChoiceCorrect.png","","","","","","","","","",""
"image-keyboard-response","91","258439","0.0-3.0-4.0-1.0-0.26","5df0524c1217a00b60a0328d","6662009ae78f21dd82fcd179","666208df2b1c87908d265de9","617","","j","","","","","","","","./tasks/HMM-beads/Images/NewTrialWC.png","practice","0","26","1","1","1","1","true","",""
"image-keyboard-response","92","258752","0.0-3.0-4.0-1.0-1.26","5df0524c1217a00b60a0328d","6662009ae78f21dd82fcd179","666208df2b1c87908d265de9","null","","null","","","","","","","","./tasks/HMM-beads/Images/WhiteBeadChoice.png","","","","","","","","","",""
"image-keyboard-response","93","259262","0.0-3.0-4.0-1.0-2.26","5df0524c1217a00b60a0328d","6662009ae78f21dd82fcd179","666208df2b1c87908d265de9","null","","null","","","","","","","","./tasks/HMM-beads/Images/WhiteBeadChoiceCorrect.png","","","","","","","","","",""
"image-keyboard-response","94","259758","0.0-3.0-4.0-1.0-0.27","5df0524c1217a00b60a0328d","6662009ae78f21dd82fcd179","666208df2b1c87908d265de9","496","","j","","","","","","","","./tasks/HMM-beads/Images/NewTrialWC.png","practice","0","27","1","1","1","1","true","",""
"image-keyboard-response","95","260073","0.0-3.0-4.0-1.0-1.27","5df0524c1217a00b60a0328d","6662009ae78f21dd82fcd179","666208df2b1c87908d265de9","null","","null","","","","","","","","./tasks/HMM-beads/Images/WhiteBeadChoice.png","","","","","","","","","",""
"image-keyboard-response","96","260579","0.0-3.0-4.0-1.0-2.27","5df0524c1217a00b60a0328d","6662009ae78f21dd82fcd179","666208df2b1c87908d265de9","null","","null","","","","","","","","./tasks/HMM-beads/Images/WhiteBeadChoiceCorrect.png","","","","","","","","","",""
"image-keyboard-response","97","261427","0.0-3.0-4.0-1.0-0.28","5df0524c1217a00b60a0328d","6662009ae78f21dd82fcd179","666208df2b1c87908d265de9","845","","j","","","","","","","","./tasks/HMM-beads/Images/NewTrialWC.png","practice","0","28","1","0","1","1","false","",""
"image-keyboard-response","98","261730","0.0-3.0-4.0-1.0-1.28","5df0524c1217a00b60a0328d","6662009ae78f21dd82fcd179","666208df2b1c87908d265de9","null","","null","","","","","","","","./tasks/HMM-beads/Images/WhiteBeadChoice.png","","","","","","","","","",""
"image-keyboard-response","99","262240","0.0-3.0-4.0-1.0-2.28","5df0524c1217a00b60a0328d","6662009ae78f21dd82fcd179","666208df2b1c87908d265de9","null","","null","","","","","","","","./tasks/HMM-beads/Images/WhiteBeadChoiceWrong.png","","","","","","","","","",""
"image-keyboard-response","100","262802","0.0-3.0-4.0-1.0-0.29","5df0524c1217a00b60a0328d","6662009ae78f21dd82fcd179","666208df2b1c87908d265de9","561","","j","","","","","","","","./tasks/HMM-beads/Images/NewTrialBC.png","practice","0","29","1","1","0","1","true","",""
"image-keyboard-response","101","263114","0.0-3.0-4.0-1.0-1.29","5df0524c1217a00b60a0328d","6662009ae78f21dd82fcd179","666208df2b1c87908d265de9","null","","null","","","","","","","","./tasks/HMM-beads/Images/WhiteBeadChoice.png","","","","","","","","","",""
"image-keyboard-response","102","263624","0.0-3.0-4.0-1.0-2.29","5df0524c1217a00b60a0328d","6662009ae78f21dd82fcd179","666208df2b1c87908d265de9","null","","null","","","","","","","","./tasks/HMM-beads/Images/WhiteBeadChoiceCorrect.png","","","","","","","","","",""
"image-keyboard-response","103","264026","0.0-3.0-4.0-1.0-0.30","5df0524c1217a00b60a0328d","6662009ae78f21dd82fcd179","666208df2b1c87908d265de9","398","","f","","","","","","","","./tasks/HMM-beads/Images/NewTrialWC.png","practice","0","30","1","0","1","0","true","",""
"image-keyboard-response","104","264335","0.0-3.0-4.0-1.0-1.30","5df0524c1217a00b60a0328d","6662009ae78f21dd82fcd179","666208df2b1c87908d265de9","null","","null","","","","","","","","./tasks/HMM-beads/Images/BlackBeadChoice.png","","","","","","","","","",""
"image-keyboard-response","105","264844","0.0-3.0-4.0-1.0-2.30","5df0524c1217a00b60a0328d","6662009ae78f21dd82fcd179","666208df2b1c87908d265de9","null","","null","","","","","","","","./tasks/HMM-beads/Images/BlackBeadChoiceCorrect.png","","","","","","","","","",""
"image-keyboard-response","106","265438","0.0-3.0-4.0-1.0-0.31","5df0524c1217a00b60a0328d","6662009ae78f21dd82fcd179","666208df2b1c87908d265de9","591","","f","","","","","","","","./tasks/HMM-beads/Images/NewTrialBC.png","practice","0","31","1","1","0","0","false","",""
"image-keyboard-response","107","265755","0.0-3.0-4.0-1.0-1.31","5df0524c1217a00b60a0328d","6662009ae78f21dd82fcd179","666208df2b1c87908d265de9","null","","null","","","","","","","","./tasks/HMM-beads/Images/BlackBeadChoice.png","","","","","","","","","",""
"image-keyboard-response","108","266271","0.0-3.0-4.0-1.0-2.31","5df0524c1217a00b60a0328d","6662009ae78f21dd82fcd179","666208df2b1c87908d265de9","null","","null","","","","","","","","./tasks/HMM-beads/Images/BlackBeadChoiceWrong.png","","","","","","","","","",""
"image-keyboard-response","109","266640","0.0-3.0-4.0-1.0-0.32","5df0524c1217a00b60a0328d","6662009ae78f21dd82fcd179","666208df2b1c87908d265de9","368","","j","","","","","","","","./tasks/HMM-beads/Images/NewTrialWC.png","practice","0","32","1","1","1","1","true","",""
"image-keyboard-response","110","266949","0.0-3.0-4.0-1.0-1.32","5df0524c1217a00b60a0328d","6662009ae78f21dd82fcd179","666208df2b1c87908d265de9","null","","null","","","","","","","","./tasks/HMM-beads/Images/WhiteBeadChoice.png","","","","","","","","","",""
"image-keyboard-response","111","267455","0.0-3.0-4.0-1.0-2.32","5df0524c1217a00b60a0328d","6662009ae78f21dd82fcd179","666208df2b1c87908d265de9","null","","null","","","","","","","","./tasks/HMM-beads/Images/WhiteBeadChoiceCorrect.png","","","","","","","","","",""
"image-keyboard-response","112","267845","0.0-3.0-4.0-1.0-0.33","5df0524c1217a00b60a0328d","6662009ae78f21dd82fcd179","666208df2b1c87908d265de9","387","","j","","","","","","","","./tasks/HMM-beads/Images/NewTrialWC.png","practice","0","33","1","1","1","1","true","",""
"image-keyboard-response","113","268148","0.0-3.0-4.0-1.0-1.33","5df0524c1217a00b60a0328d","6662009ae78f21dd82fcd179","666208df2b1c87908d265de9","null","","null","","","","","","","","./tasks/HMM-beads/Images/WhiteBeadChoice.png","","","","","","","","","",""
"image-keyboard-response","114","268658","0.0-3.0-4.0-1.0-2.33","5df0524c1217a00b60a0328d","6662009ae78f21dd82fcd179","666208df2b1c87908d265de9","null","","null","","","","","","","","./tasks/HMM-beads/Images/WhiteBeadChoiceCorrect.png","","","","","","","","","",""
"image-keyboard-response","115","268987","0.0-3.0-4.0-1.0-0.34","5df0524c1217a00b60a0328d","6662009ae78f21dd82fcd179","666208df2b1c87908d265de9","326","","j","","","","","","","","./tasks/HMM-beads/Images/NewTrialWC.png","practice","0","34","1","1","1","1","true","",""
"image-keyboard-response","116","269296","0.0-3.0-4.0-1.0-1.34","5df0524c1217a00b60a0328d","6662009ae78f21dd82fcd179","666208df2b1c87908d265de9","null","","null","","","","","","","","./tasks/HMM-beads/Images/WhiteBeadChoice.png","","","","","","","","","",""
"image-keyboard-response","117","269800","0.0-3.0-4.0-1.0-2.34","5df0524c1217a00b60a0328d","6662009ae78f21dd82fcd179","666208df2b1c87908d265de9","null","","null","","","","","","","","./tasks/HMM-beads/Images/WhiteBeadChoiceCorrect.png","","","","","","","","","",""
"image-keyboard-response","118","270054","0.0-3.0-4.0-1.0-0.35","5df0524c1217a00b60a0328d","6662009ae78f21dd82fcd179","666208df2b1c87908d265de9","252","","j","","","","","","","","./tasks/HMM-beads/Images/NewTrialWC.png","practice","0","35","1","1","1","1","true","",""
"image-keyboard-response","119","270368","0.0-3.0-4.0-1.0-1.35","5df0524c1217a00b60a0328d","6662009ae78f21dd82fcd179","666208df2b1c87908d265de9","null","","null","","","","","","","","./tasks/HMM-beads/Images/WhiteBeadChoice.png","","","","","","","","","",""
"image-keyboard-response","120","270875","0.0-3.0-4.0-1.0-2.35","5df0524c1217a00b60a0328d","6662009ae78f21dd82fcd179","666208df2b1c87908d265de9","null","","null","","","","","","","","./tasks/HMM-beads/Images/WhiteBeadChoiceCorrect.png","","","","","","","","","",""
"image-keyboard-response","121","271515","0.0-3.0-4.0-1.0-0.36","5df0524c1217a00b60a0328d","6662009ae78f21dd82fcd179","666208df2b1c87908d265de9","637","","j","","","","","","","","./tasks/HMM-beads/Images/NewTrialWC.png","practice","0","36","1","0","1","1","false","",""
"image-keyboard-response","122","271817","0.0-3.0-4.0-1.0-1.36","5df0524c1217a00b60a0328d","6662009ae78f21dd82fcd179","666208df2b1c87908d265de9","null","","null","","","","","","","","./tasks/HMM-beads/Images/WhiteBeadChoice.png","","","","","","","","","",""
"image-keyboard-response","123","272340","0.0-3.0-4.0-1.0-2.36","5df0524c1217a00b60a0328d","6662009ae78f21dd82fcd179","666208df2b1c87908d265de9","null","","null","","","","","","","","./tasks/HMM-beads/Images/WhiteBeadChoiceWrong.png","","","","","","","","","",""
"image-keyboard-response","124","273380","0.0-3.0-4.0-1.0-0.37","5df0524c1217a00b60a0328d","6662009ae78f21dd82fcd179","666208df2b1c87908d265de9","1036","","j","","","","","","","","./tasks/HMM-beads/Images/NewTrialBC.png","practice","0","37","1","1","0","1","true","",""
"image-keyboard-response","125","273697","0.0-3.0-4.0-1.0-1.37","5df0524c1217a00b60a0328d","6662009ae78f21dd82fcd179","666208df2b1c87908d265de9","null","","null","","","","","","","","./tasks/HMM-beads/Images/WhiteBeadChoice.png","","","","","","","","","",""
"image-keyboard-response","126","274209","0.0-3.0-4.0-1.0-2.37","5df0524c1217a00b60a0328d","6662009ae78f21dd82fcd179","666208df2b1c87908d265de9","null","","null","","","","","","","","./tasks/HMM-beads/Images/WhiteBeadChoiceCorrect.png","","","","","","","","","",""
"image-keyboard-response","127","275160","0.0-3.0-4.0-1.0-0.38","5df0524c1217a00b60a0328d","6662009ae78f21dd82fcd179","666208df2b1c87908d265de9","950","","j","","","","","","","","./tasks/HMM-beads/Images/NewTrialWC.png","practice","0","38","1","1","1","1","true","",""
"image-keyboard-response","128","275473","0.0-3.0-4.0-1.0-1.38","5df0524c1217a00b60a0328d","6662009ae78f21dd82fcd179","666208df2b1c87908d265de9","null","","null","","","","","","","","./tasks/HMM-beads/Images/WhiteBeadChoice.png","","","","","","","","","",""
"image-keyboard-response","129","275983","0.0-3.0-4.0-1.0-2.38","5df0524c1217a00b60a0328d","6662009ae78f21dd82fcd179","666208df2b1c87908d265de9","null","","null","","","","","","","","./tasks/HMM-beads/Images/WhiteBeadChoiceCorrect.png","","","","","","","","","",""
"image-keyboard-response","130","276482","0.0-3.0-4.0-1.0-0.39","5df0524c1217a00b60a0328d","6662009ae78f21dd82fcd179","666208df2b1c87908d265de9","496","","j","","","","","","","","./tasks/HMM-beads/Images/NewTrialWC.png","practice","0","39","1","1","1","1","true","",""
"image-keyboard-response","131","276790","0.0-3.0-4.0-1.0-1.39","5df0524c1217a00b60a0328d","6662009ae78f21dd82fcd179","666208df2b1c87908d265de9","null","","null","","","","","","","","./tasks/HMM-beads/Images/WhiteBeadChoice.png","","","","","","","","","",""
"image-keyboard-response","132","277300","0.0-3.0-4.0-1.0-2.39","5df0524c1217a00b60a0328d","6662009ae78f21dd82fcd179","666208df2b1c87908d265de9","null","","null","","","","","","","","./tasks/HMM-beads/Images/WhiteBeadChoiceCorrect.png","","","","","","","","","",""
"html-keyboard-response","133","304904","0.0-3.0-4.0-2.0","5df0524c1217a00b60a0328d","6662009ae78f21dd82fcd179","666208df2b1c87908d265de9","27602",""," ","","","","","","","","","","","","","","","","","",""
"instructions","134","311932","0.0-3.0-5.0","5df0524c1217a00b60a0328d","6662009ae78f21dd82fcd179","666208df2b1c87908d265de9","7028","","","","[{""page_index"":0,""viewing_time"":5787},{""page_index"":1,""viewing_time"":1240}]","","","","","","","","","","","","","","","",""
"html-keyboard-response","135","314158","0.0-3.0-6.0-0.0","5df0524c1217a00b60a0328d","6662009ae78f21dd82fcd179","666208df2b1c87908d265de9","2226",""," ","","","","","","","","<div align=center>In this block, there will be a <b>1% chance</b> that the jar on the next trial will be different from the jar on the current trial.<br><br></div>","","","","","","","","","",""
"image-keyboard-response","136","317931","0.0-3.0-6.0-1.0-0.0","5df0524c1217a00b60a0328d","6662009ae78f21dd82fcd179","666208df2b1c87908d265de9","3771","","f","","","","","","","","./tasks/HMM-beads/Images/NoChoice.png","lowH","1","0","1","0","9","0","true","",""
"image-keyboard-response","137","318242","0.0-3.0-6.0-1.0-1.0","5df0524c1217a00b60a0328d","6662009ae78f21dd82fcd179","666208df2b1c87908d265de9","null","","null","","","","","","","","./tasks/HMM-beads/Images/BlackBeadChoice.png","","","","","","","","","",""
"image-keyboard-response","138","318758","0.0-3.0-6.0-1.0-2.0","5df0524c1217a00b60a0328d","6662009ae78f21dd82fcd179","666208df2b1c87908d265de9","null","","null","","","","","","","","./tasks/HMM-beads/Images/BlackBeadChoiceCorrect.png","","","","","","","","","",""
"image-keyboard-response","139","320071","0.0-3.0-6.0-1.0-0.1","5df0524c1217a00b60a0328d","6662009ae78f21dd82fcd179","666208df2b1c87908d265de9","1311","","f","","","","","","","","./tasks/HMM-beads/Images/NewTrialBC.png","lowH","1","1","1","1","0","0","false","",""
"image-keyboard-response","140","320380","0.0-3.0-6.0-1.0-1.1","5df0524c1217a00b60a0328d","6662009ae78f21dd82fcd179","666208df2b1c87908d265de9","null","","null","","","","","","","","./tasks/HMM-beads/Images/BlackBeadChoice.png","","","","","","","","","",""
"image-keyboard-response","141","320893","0.0-3.0-6.0-1.0-2.1","5df0524c1217a00b60a0328d","6662009ae78f21dd82fcd179","666208df2b1c87908d265de9","null","","null","","","","","","","","./tasks/HMM-beads/Images/BlackBeadChoiceWrong.png","","","","","","","","","",""
"image-keyboard-response","142","322163","0.0-3.0-6.0-1.0-0.2","5df0524c1217a00b60a0328d","6662009ae78f21dd82fcd179","666208df2b1c87908d265de9","1266","","j","","","","","","","","./tasks/HMM-beads/Images/NewTrialWC.png","lowH","1","2","1","1","1","1","true","",""
"image-keyboard-response","143","322479","0.0-3.0-6.0-1.0-1.2","5df0524c1217a00b60a0328d","6662009ae78f21dd82fcd179","666208df2b1c87908d265de9","null","","null","","","","","","","","./tasks/HMM-beads/Images/WhiteBeadChoice.png","","","","","","","","","",""
"image-keyboard-response","144","322988","0.0-3.0-6.0-1.0-2.2","5df0524c1217a00b60a0328d","6662009ae78f21dd82fcd179","666208df2b1c87908d265de9","null","","null","","","","","","","","./tasks/HMM-beads/Images/WhiteBeadChoiceCorrect.png","","","","","","","","","",""
"image-keyboard-response","145","323720","0.0-3.0-6.0-1.0-0.3","5df0524c1217a00b60a0328d","6662009ae78f21dd82fcd179","666208df2b1c87908d265de9","730","","j","","","","","","","","./tasks/HMM-beads/Images/NewTrialWC.png","lowH","1","3","1","1","1","1","true","",""
"image-keyboard-response","146","324034","0.0-3.0-6.0-1.0-1.3","5df0524c1217a00b60a0328d","6662009ae78f21dd82fcd179","666208df2b1c87908d265de9","null","","null","","","","","","","","./tasks/HMM-beads/Images/WhiteBeadChoice.png","","","","","","","","","",""
"image-keyboard-response","147","324543","0.0-3.0-6.0-1.0-2.3","5df0524c1217a00b60a0328d","6662009ae78f21dd82fcd179","666208df2b1c87908d265de9","null","","null","","","","","","","","./tasks/HMM-beads/Images/WhiteBeadChoiceCorrect.png","","","","","","","","","",""
"image-keyboard-response","148","325369","0.0-3.0-6.0-1.0-0.4","5df0524c1217a00b60a0328d","6662009ae78f21dd82fcd179","666208df2b1c87908d265de9","824","","j","","","","","","","","./tasks/HMM-beads/Images/NewTrialWC.png","lowH","1","4","1","1","1","1","true","",""
"image-keyboard-response","149","325674","0.0-3.0-6.0-1.0-1.4","5df0524c1217a00b60a0328d","6662009ae78f21dd82fcd179","666208df2b1c87908d265de9","null","","null","","","","","","","","./tasks/HMM-beads/Images/WhiteBeadChoice.png","","","","","","","","","",""
"image-keyboard-response","150","326180","0.0-3.0-6.0-1.0-2.4","5df0524c1217a00b60a0328d","6662009ae78f21dd82fcd179","666208df2b1c87908d265de9","null","","null","","","","","","","","./tasks/HMM-beads/Images/WhiteBeadChoiceCorrect.png","","","","","","","","","",""
"image-keyboard-response","151","326536","0.0-3.0-6.0-1.0-0.5","5df0524c1217a00b60a0328d","6662009ae78f21dd82fcd179","666208df2b1c87908d265de9","353","","j","","","","","","","","./tasks/HMM-beads/Images/NewTrialWC.png","lowH","1","5","1","1","1","1","true","",""
"image-keyboard-response","152","326840","0.0-3.0-6.0-1.0-1.5","5df0524c1217a00b60a0328d","6662009ae78f21dd82fcd179","666208df2b1c87908d265de9","null","","null","","","","","","","","./tasks/HMM-beads/Images/WhiteBeadChoice.png","","","","","","","","","",""
"image-keyboard-response","153","327355","0.0-3.0-6.0-1.0-2.5","5df0524c1217a00b60a0328d","6662009ae78f21dd82fcd179","666208df2b1c87908d265de9","null","","null","","","","","","","","./tasks/HMM-beads/Images/WhiteBeadChoiceCorrect.png","","","","","","","","","",""
"image-keyboard-response","154","327665","0.0-3.0-6.0-1.0-0.6","5df0524c1217a00b60a0328d","6662009ae78f21dd82fcd179","666208df2b1c87908d265de9","307","","j","","","","","","","","./tasks/HMM-beads/Images/NewTrialWC.png","lowH","1","6","1","0","1","1","false","",""
"image-keyboard-response","155","327971","0.0-3.0-6.0-1.0-1.6","5df0524c1217a00b60a0328d","6662009ae78f21dd82fcd179","666208df2b1c87908d265de9","null","","null","","","","","","","","./tasks/HMM-beads/Images/WhiteBeadChoice.png","","","","","","","","","",""
"image-keyboard-response","156","328488","0.0-3.0-6.0-1.0-2.6","5df0524c1217a00b60a0328d","6662009ae78f21dd82fcd179","666208df2b1c87908d265de9","null","","null","","","","","","","","./tasks/HMM-beads/Images/WhiteBeadChoiceWrong.png","","","","","","","","","",""
"image-keyboard-response","157","328768","0.0-3.0-6.0-1.0-0.7","5df0524c1217a00b60a0328d","6662009ae78f21dd82fcd179","666208df2b1c87908d265de9","277","","j","","","","","","","","./tasks/HMM-beads/Images/NewTrialBC.png","lowH","1","7","1","1","0","1","true","",""
"image-keyboard-response","158","329074","0.0-3.0-6.0-1.0-1.7","5df0524c1217a00b60a0328d","6662009ae78f21dd82fcd179","666208df2b1c87908d265de9","null","","null","","","","","","","","./tasks/HMM-beads/Images/WhiteBeadChoice.png","","","","","","","","","",""
"image-keyboard-response","159","329577","0.0-3.0-6.0-1.0-2.7","5df0524c1217a00b60a0328d","6662009ae78f21dd82fcd179","666208df2b1c87908d265de9","null","","null","","","","","","","","./tasks/HMM-beads/Images/WhiteBeadChoiceCorrect.png","","","","","","","","","",""
"image-keyboard-response","160","329978","0.0-3.0-6.0-1.0-0.8","5df0524c1217a00b60a0328d","6662009ae78f21dd82fcd179","666208df2b1c87908d265de9","398","","j","","","","","","","","./tasks/HMM-beads/Images/NewTrialWC.png","lowH","1","8","1","1","1","1","true","",""
"image-keyboard-response","161","330294","0.0-3.0-6.0-1.0-1.8","5df0524c1217a00b60a0328d","6662009ae78f21dd82fcd179","666208df2b1c87908d265de9","null","","null","","","","","","","","./tasks/HMM-beads/Images/WhiteBeadChoice.png","","","","","","","","","",""
"image-keyboard-response","162","330799","0.0-3.0-6.0-1.0-2.8","5df0524c1217a00b60a0328d","6662009ae78f21dd82fcd179","666208df2b1c87908d265de9","null","","null","","","","","","","","./tasks/HMM-beads/Images/WhiteBeadChoiceCorrect.png","","","","","","","","","",""
"image-keyboard-response","163","331102","0.0-3.0-6.0-1.0-0.9","5df0524c1217a00b60a0328d","6662009ae78f21dd82fcd179","666208df2b1c87908d265de9","300","","j","","","","","","","","./tasks/HMM-beads/Images/NewTrialWC.png","lowH","1","9","1","1","1","1","true","",""
"image-keyboard-response","164","331405","0.0-3.0-6.0-1.0-1.9","5df0524c1217a00b60a0328d","6662009ae78f21dd82fcd179","666208df2b1c87908d265de9","null","","null","","","","","","","","./tasks/HMM-beads/Images/WhiteBeadChoice.png","","","","","","","","","",""
"image-keyboard-response","165","331923","0.0-3.0-6.0-1.0-2.9","5df0524c1217a00b60a0328d","6662009ae78f21dd82fcd179","666208df2b1c87908d265de9","null","","null","","","","","","","","./tasks/HMM-beads/Images/WhiteBeadChoiceCorrect.png","","","","","","","","","",""
"image-keyboard-response","166","332199","0.0-3.0-6.0-1.0-0.10","5df0524c1217a00b60a0328d","6662009ae78f21dd82fcd179","666208df2b1c87908d265de9","273","","j","","","","","","","","./tasks/HMM-beads/Images/NewTrialWC.png","lowH","1","10","1","1","1","1","true","",""
"image-keyboard-response","167","332502","0.0-3.0-6.0-1.0-1.10","5df0524c1217a00b60a0328d","6662009ae78f21dd82fcd179","666208df2b1c87908d265de9","null","","null","","","","","","","","./tasks/HMM-beads/Images/WhiteBeadChoice.png","","","","","","","","","",""
"image-keyboard-response","168","333014","0.0-3.0-6.0-1.0-2.10","5df0524c1217a00b60a0328d","6662009ae78f21dd82fcd179","666208df2b1c87908d265de9","null","","null","","","","","","","","./tasks/HMM-beads/Images/WhiteBeadChoiceCorrect.png","","","","","","","","","",""
"image-keyboard-response","169","333264","0.0-3.0-6.0-1.0-0.11","5df0524c1217a00b60a0328d","6662009ae78f21dd82fcd179","666208df2b1c87908d265de9","247","","j","","","","","","","","./tasks/HMM-beads/Images/NewTrialWC.png","lowH","1","11","1","1","1","1","true","",""
"image-keyboard-response","170","333572","0.0-3.0-6.0-1.0-1.11","5df0524c1217a00b60a0328d","6662009ae78f21dd82fcd179","666208df2b1c87908d265de9","null","","null","","","","","","","","./tasks/HMM-beads/Images/WhiteBeadChoice.png","","","","","","","","","",""
"image-keyboard-response","171","334086","0.0-3.0-6.0-1.0-2.11","5df0524c1217a00b60a0328d","6662009ae78f21dd82fcd179","666208df2b1c87908d265de9","null","","null","","","","","","","","./tasks/HMM-beads/Images/WhiteBeadChoiceCorrect.png","","","","","","","","","",""
"image-keyboard-response","172","334336","0.0-3.0-6.0-1.0-0.12","5df0524c1217a00b60a0328d","6662009ae78f21dd82fcd179","666208df2b1c87908d265de9","249","","j","","","","","","","","./tasks/HMM-beads/Images/NewTrialWC.png","lowH","1","12","1","1","1","1","true","",""
"image-keyboard-response","173","334645","0.0-3.0-6.0-1.0-1.12","5df0524c1217a00b60a0328d","6662009ae78f21dd82fcd179","666208df2b1c87908d265de9","null","","null","","","","","","","","./tasks/HMM-beads/Images/WhiteBeadChoice.png","","","","","","","","","",""
"image-keyboard-response","174","335159","0.0-3.0-6.0-1.0-2.12","5df0524c1217a00b60a0328d","6662009ae78f21dd82fcd179","666208df2b1c87908d265de9","null","","null","","","","","","","","./tasks/HMM-beads/Images/WhiteBeadChoiceCorrect.png","","","","","","","","","",""
"image-keyboard-response","175","335406","0.0-3.0-6.0-1.0-0.13","5df0524c1217a00b60a0328d","6662009ae78f21dd82fcd179","666208df2b1c87908d265de9","245","","j","","","","","","","","./tasks/HMM-beads/Images/NewTrialWC.png","lowH","1","13","1","0","1","1","false","",""
"image-keyboard-response","176","335714","0.0-3.0-6.0-1.0-1.13","5df0524c1217a00b60a0328d","6662009ae78f21dd82fcd179","666208df2b1c87908d265de9","null","","null","","","","","","","","./tasks/HMM-beads/Images/WhiteBeadChoice.png","","","","","","","","","",""
"image-keyboard-response","177","336225","0.0-3.0-6.0-1.0-2.13","5df0524c1217a00b60a0328d","6662009ae78f21dd82fcd179","666208df2b1c87908d265de9","null","","null","","","","","","","","./tasks/HMM-beads/Images/WhiteBeadChoiceWrong.png","","","","","","","","","",""
"image-keyboard-response","178","336492","0.0-3.0-6.0-1.0-0.14","5df0524c1217a00b60a0328d","6662009ae78f21dd82fcd179","666208df2b1c87908d265de9","265","","j","","","","","","","","./tasks/HMM-beads/Images/NewTrialBC.png","lowH","1","14","1","0","0","1","false","",""
"image-keyboard-response","179","336799","0.0-3.0-6.0-1.0-1.14","5df0524c1217a00b60a0328d","6662009ae78f21dd82fcd179","666208df2b1c87908d265de9","null","","null","","","","","","","","./tasks/HMM-beads/Images/WhiteBeadChoice.png","","","","","","","","","",""
"image-keyboard-response","180","337314","0.0-3.0-6.0-1.0-2.14","5df0524c1217a00b60a0328d","6662009ae78f21dd82fcd179","666208df2b1c87908d265de9","null","","null","","","","","","","","./tasks/HMM-beads/Images/WhiteBeadChoiceWrong.png","","","","","","","","","",""
"image-keyboard-response","181","337507","0.0-3.0-6.0-1.0-0.15","5df0524c1217a00b60a0328d","6662009ae78f21dd82fcd179","666208df2b1c87908d265de9","190","","j","","","","","","","","./tasks/HMM-beads/Images/NewTrialBC.png","lowH","1","15","1","1","0","1","true","",""
"image-keyboard-response","182","337822","0.0-3.0-6.0-1.0-1.15","5df0524c1217a00b60a0328d","6662009ae78f21dd82fcd179","666208df2b1c87908d265de9","null","","null","","","","","","","","./tasks/HMM-beads/Images/WhiteBeadChoice.png","","","","","","","","","",""
"image-keyboard-response","183","338327","0.0-3.0-6.0-1.0-2.15","5df0524c1217a00b60a0328d","6662009ae78f21dd82fcd179","666208df2b1c87908d265de9","null","","null","","","","","","","","./tasks/HMM-beads/Images/WhiteBeadChoiceCorrect.png","","","","","","","","","",""
"image-keyboard-response","184","338572","0.0-3.0-6.0-1.0-0.16","5df0524c1217a00b60a0328d","6662009ae78f21dd82fcd179","666208df2b1c87908d265de9","242","","j","","","","","","","","./tasks/HMM-beads/Images/NewTrialWC.png","lowH","1","16","1","1","1","1","true","",""
"image-keyboard-response","185","338885","0.0-3.0-6.0-1.0-1.16","5df0524c1217a00b60a0328d","6662009ae78f21dd82fcd179","666208df2b1c87908d265de9","null","","null","","","","","","","","./tasks/HMM-beads/Images/WhiteBeadChoice.png","","","","","","","","","",""
"image-keyboard-response","186","339399","0.0-3.0-6.0-1.0-2.16","5df0524c1217a00b60a0328d","6662009ae78f21dd82fcd179","666208df2b1c87908d265de9","null","","null","","","","","","","","./tasks/HMM-beads/Images/WhiteBeadChoiceCorrect.png","","","","","","","","","",""
"image-keyboard-response","187","339653","0.0-3.0-6.0-1.0-0.17","5df0524c1217a00b60a0328d","6662009ae78f21dd82fcd179","666208df2b1c87908d265de9","253","","j","","","","","","","","./tasks/HMM-beads/Images/NewTrialWC.png","lowH","1","17","1","1","1","1","true","",""
"image-keyboard-response","188","339969","0.0-3.0-6.0-1.0-1.17","5df0524c1217a00b60a0328d","6662009ae78f21dd82fcd179","666208df2b1c87908d265de9","null","","null","","","","","","","","./tasks/HMM-beads/Images/WhiteBeadChoice.png","","","","","","","","","",""
"image-keyboard-response","189","340484","0.0-3.0-6.0-1.0-2.17","5df0524c1217a00b60a0328d","6662009ae78f21dd82fcd179","666208df2b1c87908d265de9","null","","null","","","","","","","","./tasks/HMM-beads/Images/WhiteBeadChoiceCorrect.png","","","","","","","","","",""
"image-keyboard-response","190","340663","0.0-3.0-6.0-1.0-0.18","5df0524c1217a00b60a0328d","6662009ae78f21dd82fcd179","666208df2b1c87908d265de9","178","","j","","","","","","","","./tasks/HMM-beads/Images/NewTrialWC.png","lowH","1","18","1","1","1","1","true","",""
"image-keyboard-response","191","340980","0.0-3.0-6.0-1.0-1.18","5df0524c1217a00b60a0328d","6662009ae78f21dd82fcd179","666208df2b1c87908d265de9","null","","null","","","","","","","","./tasks/HMM-beads/Images/WhiteBeadChoice.png","","","","","","","","","",""
"image-keyboard-response","192","341486","0.0-3.0-6.0-1.0-2.18","5df0524c1217a00b60a0328d","6662009ae78f21dd82fcd179","666208df2b1c87908d265de9","null","","null","","","","","","","","./tasks/HMM-beads/Images/WhiteBeadChoiceCorrect.png","","","","","","","","","",""
"image-keyboard-response","193","341692","0.0-3.0-6.0-1.0-0.19","5df0524c1217a00b60a0328d","6662009ae78f21dd82fcd179","666208df2b1c87908d265de9","202","","j","","","","","","","","./tasks/HMM-beads/Images/NewTrialWC.png","lowH","1","19","1","1","1","1","true","",""
"image-keyboard-response","194","342004","0.0-3.0-6.0-1.0-1.19","5df0524c1217a00b60a0328d","6662009ae78f21dd82fcd179","666208df2b1c87908d265de9","null","","null","","","","","","","","./tasks/HMM-beads/Images/WhiteBeadChoice.png","","","","","","","","","",""
"image-keyboard-response","195","342509","0.0-3.0-6.0-1.0-2.19","5df0524c1217a00b60a0328d","6662009ae78f21dd82fcd179","666208df2b1c87908d265de9","null","","null","","","","","","","","./tasks/HMM-beads/Images/WhiteBeadChoiceCorrect.png","","","","","","","","","",""
"image-keyboard-response","196","342766","0.0-3.0-6.0-1.0-0.20","5df0524c1217a00b60a0328d","6662009ae78f21dd82fcd179","666208df2b1c87908d265de9","253","","f","","","","","","","","./tasks/HMM-beads/Images/NewTrialWC.png","lowH","1","20","1","1","1","0","false","",""
"image-keyboard-response","197","343077","0.0-3.0-6.0-1.0-1.20","5df0524c1217a00b60a0328d","6662009ae78f21dd82fcd179","666208df2b1c87908d265de9","null","","null","","","","","","","","./tasks/HMM-beads/Images/BlackBeadChoice.png","","","","","","","","","",""
"image-keyboard-response","198","343593","0.0-3.0-6.0-1.0-2.20","5df0524c1217a00b60a0328d","6662009ae78f21dd82fcd179","666208df2b1c87908d265de9","null","","null","","","","","","","","./tasks/HMM-beads/Images/BlackBeadChoiceWrong.png","","","","","","","","","",""
"image-keyboard-response","199","343823","0.0-3.0-6.0-1.0-0.21","5df0524c1217a00b60a0328d","6662009ae78f21dd82fcd179","666208df2b1c87908d265de9","226","","j","","","","","","","","./tasks/HMM-beads/Images/NewTrialWC.png","lowH","1","21","1","1","1","1","true","",""
"image-keyboard-response","200","344136","0.0-3.0-6.0-1.0-1.21","5df0524c1217a00b60a0328d","6662009ae78f21dd82fcd179","666208df2b1c87908d265de9","null","","null","","","","","","","","./tasks/HMM-beads/Images/WhiteBeadChoice.png","","","","","","","","","",""
"image-keyboard-response","201","344641","0.0-3.0-6.0-1.0-2.21","5df0524c1217a00b60a0328d","6662009ae78f21dd82fcd179","666208df2b1c87908d265de9","null","","null","","","","","","","","./tasks/HMM-beads/Images/WhiteBeadChoiceCorrect.png","","","","","","","","","",""
"image-keyboard-response","202","344879","0.0-3.0-6.0-1.0-0.22","5df0524c1217a00b60a0328d","6662009ae78f21dd82fcd179","666208df2b1c87908d265de9","235","","j","","","","","","","","./tasks/HMM-beads/Images/NewTrialWC.png","lowH","1","22","1","1","1","1","true","",""
"image-keyboard-response","203","345194","0.0-3.0-6.0-1.0-1.22","5df0524c1217a00b60a0328d","6662009ae78f21dd82fcd179","666208df2b1c87908d265de9","null","","null","","","","","","","","./tasks/HMM-beads/Images/WhiteBeadChoice.png","","","","","","","","","",""
"image-keyboard-response","204","345707","0.0-3.0-6.0-1.0-2.22","5df0524c1217a00b60a0328d","6662009ae78f21dd82fcd179","666208df2b1c87908d265de9","null","","null","","","","","","","","./tasks/HMM-beads/Images/WhiteBeadChoiceCorrect.png","","","","","","","","","",""
"image-keyboard-response","205","345973","0.0-3.0-6.0-1.0-0.23","5df0524c1217a00b60a0328d","6662009ae78f21dd82fcd179","666208df2b1c87908d265de9","263","","j","","","","","","","","./tasks/HMM-beads/Images/NewTrialWC.png","lowH","1","23","1","1","1","1","true","",""
"image-keyboard-response","206","346287","0.0-3.0-6.0-1.0-1.23","5df0524c1217a00b60a0328d","6662009ae78f21dd82fcd179","666208df2b1c87908d265de9","null","","null","","","","","","","","./tasks/HMM-beads/Images/WhiteBeadChoice.png","","","","","","","","","",""
"image-keyboard-response","207","346802","0.0-3.0-6.0-1.0-2.23","5df0524c1217a00b60a0328d","6662009ae78f21dd82fcd179","666208df2b1c87908d265de9","null","","null","","","","","","","","./tasks/HMM-beads/Images/WhiteBeadChoiceCorrect.png","","","","","","","","","",""
"image-keyboard-response","208","347021","0.0-3.0-6.0-1.0-0.24","5df0524c1217a00b60a0328d","6662009ae78f21dd82fcd179","666208df2b1c87908d265de9","218","","j","","","","","","","","./tasks/HMM-beads/Images/NewTrialWC.png","lowH","1","24","1","0","1","1","false","",""
"image-keyboard-response","209","347333","0.0-3.0-6.0-1.0-1.24","5df0524c1217a00b60a0328d","6662009ae78f21dd82fcd179","666208df2b1c87908d265de9","null","","null","","","","","","","","./tasks/HMM-beads/Images/WhiteBeadChoice.png","","","","","","","","","",""
"image-keyboard-response","210","347853","0.0-3.0-6.0-1.0-2.24","5df0524c1217a00b60a0328d","6662009ae78f21dd82fcd179","666208df2b1c87908d265de9","null","","null","","","","","","","","./tasks/HMM-beads/Images/WhiteBeadChoiceWrong.png","","","","","","","","","",""
"image-keyboard-response","211","348134","0.0-3.0-6.0-1.0-0.25","5df0524c1217a00b60a0328d","6662009ae78f21dd82fcd179","666208df2b1c87908d265de9","278","","j","","","","","","","","./tasks/HMM-beads/Images/NewTrialBC.png","lowH","1","25","1","1","0","1","true","",""
"image-keyboard-response","212","348441","0.0-3.0-6.0-1.0-1.25","5df0524c1217a00b60a0328d","6662009ae78f21dd82fcd179","666208df2b1c87908d265de9","null","","null","","","","","","","","./tasks/HMM-beads/Images/WhiteBeadChoice.png","","","","","","","","","",""
"image-keyboard-response","213","348954","0.0-3.0-6.0-1.0-2.25","5df0524c1217a00b60a0328d","6662009ae78f21dd82fcd179","666208df2b1c87908d265de9","null","","null","","","","","","","","./tasks/HMM-beads/Images/WhiteBeadChoiceCorrect.png","","","","","","","","","",""
"image-keyboard-response","214","349188","0.0-3.0-6.0-1.0-0.26","5df0524c1217a00b60a0328d","6662009ae78f21dd82fcd179","666208df2b1c87908d265de9","233","","j","","","","","","","","./tasks/HMM-beads/Images/NewTrialWC.png","lowH","1","26","1","0","1","1","false","",""
"image-keyboard-response","215","349499","0.0-3.0-6.0-1.0-1.26","5df0524c1217a00b60a0328d","6662009ae78f21dd82fcd179","666208df2b1c87908d265de9","null","","null","","","","","","","","./tasks/HMM-beads/Images/WhiteBeadChoice.png","","","","","","","","","",""
"image-keyboard-response","216","350007","0.0-3.0-6.0-1.0-2.26","5df0524c1217a00b60a0328d","6662009ae78f21dd82fcd179","666208df2b1c87908d265de9","null","","null","","","","","","","","./tasks/HMM-beads/Images/WhiteBeadChoiceWrong.png","","","","","","","","","",""
"image-keyboard-response","217","351170","0.0-3.0-6.0-1.0-0.27","5df0524c1217a00b60a0328d","6662009ae78f21dd82fcd179","666208df2b1c87908d265de9","1162","","j","","","","","","","","./tasks/HMM-beads/Images/NewTrialBC.png","lowH","1","27","1","1","0","1","true","",""
"image-keyboard-response","218","351486","0.0-3.0-6.0-1.0-1.27","5df0524c1217a00b60a0328d","6662009ae78f21dd82fcd179","666208df2b1c87908d265de9","null","","null","","","","","","","","./tasks/HMM-beads/Images/WhiteBeadChoice.png","","","","","","","","","",""
"image-keyboard-response","219","351987","0.0-3.0-6.0-1.0-2.27","5df0524c1217a00b60a0328d","6662009ae78f21dd82fcd179","666208df2b1c87908d265de9","null","","null","","","","","","","","./tasks/HMM-beads/Images/WhiteBeadChoiceCorrect.png","","","","","","","","","",""
"image-keyboard-response","220","352294","0.0-3.0-6.0-1.0-0.28","5df0524c1217a00b60a0328d","6662009ae78f21dd82fcd179","666208df2b1c87908d265de9","303","","j","","","","","","","","./tasks/HMM-beads/Images/NewTrialWC.png","lowH","1","28","1","1","1","1","true","",""
"image-keyboard-response","221","352597","0.0-3.0-6.0-1.0-1.28","5df0524c1217a00b60a0328d","6662009ae78f21dd82fcd179","666208df2b1c87908d265de9","null","","null","","","","","","","","./tasks/HMM-beads/Images/WhiteBeadChoice.png","","","","","","","","","",""
"image-keyboard-response","222","353100","0.0-3.0-6.0-1.0-2.28","5df0524c1217a00b60a0328d","6662009ae78f21dd82fcd179","666208df2b1c87908d265de9","null","","null","","","","","","","","./tasks/HMM-beads/Images/WhiteBeadChoiceCorrect.png","","","","","","","","","",""
"image-keyboard-response","223","353542","0.0-3.0-6.0-1.0-0.29","5df0524c1217a00b60a0328d","6662009ae78f21dd82fcd179","666208df2b1c87908d265de9","439","","j","","","","","","","","./tasks/HMM-beads/Images/NewTrialWC.png","lowH","1","29","1","1","1","1","true","",""
"image-keyboard-response","224","353857","0.0-3.0-6.0-1.0-1.29","5df0524c1217a00b60a0328d","6662009ae78f21dd82fcd179","666208df2b1c87908d265de9","null","","null","","","","","","","","./tasks/HMM-beads/Images/WhiteBeadChoice.png","","","","","","","","","",""
"image-keyboard-response","225","354365","0.0-3.0-6.0-1.0-2.29","5df0524c1217a00b60a0328d","6662009ae78f21dd82fcd179","666208df2b1c87908d265de9","null","","null","","","","","","","","./tasks/HMM-beads/Images/WhiteBeadChoiceCorrect.png","","","","","","","","","",""
"image-keyboard-response","226","354741","0.0-3.0-6.0-1.0-0.30","5df0524c1217a00b60a0328d","6662009ae78f21dd82fcd179","666208df2b1c87908d265de9","374","","j","","","","","","","","./tasks/HMM-beads/Images/NewTrialWC.png","lowH","1","30","1","1","1","1","true","",""
"image-keyboard-response","227","355046","0.0-3.0-6.0-1.0-1.30","5df0524c1217a00b60a0328d","6662009ae78f21dd82fcd179","666208df2b1c87908d265de9","null","","null","","","","","","","","./tasks/HMM-beads/Images/WhiteBeadChoice.png","","","","","","","","","",""
"image-keyboard-response","228","355560","0.0-3.0-6.0-1.0-2.30","5df0524c1217a00b60a0328d","6662009ae78f21dd82fcd179","666208df2b1c87908d265de9","null","","null","","","","","","","","./tasks/HMM-beads/Images/WhiteBeadChoiceCorrect.png","","","","","","","","","",""
"image-keyboard-response","229","356284","0.0-3.0-6.0-1.0-0.31","5df0524c1217a00b60a0328d","6662009ae78f21dd82fcd179","666208df2b1c87908d265de9","721","","j","","","","","","","","./tasks/HMM-beads/Images/NewTrialWC.png","lowH","1","31","1","1","1","1","true","",""
"image-keyboard-response","230","356585","0.0-3.0-6.0-1.0-1.31","5df0524c1217a00b60a0328d","6662009ae78f21dd82fcd179","666208df2b1c87908d265de9","null","","null","","","","","","","","./tasks/HMM-beads/Images/WhiteBeadChoice.png","","","","","","","","","",""
"image-keyboard-response","231","357094","0.0-3.0-6.0-1.0-2.31","5df0524c1217a00b60a0328d","6662009ae78f21dd82fcd179","666208df2b1c87908d265de9","null","","null","","","","","","","","./tasks/HMM-beads/Images/WhiteBeadChoiceCorrect.png","","","","","","","","","",""
"image-keyboard-response","232","357450","0.0-3.0-6.0-1.0-0.32","5df0524c1217a00b60a0328d","6662009ae78f21dd82fcd179","666208df2b1c87908d265de9","352","","j","","","","","","","","./tasks/HMM-beads/Images/NewTrialWC.png","lowH","1","32","1","1","1","1","true","",""
"image-keyboard-response","233","357765","0.0-3.0-6.0-1.0-1.32","5df0524c1217a00b60a0328d","6662009ae78f21dd82fcd179","666208df2b1c87908d265de9","null","","null","","","","","","","","./tasks/HMM-beads/Images/WhiteBeadChoice.png","","","","","","","","","",""
"image-keyboard-response","234","358271","0.0-3.0-6.0-1.0-2.32","5df0524c1217a00b60a0328d","6662009ae78f21dd82fcd179","666208df2b1c87908d265de9","null","","null","","","","","","","","./tasks/HMM-beads/Images/WhiteBeadChoiceCorrect.png","","","","","","","","","",""
"image-keyboard-response","235","358577","0.0-3.0-6.0-1.0-0.33","5df0524c1217a00b60a0328d","6662009ae78f21dd82fcd179","666208df2b1c87908d265de9","303","","j","","","","","","","","./tasks/HMM-beads/Images/NewTrialWC.png","lowH","1","33","1","1","1","1","true","",""
"image-keyboard-response","236","358886","0.0-3.0-6.0-1.0-1.33","5df0524c1217a00b60a0328d","6662009ae78f21dd82fcd179","666208df2b1c87908d265de9","null","","null","","","","","","","","./tasks/HMM-beads/Images/WhiteBeadChoice.png","","","","","","","","","",""
"image-keyboard-response","237","359408","0.0-3.0-6.0-1.0-2.33","5df0524c1217a00b60a0328d","6662009ae78f21dd82fcd179","666208df2b1c87908d265de9","null","","null","","","","","","","","./tasks/HMM-beads/Images/WhiteBeadChoiceCorrect.png","","","","","","","","","",""
"image-keyboard-response","238","359687","0.0-3.0-6.0-1.0-0.34","5df0524c1217a00b60a0328d","6662009ae78f21dd82fcd179","666208df2b1c87908d265de9","277","","j","","","","","","","","./tasks/HMM-beads/Images/NewTrialWC.png","lowH","1","34","1","1","1","1","true","",""
"image-keyboard-response","239","359993","0.0-3.0-6.0-1.0-1.34","5df0524c1217a00b60a0328d","6662009ae78f21dd82fcd179","666208df2b1c87908d265de9","null","","null","","","","","","","","./tasks/HMM-beads/Images/WhiteBeadChoice.png","","","","","","","","","",""
"image-keyboard-response","240","360503","0.0-3.0-6.0-1.0-2.34","5df0524c1217a00b60a0328d","6662009ae78f21dd82fcd179","666208df2b1c87908d265de9","null","","null","","","","","","","","./tasks/HMM-beads/Images/WhiteBeadChoiceCorrect.png","","","","","","","","","",""
"image-keyboard-response","241","361535","0.0-3.0-6.0-1.0-0.35","5df0524c1217a00b60a0328d","6662009ae78f21dd82fcd179","666208df2b1c87908d265de9","1029","","j","","","","","","","","./tasks/HMM-beads/Images/NewTrialWC.png","lowH","1","35","1","1","1","1","true","",""
"image-keyboard-response","242","361851","0.0-3.0-6.0-1.0-1.35","5df0524c1217a00b60a0328d","6662009ae78f21dd82fcd179","666208df2b1c87908d265de9","null","","null","","","","","","","","./tasks/HMM-beads/Images/WhiteBeadChoice.png","","","","","","","","","",""
"image-keyboard-response","243","362362","0.0-3.0-6.0-1.0-2.35","5df0524c1217a00b60a0328d","6662009ae78f21dd82fcd179","666208df2b1c87908d265de9","null","","null","","","","","","","","./tasks/HMM-beads/Images/WhiteBeadChoiceCorrect.png","","","","","","","","","",""
"image-keyboard-response","244","363100","0.0-3.0-6.0-1.0-0.36","5df0524c1217a00b60a0328d","6662009ae78f21dd82fcd179","666208df2b1c87908d265de9","736","","j","","","","","","","","./tasks/HMM-beads/Images/NewTrialWC.png","lowH","1","36","1","1","1","1","true","",""
"image-keyboard-response","245","363411","0.0-3.0-6.0-1.0-1.36","5df0524c1217a00b60a0328d","6662009ae78f21dd82fcd179","666208df2b1c87908d265de9","null","","null","","","","","","","","./tasks/HMM-beads/Images/WhiteBeadChoice.png","","","","","","","","","",""
"image-keyboard-response","246","363922","0.0-3.0-6.0-1.0-2.36","5df0524c1217a00b60a0328d","6662009ae78f21dd82fcd179","666208df2b1c87908d265de9","null","","null","","","","","","","","./tasks/HMM-beads/Images/WhiteBeadChoiceCorrect.png","","","","","","","","","",""
"image-keyboard-response","247","364640","0.0-3.0-6.0-1.0-0.37","5df0524c1217a00b60a0328d","6662009ae78f21dd82fcd179","666208df2b1c87908d265de9","714","","j","","","","","","","","./tasks/HMM-beads/Images/NewTrialWC.png","lowH","1","37","1","1","1","1","true","",""
"image-keyboard-response","248","364951","0.0-3.0-6.0-1.0-1.37","5df0524c1217a00b60a0328d","6662009ae78f21dd82fcd179","666208df2b1c87908d265de9","null","","null","","","","","","","","./tasks/HMM-beads/Images/WhiteBeadChoice.png","","","","","","","","","",""
"image-keyboard-response","249","365462","0.0-3.0-6.0-1.0-2.37","5df0524c1217a00b60a0328d","6662009ae78f21dd82fcd179","666208df2b1c87908d265de9","null","","null","","","","","","","","./tasks/HMM-beads/Images/WhiteBeadChoiceCorrect.png","","","","","","","","","",""
"image-keyboard-response","250","366495","0.0-3.0-6.0-1.0-0.38","5df0524c1217a00b60a0328d","6662009ae78f21dd82fcd179","666208df2b1c87908d265de9","1030","","j","","","","","","","","./tasks/HMM-beads/Images/NewTrialWC.png","lowH","1","38","1","1","1","1","true","",""
"image-keyboard-response","251","366811","0.0-3.0-6.0-1.0-1.38","5df0524c1217a00b60a0328d","6662009ae78f21dd82fcd179","666208df2b1c87908d265de9","null","","null","","","","","","","","./tasks/HMM-beads/Images/WhiteBeadChoice.png","","","","","","","","","",""
"image-keyboard-response","252","367323","0.0-3.0-6.0-1.0-2.38","5df0524c1217a00b60a0328d","6662009ae78f21dd82fcd179","666208df2b1c87908d265de9","null","","null","","","","","","","","./tasks/HMM-beads/Images/WhiteBeadChoiceCorrect.png","","","","","","","","","",""
"image-keyboard-response","253","367956","0.0-3.0-6.0-1.0-0.39","5df0524c1217a00b60a0328d","6662009ae78f21dd82fcd179","666208df2b1c87908d265de9","630","","j","","","","","","","","./tasks/HMM-beads/Images/NewTrialWC.png","lowH","1","39","1","1","1","1","true","",""
"image-keyboard-response","254","368272","0.0-3.0-6.0-1.0-1.39","5df0524c1217a00b60a0328d","6662009ae78f21dd82fcd179","666208df2b1c87908d265de9","null","","null","","","","","","","","./tasks/HMM-beads/Images/WhiteBeadChoice.png","","","","","","","","","",""
"image-keyboard-response","255","368787","0.0-3.0-6.0-1.0-2.39","5df0524c1217a00b60a0328d","6662009ae78f21dd82fcd179","666208df2b1c87908d265de9","null","","null","","","","","","","","./tasks/HMM-beads/Images/WhiteBeadChoiceCorrect.png","","","","","","","","","",""
"image-keyboard-response","256","369234","0.0-3.0-6.0-1.0-0.40","5df0524c1217a00b60a0328d","6662009ae78f21dd82fcd179","666208df2b1c87908d265de9","444","","f","","","","","","","","./tasks/HMM-beads/Images/NewTrialWC.png","lowH","1","40","1","1","1","0","false","",""
"image-keyboard-response","257","369537","0.0-3.0-6.0-1.0-1.40","5df0524c1217a00b60a0328d","6662009ae78f21dd82fcd179","666208df2b1c87908d265de9","null","","null","","","","","","","","./tasks/HMM-beads/Images/BlackBeadChoice.png","","","","","","","","","",""
"image-keyboard-response","258","370053","0.0-3.0-6.0-1.0-2.40","5df0524c1217a00b60a0328d","6662009ae78f21dd82fcd179","666208df2b1c87908d265de9","null","","null","","","","","","","","./tasks/HMM-beads/Images/BlackBeadChoiceWrong.png","","","","","","","","","",""
"image-keyboard-response","259","370468","0.0-3.0-6.0-1.0-0.41","5df0524c1217a00b60a0328d","6662009ae78f21dd82fcd179","666208df2b1c87908d265de9","414","","j","","","","","","","","./tasks/HMM-beads/Images/NewTrialWC.png","lowH","1","41","1","1","1","1","true","",""
"image-keyboard-response","260","370779","0.0-3.0-6.0-1.0-1.41","5df0524c1217a00b60a0328d","6662009ae78f21dd82fcd179","666208df2b1c87908d265de9","null","","null","","","","","","","","./tasks/HMM-beads/Images/WhiteBeadChoice.png","","","","","","","","","",""
"image-keyboard-response","261","371293","0.0-3.0-6.0-1.0-2.41","5df0524c1217a00b60a0328d","6662009ae78f21dd82fcd179","666208df2b1c87908d265de9","null","","null","","","","","","","","./tasks/HMM-beads/Images/WhiteBeadChoiceCorrect.png","","","","","","","","","",""
"image-keyboard-response","262","371741","0.0-3.0-6.0-1.0-0.42","5df0524c1217a00b60a0328d","6662009ae78f21dd82fcd179","666208df2b1c87908d265de9","445","","j","","","","","","","","./tasks/HMM-beads/Images/NewTrialWC.png","lowH","1","42","1","1","1","1","true","",""
"image-keyboard-response","263","372056","0.0-3.0-6.0-1.0-1.42","5df0524c1217a00b60a0328d","6662009ae78f21dd82fcd179","666208df2b1c87908d265de9","null","","null","","","","","","","","./tasks/HMM-beads/Images/WhiteBeadChoice.png","","","","","","","","","",""
"image-keyboard-response","264","372561","0.0-3.0-6.0-1.0-2.42","5df0524c1217a00b60a0328d","6662009ae78f21dd82fcd179","666208df2b1c87908d265de9","null","","null","","","","","","","","./tasks/HMM-beads/Images/WhiteBeadChoiceCorrect.png","","","","","","","","","",""
"image-keyboard-response","265","372922","0.0-3.0-6.0-1.0-0.43","5df0524c1217a00b60a0328d","6662009ae78f21dd82fcd179","666208df2b1c87908d265de9","357","","j","","","","","","","","./tasks/HMM-beads/Images/NewTrialWC.png","lowH","1","43","1","1","1","1","true","",""
"image-keyboard-response","266","373226","0.0-3.0-6.0-1.0-1.43","5df0524c1217a00b60a0328d","6662009ae78f21dd82fcd179","666208df2b1c87908d265de9","null","","null","","","","","","","","./tasks/HMM-beads/Images/WhiteBeadChoice.png","","","","","","","","","",""
"image-keyboard-response","267","373733","0.0-3.0-6.0-1.0-2.43","5df0524c1217a00b60a0328d","6662009ae78f21dd82fcd179","666208df2b1c87908d265de9","null","","null","","","","","","","","./tasks/HMM-beads/Images/WhiteBeadChoiceCorrect.png","","","","","","","","","",""
"image-keyboard-response","268","374200","0.0-3.0-6.0-1.0-0.44","5df0524c1217a00b60a0328d","6662009ae78f21dd82fcd179","666208df2b1c87908d265de9","465","","j","","","","","","","","./tasks/HMM-beads/Images/NewTrialWC.png","lowH","1","44","1","1","1","1","true","",""
"image-keyboard-response","269","374504","0.0-3.0-6.0-1.0-1.44","5df0524c1217a00b60a0328d","6662009ae78f21dd82fcd179","666208df2b1c87908d265de9","null","","null","","","","","","","","./tasks/HMM-beads/Images/WhiteBeadChoice.png","","","","","","","","","",""
"image-keyboard-response","270","375014","0.0-3.0-6.0-1.0-2.44","5df0524c1217a00b60a0328d","6662009ae78f21dd82fcd179","666208df2b1c87908d265de9","null","","null","","","","","","","","./tasks/HMM-beads/Images/WhiteBeadChoiceCorrect.png","","","","","","","","","",""
"image-keyboard-response","271","375308","0.0-3.0-6.0-1.0-0.45","5df0524c1217a00b60a0328d","6662009ae78f21dd82fcd179","666208df2b1c87908d265de9","292","","j","","","","","","","","./tasks/HMM-beads/Images/NewTrialWC.png","lowH","1","45","1","1","1","1","true","",""
"image-keyboard-response","272","375623","0.0-3.0-6.0-1.0-1.45","5df0524c1217a00b60a0328d","6662009ae78f21dd82fcd179","666208df2b1c87908d265de9","null","","null","","","","","","","","./tasks/HMM-beads/Images/WhiteBeadChoice.png","","","","","","","","","",""
"image-keyboard-response","273","376128","0.0-3.0-6.0-1.0-2.45","5df0524c1217a00b60a0328d","6662009ae78f21dd82fcd179","666208df2b1c87908d265de9","null","","null","","","","","","","","./tasks/HMM-beads/Images/WhiteBeadChoiceCorrect.png","","","","","","","","","",""
"image-keyboard-response","274","376451","0.0-3.0-6.0-1.0-0.46","5df0524c1217a00b60a0328d","6662009ae78f21dd82fcd179","666208df2b1c87908d265de9","321","","j","","","","","","","","./tasks/HMM-beads/Images/NewTrialWC.png","lowH","1","46","1","1","1","1","true","",""
"image-keyboard-response","275","376759","0.0-3.0-6.0-1.0-1.46","5df0524c1217a00b60a0328d","6662009ae78f21dd82fcd179","666208df2b1c87908d265de9","null","","null","","","","","","","","./tasks/HMM-beads/Images/WhiteBeadChoice.png","","","","","","","","","",""
"image-keyboard-response","276","377264","0.0-3.0-6.0-1.0-2.46","5df0524c1217a00b60a0328d","6662009ae78f21dd82fcd179","666208df2b1c87908d265de9","null","","null","","","","","","","","./tasks/HMM-beads/Images/WhiteBeadChoiceCorrect.png","","","","","","","","","",""
"image-keyboard-response","277","377748","0.0-3.0-6.0-1.0-0.47","5df0524c1217a00b60a0328d","6662009ae78f21dd82fcd179","666208df2b1c87908d265de9","483","","j","","","","","","","","./tasks/HMM-beads/Images/NewTrialWC.png","lowH","1","47","1","0","1","1","false","",""
"image-keyboard-response","278","378061","0.0-3.0-6.0-1.0-1.47","5df0524c1217a00b60a0328d","6662009ae78f21dd82fcd179","666208df2b1c87908d265de9","null","","null","","","","","","","","./tasks/HMM-beads/Images/WhiteBeadChoice.png","","","","","","","","","",""
"image-keyboard-response","279","378571","0.0-3.0-6.0-1.0-2.47","5df0524c1217a00b60a0328d","6662009ae78f21dd82fcd179","666208df2b1c87908d265de9","null","","null","","","","","","","","./tasks/HMM-beads/Images/WhiteBeadChoiceWrong.png","","","","","","","","","",""
"image-keyboard-response","280","378953","0.0-3.0-6.0-1.0-0.48","5df0524c1217a00b60a0328d","6662009ae78f21dd82fcd179","666208df2b1c87908d265de9","379","","j","","","","","","","","./tasks/HMM-beads/Images/NewTrialBC.png","lowH","1","48","1","0","0","1","false","",""
"image-keyboard-response","281","379256","0.0-3.0-6.0-1.0-1.48","5df0524c1217a00b60a0328d","6662009ae78f21dd82fcd179","666208df2b1c87908d265de9","null","","null","","","","","","","","./tasks/HMM-beads/Images/WhiteBeadChoice.png","","","","","","","","","",""
"image-keyboard-response","282","379773","0.0-3.0-6.0-1.0-2.48","5df0524c1217a00b60a0328d","6662009ae78f21dd82fcd179","666208df2b1c87908d265de9","null","","null","","","","","","","","./tasks/HMM-beads/Images/WhiteBeadChoiceWrong.png","","","","","","","","","",""
"image-keyboard-response","283","380666","0.0-3.0-6.0-1.0-0.49","5df0524c1217a00b60a0328d","6662009ae78f21dd82fcd179","666208df2b1c87908d265de9","890","","j","","","","","","","","./tasks/HMM-beads/Images/NewTrialBC.png","lowH","1","49","1","0","0","1","false","",""
"image-keyboard-response","284","380975","0.0-3.0-6.0-1.0-1.49","5df0524c1217a00b60a0328d","6662009ae78f21dd82fcd179","666208df2b1c87908d265de9","null","","null","","","","","","","","./tasks/HMM-beads/Images/WhiteBeadChoice.png","","","","","","","","","",""
"image-keyboard-response","285","381491","0.0-3.0-6.0-1.0-2.49","5df0524c1217a00b60a0328d","6662009ae78f21dd82fcd179","666208df2b1c87908d265de9","null","","null","","","","","","","","./tasks/HMM-beads/Images/WhiteBeadChoiceWrong.png","","","","","","","","","",""
"image-keyboard-response","286","381784","0.0-3.0-6.0-1.0-0.50","5df0524c1217a00b60a0328d","6662009ae78f21dd82fcd179","666208df2b1c87908d265de9","291","","f","","","","","","","","./tasks/HMM-beads/Images/NewTrialBC.png","lowH","1","50","1","1","0","0","false","",""
"image-keyboard-response","287","382100","0.0-3.0-6.0-1.0-1.50","5df0524c1217a00b60a0328d","6662009ae78f21dd82fcd179","666208df2b1c87908d265de9","null","","null","","","","","","","","./tasks/HMM-beads/Images/BlackBeadChoice.png","","","","","","","","","",""
"image-keyboard-response","288","382604","0.0-3.0-6.0-1.0-2.50","5df0524c1217a00b60a0328d","6662009ae78f21dd82fcd179","666208df2b1c87908d265de9","null","","null","","","","","","","","./tasks/HMM-beads/Images/BlackBeadChoiceWrong.png","","","","","","","","","",""
"image-keyboard-response","289","382898","0.0-3.0-6.0-1.0-0.51","5df0524c1217a00b60a0328d","6662009ae78f21dd82fcd179","666208df2b1c87908d265de9","291","","f","","","","","","","","./tasks/HMM-beads/Images/NewTrialWC.png","lowH","1","51","1","1","1","0","false","",""
"image-keyboard-response","290","383210","0.0-3.0-6.0-1.0-1.51","5df0524c1217a00b60a0328d","6662009ae78f21dd82fcd179","666208df2b1c87908d265de9","null","","null","","","","","","","","./tasks/HMM-beads/Images/BlackBeadChoice.png","","","","","","","","","",""
"image-keyboard-response","291","383716","0.0-3.0-6.0-1.0-2.51","5df0524c1217a00b60a0328d","6662009ae78f21dd82fcd179","666208df2b1c87908d265de9","null","","null","","","","","","","","./tasks/HMM-beads/Images/BlackBeadChoiceWrong.png","","","","","","","","","",""
"image-keyboard-response","292","384004","0.0-3.0-6.0-1.0-0.52","5df0524c1217a00b60a0328d","6662009ae78f21dd82fcd179","666208df2b1c87908d265de9","285","","j","","","","","","","","./tasks/HMM-beads/Images/NewTrialWC.png","lowH","1","52","1","1","1","1","true","",""
"image-keyboard-response","293","384318","0.0-3.0-6.0-1.0-1.52","5df0524c1217a00b60a0328d","6662009ae78f21dd82fcd179","666208df2b1c87908d265de9","null","","null","","","","","","","","./tasks/HMM-beads/Images/WhiteBeadChoice.png","","","","","","","","","",""
"image-keyboard-response","294","384836","0.0-3.0-6.0-1.0-2.52","5df0524c1217a00b60a0328d","6662009ae78f21dd82fcd179","666208df2b1c87908d265de9","null","","null","","","","","","","","./tasks/HMM-beads/Images/WhiteBeadChoiceCorrect.png","","","","","","","","","",""
"image-keyboard-response","295","385112","0.0-3.0-6.0-1.0-0.53","5df0524c1217a00b60a0328d","6662009ae78f21dd82fcd179","666208df2b1c87908d265de9","274","","j","","","","","","","","./tasks/HMM-beads/Images/NewTrialWC.png","lowH","1","53","1","1","1","1","true","",""
"image-keyboard-response","296","385419","0.0-3.0-6.0-1.0-1.53","5df0524c1217a00b60a0328d","6662009ae78f21dd82fcd179","666208df2b1c87908d265de9","null","","null","","","","","","","","./tasks/HMM-beads/Images/WhiteBeadChoice.png","","","","","","","","","",""
"image-keyboard-response","297","385931","0.0-3.0-6.0-1.0-2.53","5df0524c1217a00b60a0328d","6662009ae78f21dd82fcd179","666208df2b1c87908d265de9","null","","null","","","","","","","","./tasks/HMM-beads/Images/WhiteBeadChoiceCorrect.png","","","","","","","","","",""
"image-keyboard-response","298","386499","0.0-3.0-6.0-1.0-0.54","5df0524c1217a00b60a0328d","6662009ae78f21dd82fcd179","666208df2b1c87908d265de9","565","","j","","","","","","","","./tasks/HMM-beads/Images/NewTrialWC.png","lowH","1","54","1","1","1","1","true","",""
"image-keyboard-response","299","386807","0.0-3.0-6.0-1.0-1.54","5df0524c1217a00b60a0328d","6662009ae78f21dd82fcd179","666208df2b1c87908d265de9","null","","null","","","","","","","","./tasks/HMM-beads/Images/WhiteBeadChoice.png","","","","","","","","","",""
"image-keyboard-response","300","387319","0.0-3.0-6.0-1.0-2.54","5df0524c1217a00b60a0328d","6662009ae78f21dd82fcd179","666208df2b1c87908d265de9","null","","null","","","","","","","","./tasks/HMM-beads/Images/WhiteBeadChoiceCorrect.png","","","","","","","","","",""
"image-keyboard-response","301","387506","0.0-3.0-6.0-1.0-0.55","5df0524c1217a00b60a0328d","6662009ae78f21dd82fcd179","666208df2b1c87908d265de9","184","","j","","","","","","","","./tasks/HMM-beads/Images/NewTrialWC.png","lowH","1","55","1","1","1","1","true","",""
"image-keyboard-response","302","387811","0.0-3.0-6.0-1.0-1.55","5df0524c1217a00b60a0328d","6662009ae78f21dd82fcd179","666208df2b1c87908d265de9","null","","null","","","","","","","","./tasks/HMM-beads/Images/WhiteBeadChoice.png","","","","","","","","","",""
"image-keyboard-response","303","388313","0.0-3.0-6.0-1.0-2.55","5df0524c1217a00b60a0328d","6662009ae78f21dd82fcd179","666208df2b1c87908d265de9","null","","null","","","","","","","","./tasks/HMM-beads/Images/WhiteBeadChoiceCorrect.png","","","","","","","","","",""
"image-keyboard-response","304","388721","0.0-3.0-6.0-1.0-0.56","5df0524c1217a00b60a0328d","6662009ae78f21dd82fcd179","666208df2b1c87908d265de9","406","","j","","","","","","","","./tasks/HMM-beads/Images/NewTrialWC.png","lowH","1","56","1","1","1","1","true","",""
"image-keyboard-response","305","389037","0.0-3.0-6.0-1.0-1.56","5df0524c1217a00b60a0328d","6662009ae78f21dd82fcd179","666208df2b1c87908d265de9","null","","null","","","","","","","","./tasks/HMM-beads/Images/WhiteBeadChoice.png","","","","","","","","","",""
"image-keyboard-response","306","389544","0.0-3.0-6.0-1.0-2.56","5df0524c1217a00b60a0328d","6662009ae78f21dd82fcd179","666208df2b1c87908d265de9","null","","null","","","","","","","","./tasks/HMM-beads/Images/WhiteBeadChoiceCorrect.png","","","","","","","","","",""
"image-keyboard-response","307","390305","0.0-3.0-6.0-1.0-0.57","5df0524c1217a00b60a0328d","6662009ae78f21dd82fcd179","666208df2b1c87908d265de9","759","","j","","","","","","","","./tasks/HMM-beads/Images/NewTrialWC.png","lowH","1","57","1","1","1","1","true","",""
"image-keyboard-response","308","390611","0.0-3.0-6.0-1.0-1.57","5df0524c1217a00b60a0328d","6662009ae78f21dd82fcd179","666208df2b1c87908d265de9","null","","null","","","","","","","","./tasks/HMM-beads/Images/WhiteBeadChoice.png","","","","","","","","","",""
"image-keyboard-response","309","391123","0.0-3.0-6.0-1.0-2.57","5df0524c1217a00b60a0328d","6662009ae78f21dd82fcd179","666208df2b1c87908d265de9","null","","null","","","","","","","","./tasks/HMM-beads/Images/WhiteBeadChoiceCorrect.png","","","","","","","","","",""
"image-keyboard-response","310","391476","0.0-3.0-6.0-1.0-0.58","5df0524c1217a00b60a0328d","6662009ae78f21dd82fcd179","666208df2b1c87908d265de9","351","","j","","","","","","","","./tasks/HMM-beads/Images/NewTrialWC.png","lowH","1","58","1","1","1","1","true","",""
"image-keyboard-response","311","391797","0.0-3.0-6.0-1.0-1.58","5df0524c1217a00b60a0328d","6662009ae78f21dd82fcd179","666208df2b1c87908d265de9","null","","null","","","","","","","","./tasks/HMM-beads/Images/WhiteBeadChoice.png","","","","","","","","","",""
"image-keyboard-response","312","392308","0.0-3.0-6.0-1.0-2.58","5df0524c1217a00b60a0328d","6662009ae78f21dd82fcd179","666208df2b1c87908d265de9","null","","null","","","","","","","","./tasks/HMM-beads/Images/WhiteBeadChoiceCorrect.png","","","","","","","","","",""
"image-keyboard-response","313","393045","0.0-3.0-6.0-1.0-0.59","5df0524c1217a00b60a0328d","6662009ae78f21dd82fcd179","666208df2b1c87908d265de9","733","","j","","","","","","","","./tasks/HMM-beads/Images/NewTrialWC.png","lowH","1","59","1","0","1","1","false","",""
"image-keyboard-response","314","393349","0.0-3.0-6.0-1.0-1.59","5df0524c1217a00b60a0328d","6662009ae78f21dd82fcd179","666208df2b1c87908d265de9","null","","null","","","","","","","","./tasks/HMM-beads/Images/WhiteBeadChoice.png","","","","","","","","","",""
"image-keyboard-response","315","393867","0.0-3.0-6.0-1.0-2.59","5df0524c1217a00b60a0328d","6662009ae78f21dd82fcd179","666208df2b1c87908d265de9","null","","null","","","","","","","","./tasks/HMM-beads/Images/WhiteBeadChoiceWrong.png","","","","","","","","","",""
"image-keyboard-response","316","394190","0.0-3.0-6.0-1.0-0.60","5df0524c1217a00b60a0328d","6662009ae78f21dd82fcd179","666208df2b1c87908d265de9","321","","j","","","","","","","","./tasks/HMM-beads/Images/NewTrialBC.png","lowH","1","60","1","1","0","1","true","",""
"image-keyboard-response","317","394492","0.0-3.0-6.0-1.0-1.60","5df0524c1217a00b60a0328d","6662009ae78f21dd82fcd179","666208df2b1c87908d265de9","null","","null","","","","","","","","./tasks/HMM-beads/Images/WhiteBeadChoice.png","","","","","","","","","",""
"image-keyboard-response","318","394996","0.0-3.0-6.0-1.0-2.60","5df0524c1217a00b60a0328d","6662009ae78f21dd82fcd179","666208df2b1c87908d265de9","null","","null","","","","","","","","./tasks/HMM-beads/Images/WhiteBeadChoiceCorrect.png","","","","","","","","","",""
"image-keyboard-response","319","395388","0.0-3.0-6.0-1.0-0.61","5df0524c1217a00b60a0328d","6662009ae78f21dd82fcd179","666208df2b1c87908d265de9","391","","j","","","","","","","","./tasks/HMM-beads/Images/NewTrialWC.png","lowH","1","61","1","1","1","1","true","",""
"image-keyboard-response","320","395698","0.0-3.0-6.0-1.0-1.61","5df0524c1217a00b60a0328d","6662009ae78f21dd82fcd179","666208df2b1c87908d265de9","null","","null","","","","","","","","./tasks/HMM-beads/Images/WhiteBeadChoice.png","","","","","","","","","",""
"image-keyboard-response","321","396214","0.0-3.0-6.0-1.0-2.61","5df0524c1217a00b60a0328d","6662009ae78f21dd82fcd179","666208df2b1c87908d265de9","null","","null","","","","","","","","./tasks/HMM-beads/Images/WhiteBeadChoiceCorrect.png","","","","","","","","","",""
"image-keyboard-response","322","396489","0.0-3.0-6.0-1.0-0.62","5df0524c1217a00b60a0328d","6662009ae78f21dd82fcd179","666208df2b1c87908d265de9","272","","j","","","","","","","","./tasks/HMM-beads/Images/NewTrialWC.png","lowH","1","62","1","0","1","1","false","",""
"image-keyboard-response","323","396793","0.0-3.0-6.0-1.0-1.62","5df0524c1217a00b60a0328d","6662009ae78f21dd82fcd179","666208df2b1c87908d265de9","null","","null","","","","","","","","./tasks/HMM-beads/Images/WhiteBeadChoice.png","","","","","","","","","",""
"image-keyboard-response","324","397311","0.0-3.0-6.0-1.0-2.62","5df0524c1217a00b60a0328d","6662009ae78f21dd82fcd179","666208df2b1c87908d265de9","null","","null","","","","","","","","./tasks/HMM-beads/Images/WhiteBeadChoiceWrong.png","","","","","","","","","",""
"image-keyboard-response","325","397956","0.0-3.0-6.0-1.0-0.63","5df0524c1217a00b60a0328d","6662009ae78f21dd82fcd179","666208df2b1c87908d265de9","642","","j","","","","","","","","./tasks/HMM-beads/Images/NewTrialBC.png","lowH","1","63","1","1","0","1","true","",""
"image-keyboard-response","326","398262","0.0-3.0-6.0-1.0-1.63","5df0524c1217a00b60a0328d","6662009ae78f21dd82fcd179","666208df2b1c87908d265de9","null","","null","","","","","","","","./tasks/HMM-beads/Images/WhiteBeadChoice.png","","","","","","","","","",""
"image-keyboard-response","327","398768","0.0-3.0-6.0-1.0-2.63","5df0524c1217a00b60a0328d","6662009ae78f21dd82fcd179","666208df2b1c87908d265de9","null","","null","","","","","","","","./tasks/HMM-beads/Images/WhiteBeadChoiceCorrect.png","","","","","","","","","",""
"image-keyboard-response","328","399166","0.0-3.0-6.0-1.0-0.64","5df0524c1217a00b60a0328d","6662009ae78f21dd82fcd179","666208df2b1c87908d265de9","397","","j","","","","","","","","./tasks/HMM-beads/Images/NewTrialWC.png","lowH","1","64","1","1","1","1","true","",""
"image-keyboard-response","329","399472","0.0-3.0-6.0-1.0-1.64","5df0524c1217a00b60a0328d","6662009ae78f21dd82fcd179","666208df2b1c87908d265de9","null","","null","","","","","","","","./tasks/HMM-beads/Images/WhiteBeadChoice.png","","","","","","","","","",""
"image-keyboard-response","330","399986","0.0-3.0-6.0-1.0-2.64","5df0524c1217a00b60a0328d","6662009ae78f21dd82fcd179","666208df2b1c87908d265de9","null","","null","","","","","","","","./tasks/HMM-beads/Images/WhiteBeadChoiceCorrect.png","","","","","","","","","",""
"image-keyboard-response","331","400232","0.0-3.0-6.0-1.0-0.65","5df0524c1217a00b60a0328d","6662009ae78f21dd82fcd179","666208df2b1c87908d265de9","243","","j","","","","","","","","./tasks/HMM-beads/Images/NewTrialWC.png","lowH","1","65","1","1","1","1","true","",""
"image-keyboard-response","332","400540","0.0-3.0-6.0-1.0-1.65","5df0524c1217a00b60a0328d","6662009ae78f21dd82fcd179","666208df2b1c87908d265de9","null","","null","","","","","","","","./tasks/HMM-beads/Images/WhiteBeadChoice.png","","","","","","","","","",""
"image-keyboard-response","333","401056","0.0-3.0-6.0-1.0-2.65","5df0524c1217a00b60a0328d","6662009ae78f21dd82fcd179","666208df2b1c87908d265de9","null","","null","","","","","","","","./tasks/HMM-beads/Images/WhiteBeadChoiceCorrect.png","","","","","","","","","",""
"image-keyboard-response","334","401508","0.0-3.0-6.0-1.0-0.66","5df0524c1217a00b60a0328d","6662009ae78f21dd82fcd179","666208df2b1c87908d265de9","449","","j","","","","","","","","./tasks/HMM-beads/Images/NewTrialWC.png","lowH","1","66","1","1","1","1","true","",""
"image-keyboard-response","335","401822","0.0-3.0-6.0-1.0-1.66","5df0524c1217a00b60a0328d","6662009ae78f21dd82fcd179","666208df2b1c87908d265de9","null","","null","","","","","","","","./tasks/HMM-beads/Images/WhiteBeadChoice.png","","","","","","","","","",""
"image-keyboard-response","336","402328","0.0-3.0-6.0-1.0-2.66","5df0524c1217a00b60a0328d","6662009ae78f21dd82fcd179","666208df2b1c87908d265de9","null","","null","","","","","","","","./tasks/HMM-beads/Images/WhiteBeadChoiceCorrect.png","","","","","","","","","",""
"image-keyboard-response","337","402723","0.0-3.0-6.0-1.0-0.67","5df0524c1217a00b60a0328d","6662009ae78f21dd82fcd179","666208df2b1c87908d265de9","393","","j","","","","","","","","./tasks/HMM-beads/Images/NewTrialWC.png","lowH","1","67","1","0","1","1","false","",""
"image-keyboard-response","338","403040","0.0-3.0-6.0-1.0-1.67","5df0524c1217a00b60a0328d","6662009ae78f21dd82fcd179","666208df2b1c87908d265de9","null","","null","","","","","","","","./tasks/HMM-beads/Images/WhiteBeadChoice.png","","","","","","","","","",""
"image-keyboard-response","339","403551","0.0-3.0-6.0-1.0-2.67","5df0524c1217a00b60a0328d","6662009ae78f21dd82fcd179","666208df2b1c87908d265de9","null","","null","","","","","","","","./tasks/HMM-beads/Images/WhiteBeadChoiceWrong.png","","","","","","","","","",""
"image-keyboard-response","340","403985","0.0-3.0-6.0-1.0-0.68","5df0524c1217a00b60a0328d","6662009ae78f21dd82fcd179","666208df2b1c87908d265de9","431","","j","","","","","","","","./tasks/HMM-beads/Images/NewTrialBC.png","lowH","1","68","1","1","0","1","true","",""
"image-keyboard-response","341","404287","0.0-3.0-6.0-1.0-1.68","5df0524c1217a00b60a0328d","6662009ae78f21dd82fcd179","666208df2b1c87908d265de9","null","","null","","","","","","","","./tasks/HMM-beads/Images/WhiteBeadChoice.png","","","","","","","","","",""
"image-keyboard-response","342","404803","0.0-3.0-6.0-1.0-2.68","5df0524c1217a00b60a0328d","6662009ae78f21dd82fcd179","666208df2b1c87908d265de9","null","","null","","","","","","","","./tasks/HMM-beads/Images/WhiteBeadChoiceCorrect.png","","","","","","","","","",""
"image-keyboard-response","343","405106","0.0-3.0-6.0-1.0-0.69","5df0524c1217a00b60a0328d","6662009ae78f21dd82fcd179","666208df2b1c87908d265de9","300","","j","","","","","","","","./tasks/HMM-beads/Images/NewTrialWC.png","lowH","1","69","0","1","1","1","true","",""
"image-keyboard-response","344","405420","0.0-3.0-6.0-1.0-1.69","5df0524c1217a00b60a0328d","6662009ae78f21dd82fcd179","666208df2b1c87908d265de9","null","","null","","","","","","","","./tasks/HMM-beads/Images/WhiteBeadChoice.png","","","","","","","","","",""
"image-keyboard-response","345","405936","0.0-3.0-6.0-1.0-2.69","5df0524c1217a00b60a0328d","6662009ae78f21dd82fcd179","666208df2b1c87908d265de9","null","","null","","","","","","","","./tasks/HMM-beads/Images/WhiteBeadChoiceCorrect.png","","","","","","","","","",""
"image-keyboard-response","346","405993","0.0-3.0-6.0-1.0-0.70","5df0524c1217a00b60a0328d","6662009ae78f21dd82fcd179","666208df2b1c87908d265de9","54","","j","","","","","","","","./tasks/HMM-beads/Images/NewTrialWC.png","lowH","1","70","0","1","1","1","true","",""
"image-keyboard-response","347","406307","0.0-3.0-6.0-1.0-1.70","5df0524c1217a00b60a0328d","6662009ae78f21dd82fcd179","666208df2b1c87908d265de9","null","","null","","","","","","","","./tasks/HMM-beads/Images/WhiteBeadChoice.png","","","","","","","","","",""
"image-keyboard-response","348","406824","0.0-3.0-6.0-1.0-2.70","5df0524c1217a00b60a0328d","6662009ae78f21dd82fcd179","666208df2b1c87908d265de9","null","","null","","","","","","","","./tasks/HMM-beads/Images/WhiteBeadChoiceCorrect.png","","","","","","","","","",""
"image-keyboard-response","349","406936","0.0-3.0-6.0-1.0-0.71","5df0524c1217a00b60a0328d","6662009ae78f21dd82fcd179","666208df2b1c87908d265de9","110","","j","","","","","","","","./tasks/HMM-beads/Images/NewTrialWC.png","lowH","1","71","0","0","1","1","false","",""
"image-keyboard-response","350","407242","0.0-3.0-6.0-1.0-1.71","5df0524c1217a00b60a0328d","6662009ae78f21dd82fcd179","666208df2b1c87908d265de9","null","","null","","","","","","","","./tasks/HMM-beads/Images/WhiteBeadChoice.png","","","","","","","","","",""
"image-keyboard-response","351","407755","0.0-3.0-6.0-1.0-2.71","5df0524c1217a00b60a0328d","6662009ae78f21dd82fcd179","666208df2b1c87908d265de9","null","","null","","","","","","","","./tasks/HMM-beads/Images/WhiteBeadChoiceWrong.png","","","","","","","","","",""
"image-keyboard-response","352","407879","0.0-3.0-6.0-1.0-0.72","5df0524c1217a00b60a0328d","6662009ae78f21dd82fcd179","666208df2b1c87908d265de9","121","","j","","","","","","","","./tasks/HMM-beads/Images/NewTrialBC.png","lowH","1","72","0","0","0","1","false","",""
"image-keyboard-response","353","408191","0.0-3.0-6.0-1.0-1.72","5df0524c1217a00b60a0328d","6662009ae78f21dd82fcd179","666208df2b1c87908d265de9","null","","null","","","","","","","","./tasks/HMM-beads/Images/WhiteBeadChoice.png","","","","","","","","","",""
"image-keyboard-response","354","408699","0.0-3.0-6.0-1.0-2.72","5df0524c1217a00b60a0328d","6662009ae78f21dd82fcd179","666208df2b1c87908d265de9","null","","null","","","","","","","","./tasks/HMM-beads/Images/WhiteBeadChoiceWrong.png","","","","","","","","","",""
"image-keyboard-response","355","409375","0.0-3.0-6.0-1.0-0.73","5df0524c1217a00b60a0328d","6662009ae78f21dd82fcd179","666208df2b1c87908d265de9","675","","j","","","","","","","","./tasks/HMM-beads/Images/NewTrialBC.png","lowH","1","73","0","1","0","1","true","",""
"image-keyboard-response","356","409691","0.0-3.0-6.0-1.0-1.73","5df0524c1217a00b60a0328d","6662009ae78f21dd82fcd179","666208df2b1c87908d265de9","null","","null","","","","","","","","./tasks/HMM-beads/Images/WhiteBeadChoice.png","","","","","","","","","",""
"image-keyboard-response","357","410195","0.0-3.0-6.0-1.0-2.73","5df0524c1217a00b60a0328d","6662009ae78f21dd82fcd179","666208df2b1c87908d265de9","null","","null","","","","","","","","./tasks/HMM-beads/Images/WhiteBeadChoiceCorrect.png","","","","","","","","","",""
"image-keyboard-response","358","410661","0.0-3.0-6.0-1.0-0.74","5df0524c1217a00b60a0328d","6662009ae78f21dd82fcd179","666208df2b1c87908d265de9","462","","j","","","","","","","","./tasks/HMM-beads/Images/NewTrialWC.png","lowH","1","74","0","0","1","1","false","",""
"image-keyboard-response","359","410971","0.0-3.0-6.0-1.0-1.74","5df0524c1217a00b60a0328d","6662009ae78f21dd82fcd179","666208df2b1c87908d265de9","null","","null","","","","","","","","./tasks/HMM-beads/Images/WhiteBeadChoice.png","","","","","","","","","",""
"image-keyboard-response","360","411487","0.0-3.0-6.0-1.0-2.74","5df0524c1217a00b60a0328d","6662009ae78f21dd82fcd179","666208df2b1c87908d265de9","null","","null","","","","","","","","./tasks/HMM-beads/Images/WhiteBeadChoiceWrong.png","","","","","","","","","",""
"image-keyboard-response","361","411651","0.0-3.0-6.0-1.0-0.75","5df0524c1217a00b60a0328d","6662009ae78f21dd82fcd179","666208df2b1c87908d265de9","163","","j","","","","","","","","./tasks/HMM-beads/Images/NewTrialBC.png","lowH","1","75","0","1","0","1","true","",""
"image-keyboard-response","362","411960","0.0-3.0-6.0-1.0-1.75","5df0524c1217a00b60a0328d","6662009ae78f21dd82fcd179","666208df2b1c87908d265de9","null","","null","","","","","","","","./tasks/HMM-beads/Images/WhiteBeadChoice.png","","","","","","","","","",""
"image-keyboard-response","363","412471","0.0-3.0-6.0-1.0-2.75","5df0524c1217a00b60a0328d","6662009ae78f21dd82fcd179","666208df2b1c87908d265de9","null","","null","","","","","","","","./tasks/HMM-beads/Images/WhiteBeadChoiceCorrect.png","","","","","","","","","",""
"image-keyboard-response","364","413238","0.0-3.0-6.0-1.0-0.76","5df0524c1217a00b60a0328d","6662009ae78f21dd82fcd179","666208df2b1c87908d265de9","765","","j","","","","","","","","./tasks/HMM-beads/Images/NewTrialWC.png","lowH","1","76","0","1","1","1","true","",""
"image-keyboard-response","365","413541","0.0-3.0-6.0-1.0-1.76","5df0524c1217a00b60a0328d","6662009ae78f21dd82fcd179","666208df2b1c87908d265de9","null","","null","","","","","","","","./tasks/HMM-beads/Images/WhiteBeadChoice.png","","","","","","","","","",""
"image-keyboard-response","366","414059","0.0-3.0-6.0-1.0-2.76","5df0524c1217a00b60a0328d","6662009ae78f21dd82fcd179","666208df2b1c87908d265de9","null","","null","","","","","","","","./tasks/HMM-beads/Images/WhiteBeadChoiceCorrect.png","","","","","","","","","",""
"image-keyboard-response","367","414253","0.0-3.0-6.0-1.0-0.77","5df0524c1217a00b60a0328d","6662009ae78f21dd82fcd179","666208df2b1c87908d265de9","193","","j","","","","","","","","./tasks/HMM-beads/Images/NewTrialWC.png","lowH","1","77","0","0","1","1","false","",""
"image-keyboard-response","368","414557","0.0-3.0-6.0-1.0-1.77","5df0524c1217a00b60a0328d","6662009ae78f21dd82fcd179","666208df2b1c87908d265de9","null","","null","","","","","","","","./tasks/HMM-beads/Images/WhiteBeadChoice.png","","","","","","","","","",""
"image-keyboard-response","369","415060","0.0-3.0-6.0-1.0-2.77","5df0524c1217a00b60a0328d","6662009ae78f21dd82fcd179","666208df2b1c87908d265de9","null","","null","","","","","","","","./tasks/HMM-beads/Images/WhiteBeadChoiceWrong.png","","","","","","","","","",""
"image-keyboard-response","370","417826","0.0-3.0-6.0-1.0-0.78","5df0524c1217a00b60a0328d","6662009ae78f21dd82fcd179","666208df2b1c87908d265de9","2765","","f","","","","","","","","./tasks/HMM-beads/Images/NewTrialBC.png","lowH","1","78","0","0","0","0","true","",""
"image-keyboard-response","371","418130","0.0-3.0-6.0-1.0-1.78","5df0524c1217a00b60a0328d","6662009ae78f21dd82fcd179","666208df2b1c87908d265de9","null","","null","","","","","","","","./tasks/HMM-beads/Images/BlackBeadChoice.png","","","","","","","","","",""
"image-keyboard-response","372","418645","0.0-3.0-6.0-1.0-2.78","5df0524c1217a00b60a0328d","6662009ae78f21dd82fcd179","666208df2b1c87908d265de9","null","","null","","","","","","","","./tasks/HMM-beads/Images/BlackBeadChoiceCorrect.png","","","","","","","","","",""
"image-keyboard-response","373","419050","0.0-3.0-6.0-1.0-0.79","5df0524c1217a00b60a0328d","6662009ae78f21dd82fcd179","666208df2b1c87908d265de9","403","","f","","","","","","","","./tasks/HMM-beads/Images/NewTrialBC.png","lowH","1","79","0","0","0","0","true","",""
"image-keyboard-response","374","419361","0.0-3.0-6.0-1.0-1.79","5df0524c1217a00b60a0328d","6662009ae78f21dd82fcd179","666208df2b1c87908d265de9","null","","null","","","","","","","","./tasks/HMM-beads/Images/BlackBeadChoice.png","","","","","","","","","",""
