"trial_type","trial_index","time_elapsed","internal_node_id","subject_id","study_id","session_id","rt","url","response","question_order","view_history","success","timeout","failed_images","failed_audio","failed_video","stimulus","block","block_rep","trial_number","jar","bead","previous_bead","choice","correct","lowH_score","total_bonus"
"pavlovia","0","1706","0.0-0.0","653166fa42afa6ecf4fc73c4","6662009ae78f21dd82fcd179","66620a4e0eda9a70e4593888","","","","","","","","","","","","","","","","","","","","",""
"external-html","1","11123","0.0-1.0-0.0","653166fa42afa6ecf4fc73c4","6662009ae78f21dd82fcd179","66620a4e0eda9a70e4593888","9274","new_consent.html","","","","","","","","","","","","","","","","","","",""
"survey-multi-choice","2","23411","0.0-1.0-1.0","653166fa42afa6ecf4fc73c4","6662009ae78f21dd82fcd179","66620a4e0eda9a70e4593888","12287","","{""Q0"":""Male"",""Q1"":""Hispanic or Latino""}","[0,1]","","","","","","","","","","","","","","","","",""
"survey-text","3","26026","0.0-1.0-2.0","653166fa42afa6ecf4fc73c4","6662009ae78f21dd82fcd179","66620a4e0eda9a70e4593888","2612","","{""Q0"":""36""}","","","","","","","","","","","","","","","","","",""
"instructions","4","28402","0.0-2.0","653166fa42afa6ecf4fc73c4","6662009ae78f21dd82fcd179","66620a4e0eda9a70e4593888","2274","","","","[{""page_index"":0,""viewing_time"":2274}]","","","","","","","","","","","","","","","",""
"preload","5","29923","0.0-3.0-0.0","653166fa42afa6ecf4fc73c4","6662009ae78f21dd82fcd179","66620a4e0eda9a70e4593888","","","","","","true","false","[]","[]","[]","","","","","","","","","","",""
"instructions","6","196540","0.0-3.0-1.0","653166fa42afa6ecf4fc73c4","6662009ae78f21dd82fcd179","66620a4e0eda9a70e4593888","166615","","","","[{""page_index"":0,""viewing_time"":18023},{""page_index"":1,""viewing_time"":14144},{""page_index"":2,""viewing_time"":6688},{""page_index"":3,""viewing_time"":1680},{""page_index"":4,""viewing_time"":26264},{""page_index"":5,""viewing_time"":30528},{""page_index"":6,""viewing_time"":9104},{""page_index"":7,""viewing_time"":8448},{""page_index"":8,""viewing_time"":9609},{""page_index"":9,""viewing_time"":5767},{""page_index"":10,""viewing_time"":15113},{""page_index"":9,""viewing_time"":5728},{""page_index"":8,""viewing_time"":7504},{""page_index"":9,""viewing_time"":864},{""page_index"":10,""viewing_time"":2768},{""page_index"":11,""viewing_time"":4384}]","","","","","","","","","","","","","","","",""
"html-button-response","7","201484","0.0-3.0-2.0-0.0-0.0","653166fa42afa6ecf4fc73c4","6662009ae78f21dd82fcd179","66620a4e0eda9a70e4593888","4943","","1","","","","","","","","<div align=center>Your goal is to predict…?<br><br></div>","","","","","","","","","",""
"html-button-response","8","208763","0.0-3.0-2.0-1.0-0.0","653166fa42afa6ecf4fc73c4","6662009ae78f21dd82fcd179","66620a4e0eda9a70e4593888","5655","","2","","","","","","","","<div align=center>In the jar with mostly white beads, there are ___% white beads and ___% black beads?<br><br></div>","","","","","","","","","",""
"html-button-response","9","219123","0.0-3.0-2.0-2.0-0.0","653166fa42afa6ecf4fc73c4","6662009ae78f21dd82fcd179","66620a4e0eda9a70e4593888","6767","","0","","","","","","","","<div align=center>When there is a 1% probability that the jars will switch, the next bead will most likely be drawn from the…<br><br></div>","","","","","","","","","",""
"html-button-response","10","223619","0.0-3.0-2.0-3.0-0.0","653166fa42afa6ecf4fc73c4","6662009ae78f21dd82fcd179","66620a4e0eda9a70e4593888","3399","","1","","","","","","","","<div align=center>When there is a 99% probability that the jars will switch, the next bead will most likely be drawn from the…<br><br></div>","","","","","","","","","",""
"instructions","11","233195","0.0-3.0-3.0","653166fa42afa6ecf4fc73c4","6662009ae78f21dd82fcd179","66620a4e0eda9a70e4593888","8344","","","","[{""page_index"":0,""viewing_time"":8343}]","","","","","","","","","","","","","","","",""
"html-keyboard-response","12","237560","0.0-3.0-4.0-0.0","653166fa42afa6ecf4fc73c4","6662009ae78f21dd82fcd179","66620a4e0eda9a70e4593888","4363",""," ","","","","","","","","<div align=center>In this practice block, there will be a <b>1% chance</b> that the jar on the next trial will be different from the jar on the current trial.<br><br></div>","","","","","","","","","",""
"image-keyboard-response","13","250374","0.0-3.0-4.0-1.0-0.0","653166fa42afa6ecf4fc73c4","6662009ae78f21dd82fcd179","66620a4e0eda9a70e4593888","12810","","f","","","","","","","","./tasks/HMM-beads/Images/NoChoice.png","practice","0","0","0","0","9","0","true","",""
"image-keyboard-response","14","250686","0.0-3.0-4.0-1.0-1.0","653166fa42afa6ecf4fc73c4","6662009ae78f21dd82fcd179","66620a4e0eda9a70e4593888","null","","null","","","","","","","","./tasks/HMM-beads/Images/BlackBeadChoice.png","","","","","","","","","",""
"image-keyboard-response","15","251199","0.0-3.0-4.0-1.0-2.0","653166fa42afa6ecf4fc73c4","6662009ae78f21dd82fcd179","66620a4e0eda9a70e4593888","null","","null","","","","","","","","./tasks/HMM-beads/Images/BlackBeadChoiceCorrect.png","","","","","","","","","",""
"image-keyboard-response","16","254613","0.0-3.0-4.0-1.0-0.1","653166fa42afa6ecf4fc73c4","6662009ae78f21dd82fcd179","66620a4e0eda9a70e4593888","3412","","f","","","","","","","","./tasks/HMM-beads/Images/NewTrialBC.png","practice","0","1","0","0","0","0","true","",""
"image-keyboard-response","17","254918","0.0-3.0-4.0-1.0-1.1","653166fa42afa6ecf4fc73c4","6662009ae78f21dd82fcd179","66620a4e0eda9a70e4593888","null","","null","","","","","","","","./tasks/HMM-beads/Images/BlackBeadChoice.png","","","","","","","","","",""
"image-keyboard-response","18","255421","0.0-3.0-4.0-1.0-2.1","653166fa42afa6ecf4fc73c4","6662009ae78f21dd82fcd179","66620a4e0eda9a70e4593888","null","","null","","","","","","","","./tasks/HMM-beads/Images/BlackBeadChoiceCorrect.png","","","","","","","","","",""
"image-keyboard-response","19","259421","0.0-3.0-4.0-1.0-0.2","653166fa42afa6ecf4fc73c4","6662009ae78f21dd82fcd179","66620a4e0eda9a70e4593888","3998","","f","","","","","","","","./tasks/HMM-beads/Images/NewTrialBC.png","practice","0","2","0","1","0","0","false","",""
"image-keyboard-response","20","259736","0.0-3.0-4.0-1.0-1.2","653166fa42afa6ecf4fc73c4","6662009ae78f21dd82fcd179","66620a4e0eda9a70e4593888","null","","null","","","","","","","","./tasks/HMM-beads/Images/BlackBeadChoice.png","","","","","","","","","",""
"image-keyboard-response","21","260240","0.0-3.0-4.0-1.0-2.2","653166fa42afa6ecf4fc73c4","6662009ae78f21dd82fcd179","66620a4e0eda9a70e4593888","null","","null","","","","","","","","./tasks/HMM-beads/Images/BlackBeadChoiceWrong.png","","","","","","","","","",""
"image-keyboard-response","22","265421","0.0-3.0-4.0-1.0-0.3","653166fa42afa6ecf4fc73c4","6662009ae78f21dd82fcd179","66620a4e0eda9a70e4593888","5180","","f","","","","","","","","./tasks/HMM-beads/Images/NewTrialWC.png","practice","0","3","0","0","1","0","true","",""
"image-keyboard-response","23","265725","0.0-3.0-4.0-1.0-1.3","653166fa42afa6ecf4fc73c4","6662009ae78f21dd82fcd179","66620a4e0eda9a70e4593888","null","","null","","","","","","","","./tasks/HMM-beads/Images/BlackBeadChoice.png","","","","","","","","","",""
"image-keyboard-response","24","266241","0.0-3.0-4.0-1.0-2.3","653166fa42afa6ecf4fc73c4","6662009ae78f21dd82fcd179","66620a4e0eda9a70e4593888","null","","null","","","","","","","","./tasks/HMM-beads/Images/BlackBeadChoiceCorrect.png","","","","","","","","","",""
"image-keyboard-response","25","269333","0.0-3.0-4.0-1.0-0.4","653166fa42afa6ecf4fc73c4","6662009ae78f21dd82fcd179","66620a4e0eda9a70e4593888","3091","","f","","","","","","","","./tasks/HMM-beads/Images/NewTrialBC.png","practice","0","4","0","0","0","0","true","",""
"image-keyboard-response","26","269641","0.0-3.0-4.0-1.0-1.4","653166fa42afa6ecf4fc73c4","6662009ae78f21dd82fcd179","66620a4e0eda9a70e4593888","null","","null","","","","","","","","./tasks/HMM-beads/Images/BlackBeadChoice.png","","","","","","","","","",""
"image-keyboard-response","27","270158","0.0-3.0-4.0-1.0-2.4","653166fa42afa6ecf4fc73c4","6662009ae78f21dd82fcd179","66620a4e0eda9a70e4593888","null","","null","","","","","","","","./tasks/HMM-beads/Images/BlackBeadChoiceCorrect.png","","","","","","","","","",""
"image-keyboard-response","28","271109","0.0-3.0-4.0-1.0-0.5","653166fa42afa6ecf4fc73c4","6662009ae78f21dd82fcd179","66620a4e0eda9a70e4593888","949","","f","","","","","","","","./tasks/HMM-beads/Images/NewTrialBC.png","practice","0","5","0","1","0","0","false","",""
"image-keyboard-response","29","271425","0.0-3.0-4.0-1.0-1.5","653166fa42afa6ecf4fc73c4","6662009ae78f21dd82fcd179","66620a4e0eda9a70e4593888","null","","null","","","","","","","","./tasks/HMM-beads/Images/BlackBeadChoice.png","","","","","","","","","",""
"image-keyboard-response","30","271927","0.0-3.0-4.0-1.0-2.5","653166fa42afa6ecf4fc73c4","6662009ae78f21dd82fcd179","66620a4e0eda9a70e4593888","null","","null","","","","","","","","./tasks/HMM-beads/Images/BlackBeadChoiceWrong.png","","","","","","","","","",""
"image-keyboard-response","31","274013","0.0-3.0-4.0-1.0-0.6","653166fa42afa6ecf4fc73c4","6662009ae78f21dd82fcd179","66620a4e0eda9a70e4593888","2084","","f","","","","","","","","./tasks/HMM-beads/Images/NewTrialWC.png","practice","0","6","0","0","1","0","true","",""
"image-keyboard-response","32","274322","0.0-3.0-4.0-1.0-1.6","653166fa42afa6ecf4fc73c4","6662009ae78f21dd82fcd179","66620a4e0eda9a70e4593888","null","","null","","","","","","","","./tasks/HMM-beads/Images/BlackBeadChoice.png","","","","","","","","","",""
"image-keyboard-response","33","274826","0.0-3.0-4.0-1.0-2.6","653166fa42afa6ecf4fc73c4","6662009ae78f21dd82fcd179","66620a4e0eda9a70e4593888","null","","null","","","","","","","","./tasks/HMM-beads/Images/BlackBeadChoiceCorrect.png","","","","","","","","","",""
"image-keyboard-response","34","277101","0.0-3.0-4.0-1.0-0.7","653166fa42afa6ecf4fc73c4","6662009ae78f21dd82fcd179","66620a4e0eda9a70e4593888","2274","","f","","","","","","","","./tasks/HMM-beads/Images/NewTrialBC.png","practice","0","7","0","0","0","0","true","",""
"image-keyboard-response","35","277411","0.0-3.0-4.0-1.0-1.7","653166fa42afa6ecf4fc73c4","6662009ae78f21dd82fcd179","66620a4e0eda9a70e4593888","null","","null","","","","","","","","./tasks/HMM-beads/Images/BlackBeadChoice.png","","","","","","","","","",""
"image-keyboard-response","36","277927","0.0-3.0-4.0-1.0-2.7","653166fa42afa6ecf4fc73c4","6662009ae78f21dd82fcd179","66620a4e0eda9a70e4593888","null","","null","","","","","","","","./tasks/HMM-beads/Images/BlackBeadChoiceCorrect.png","","","","","","","","","",""
"image-keyboard-response","37","279477","0.0-3.0-4.0-1.0-0.8","653166fa42afa6ecf4fc73c4","6662009ae78f21dd82fcd179","66620a4e0eda9a70e4593888","1548","","f","","","","","","","","./tasks/HMM-beads/Images/NewTrialBC.png","practice","0","8","0","0","0","0","true","",""
"image-keyboard-response","38","279791","0.0-3.0-4.0-1.0-1.8","653166fa42afa6ecf4fc73c4","6662009ae78f21dd82fcd179","66620a4e0eda9a70e4593888","null","","null","","","","","","","","./tasks/HMM-beads/Images/BlackBeadChoice.png","","","","","","","","","",""
"image-keyboard-response","39","280296","0.0-3.0-4.0-1.0-2.8","653166fa42afa6ecf4fc73c4","6662009ae78f21dd82fcd179","66620a4e0eda9a70e4593888","null","","null","","","","","","","","./tasks/HMM-beads/Images/BlackBeadChoiceCorrect.png","","","","","","","","","",""
"image-keyboard-response","40","283525","0.0-3.0-4.0-1.0-0.9","653166fa42afa6ecf4fc73c4","6662009ae78f21dd82fcd179","66620a4e0eda9a70e4593888","3227","","f","","","","","","","","./tasks/HMM-beads/Images/NewTrialBC.png","practice","0","9","0","1","0","0","false","",""
"image-keyboard-response","41","283828","0.0-3.0-4.0-1.0-1.9","653166fa42afa6ecf4fc73c4","6662009ae78f21dd82fcd179","66620a4e0eda9a70e4593888","null","","null","","","","","","","","./tasks/HMM-beads/Images/BlackBeadChoice.png","","","","","","","","","",""
"image-keyboard-response","42","284342","0.0-3.0-4.0-1.0-2.9","653166fa42afa6ecf4fc73c4","6662009ae78f21dd82fcd179","66620a4e0eda9a70e4593888","null","","null","","","","","","","","./tasks/HMM-beads/Images/BlackBeadChoiceWrong.png","","","","","","","","","",""
"image-keyboard-response","43","287636","0.0-3.0-4.0-1.0-0.10","653166fa42afa6ecf4fc73c4","6662009ae78f21dd82fcd179","66620a4e0eda9a70e4593888","3293","","f","","","","","","","","./tasks/HMM-beads/Images/NewTrialWC.png","practice","0","10","0","0","1","0","true","",""
"image-keyboard-response","44","287944","0.0-3.0-4.0-1.0-1.10","653166fa42afa6ecf4fc73c4","6662009ae78f21dd82fcd179","66620a4e0eda9a70e4593888","null","","null","","","","","","","","./tasks/HMM-beads/Images/BlackBeadChoice.png","","","","","","","","","",""
"image-keyboard-response","45","288451","0.0-3.0-4.0-1.0-2.10","653166fa42afa6ecf4fc73c4","6662009ae78f21dd82fcd179","66620a4e0eda9a70e4593888","null","","null","","","","","","","","./tasks/HMM-beads/Images/BlackBeadChoiceCorrect.png","","","","","","","","","",""
"image-keyboard-response","46","290445","0.0-3.0-4.0-1.0-0.11","653166fa42afa6ecf4fc73c4","6662009ae78f21dd82fcd179","66620a4e0eda9a70e4593888","1992","","j","","","","","","","","./tasks/HMM-beads/Images/NewTrialBC.png","practice","0","11","0","1","0","1","true","",""
"image-keyboard-response","47","290761","0.0-3.0-4.0-1.0-1.11","653166fa42afa6ecf4fc73c4","6662009ae78f21dd82fcd179","66620a4e0eda9a70e4593888","null","","null","","","","","","","","./tasks/HMM-beads/Images/WhiteBeadChoice.png","","","","","","","","","",""
"image-keyboard-response","48","291263","0.0-3.0-4.0-1.0-2.11","653166fa42afa6ecf4fc73c4","6662009ae78f21dd82fcd179","66620a4e0eda9a70e4593888","null","","null","","","","","","","","./tasks/HMM-beads/Images/WhiteBeadChoiceCorrect.png","","","","","","","","","",""
"image-keyboard-response","49","297085","0.0-3.0-4.0-1.0-0.12","653166fa42afa6ecf4fc73c4","6662009ae78f21dd82fcd179","66620a4e0eda9a70e4593888","5820","","f","","","","","","","","./tasks/HMM-beads/Images/NewTrialWC.png","practice","0","12","0","0","1","0","true","",""
"image-keyboard-response","50","297401","0.0-3.0-4.0-1.0-1.12","653166fa42afa6ecf4fc73c4","6662009ae78f21dd82fcd179","66620a4e0eda9a70e4593888","null","","null","","","","","","","","./tasks/HMM-beads/Images/BlackBeadChoice.png","","","","","","","","","",""
"image-keyboard-response","51","297913","0.0-3.0-4.0-1.0-2.12","653166fa42afa6ecf4fc73c4","6662009ae78f21dd82fcd179","66620a4e0eda9a70e4593888","null","","null","","","","","","","","./tasks/HMM-beads/Images/BlackBeadChoiceCorrect.png","","","","","","","","","",""
"image-keyboard-response","52","299795","0.0-3.0-4.0-1.0-0.13","653166fa42afa6ecf4fc73c4","6662009ae78f21dd82fcd179","66620a4e0eda9a70e4593888","1880","","f","","","","","","","","./tasks/HMM-beads/Images/NewTrialBC.png","practice","0","13","0","0","0","0","true","",""
"image-keyboard-response","53","300101","0.0-3.0-4.0-1.0-1.13","653166fa42afa6ecf4fc73c4","6662009ae78f21dd82fcd179","66620a4e0eda9a70e4593888","null","","null","","","","","","","","./tasks/HMM-beads/Images/BlackBeadChoice.png","","","","","","","","","",""
"image-keyboard-response","54","300618","0.0-3.0-4.0-1.0-2.13","653166fa42afa6ecf4fc73c4","6662009ae78f21dd82fcd179","66620a4e0eda9a70e4593888","null","","null","","","","","","","","./tasks/HMM-beads/Images/BlackBeadChoiceCorrect.png","","","","","","","","","",""
"image-keyboard-response","55","301557","0.0-3.0-4.0-1.0-0.14","653166fa42afa6ecf4fc73c4","6662009ae78f21dd82fcd179","66620a4e0eda9a70e4593888","938","","j","","","","","","","","./tasks/HMM-beads/Images/NewTrialBC.png","practice","0","14","0","0","0","1","false","",""
"image-keyboard-response","56","301868","0.0-3.0-4.0-1.0-1.14","653166fa42afa6ecf4fc73c4","6662009ae78f21dd82fcd179","66620a4e0eda9a70e4593888","null","","null","","","","","","","","./tasks/HMM-beads/Images/WhiteBeadChoice.png","","","","","","","","","",""
"image-keyboard-response","57","302372","0.0-3.0-4.0-1.0-2.14","653166fa42afa6ecf4fc73c4","6662009ae78f21dd82fcd179","66620a4e0eda9a70e4593888","null","","null","","","","","","","","./tasks/HMM-beads/Images/WhiteBeadChoiceWrong.png","","","","","","","","","",""
"image-keyboard-response","58","303275","0.0-3.0-4.0-1.0-0.15","653166fa42afa6ecf4fc73c4","6662009ae78f21dd82fcd179","66620a4e0eda9a70e4593888","903","","f","","","","","","","","./tasks/HMM-beads/Images/NewTrialBC.png","practice","0","15","0","0","0","0","true","",""
"image-keyboard-response","59","303587","0.0-3.0-4.0-1.0-1.15","653166fa42afa6ecf4fc73c4","6662009ae78f21dd82fcd179","66620a4e0eda9a70e4593888","null","","null","","","","","","","","./tasks/HMM-beads/Images/BlackBeadChoice.png","","","","","","","","","",""
"image-keyboard-response","60","304102","0.0-3.0-4.0-1.0-2.15","653166fa42afa6ecf4fc73c4","6662009ae78f21dd82fcd179","66620a4e0eda9a70e4593888","null","","null","","","","","","","","./tasks/HMM-beads/Images/BlackBeadChoiceCorrect.png","","","","","","","","","",""
"image-keyboard-response","61","305629","0.0-3.0-4.0-1.0-0.16","653166fa42afa6ecf4fc73c4","6662009ae78f21dd82fcd179","66620a4e0eda9a70e4593888","1525","","f","","","","","","","","./tasks/HMM-beads/Images/NewTrialBC.png","practice","0","16","0","0","0","0","true","",""
"image-keyboard-response","62","305937","0.0-3.0-4.0-1.0-1.16","653166fa42afa6ecf4fc73c4","6662009ae78f21dd82fcd179","66620a4e0eda9a70e4593888","null","","null","","","","","","","","./tasks/HMM-beads/Images/BlackBeadChoice.png","","","","","","","","","",""
"image-keyboard-response","63","306451","0.0-3.0-4.0-1.0-2.16","653166fa42afa6ecf4fc73c4","6662009ae78f21dd82fcd179","66620a4e0eda9a70e4593888","null","","null","","","","","","","","./tasks/HMM-beads/Images/BlackBeadChoiceCorrect.png","","","","","","","","","",""
"image-keyboard-response","64","307853","0.0-3.0-4.0-1.0-0.17","653166fa42afa6ecf4fc73c4","6662009ae78f21dd82fcd179","66620a4e0eda9a70e4593888","1401","","j","","","","","","","","./tasks/HMM-beads/Images/NewTrialBC.png","practice","0","17","0","0","0","1","false","",""
"image-keyboard-response","65","308172","0.0-3.0-4.0-1.0-1.17","653166fa42afa6ecf4fc73c4","6662009ae78f21dd82fcd179","66620a4e0eda9a70e4593888","null","","null","","","","","","","","./tasks/HMM-beads/Images/WhiteBeadChoice.png","","","","","","","","","",""
"image-keyboard-response","66","308674","0.0-3.0-4.0-1.0-2.17","653166fa42afa6ecf4fc73c4","6662009ae78f21dd82fcd179","66620a4e0eda9a70e4593888","null","","null","","","","","","","","./tasks/HMM-beads/Images/WhiteBeadChoiceWrong.png","","","","","","","","","",""
"image-keyboard-response","67","309261","0.0-3.0-4.0-1.0-0.18","653166fa42afa6ecf4fc73c4","6662009ae78f21dd82fcd179","66620a4e0eda9a70e4593888","585","","f","","","","","","","","./tasks/HMM-beads/Images/NewTrialBC.png","practice","0","18","0","1","0","0","false","",""
"image-keyboard-response","68","309572","0.0-3.0-4.0-1.0-1.18","653166fa42afa6ecf4fc73c4","6662009ae78f21dd82fcd179","66620a4e0eda9a70e4593888","null","","null","","","","","","","","./tasks/HMM-beads/Images/BlackBeadChoice.png","","","","","","","","","",""
"image-keyboard-response","69","310075","0.0-3.0-4.0-1.0-2.18","653166fa42afa6ecf4fc73c4","6662009ae78f21dd82fcd179","66620a4e0eda9a70e4593888","null","","null","","","","","","","","./tasks/HMM-beads/Images/BlackBeadChoiceWrong.png","","","","","","","","","",""
"image-keyboard-response","70","310878","0.0-3.0-4.0-1.0-0.19","653166fa42afa6ecf4fc73c4","6662009ae78f21dd82fcd179","66620a4e0eda9a70e4593888","802","","j","","","","","","","","./tasks/HMM-beads/Images/NewTrialWC.png","practice","0","19","0","0","1","1","false","",""
"image-keyboard-response","71","311188","0.0-3.0-4.0-1.0-1.19","653166fa42afa6ecf4fc73c4","6662009ae78f21dd82fcd179","66620a4e0eda9a70e4593888","null","","null","","","","","","","","./tasks/HMM-beads/Images/WhiteBeadChoice.png","","","","","","","","","",""
"image-keyboard-response","72","311705","0.0-3.0-4.0-1.0-2.19","653166fa42afa6ecf4fc73c4","6662009ae78f21dd82fcd179","66620a4e0eda9a70e4593888","null","","null","","","","","","","","./tasks/HMM-beads/Images/WhiteBeadChoiceWrong.png","","","","","","","","","",""
"image-keyboard-response","73","312197","0.0-3.0-4.0-1.0-0.20","653166fa42afa6ecf4fc73c4","6662009ae78f21dd82fcd179","66620a4e0eda9a70e4593888","491","","f","","","","","","","","./tasks/HMM-beads/Images/NewTrialBC.png","practice","0","20","0","0","0","0","true","",""
"image-keyboard-response","74","312507","0.0-3.0-4.0-1.0-1.20","653166fa42afa6ecf4fc73c4","6662009ae78f21dd82fcd179","66620a4e0eda9a70e4593888","null","","null","","","","","","","","./tasks/HMM-beads/Images/BlackBeadChoice.png","","","","","","","","","",""
"image-keyboard-response","75","313021","0.0-3.0-4.0-1.0-2.20","653166fa42afa6ecf4fc73c4","6662009ae78f21dd82fcd179","66620a4e0eda9a70e4593888","null","","null","","","","","","","","./tasks/HMM-beads/Images/BlackBeadChoiceCorrect.png","","","","","","","","","",""
"image-keyboard-response","76","313421","0.0-3.0-4.0-1.0-0.21","653166fa42afa6ecf4fc73c4","6662009ae78f21dd82fcd179","66620a4e0eda9a70e4593888","398","","f","","","","","","","","./tasks/HMM-beads/Images/NewTrialBC.png","practice","0","21","0","1","0","0","false","",""
"image-keyboard-response","77","313725","0.0-3.0-4.0-1.0-1.21","653166fa42afa6ecf4fc73c4","6662009ae78f21dd82fcd179","66620a4e0eda9a70e4593888","null","","null","","","","","","","","./tasks/HMM-beads/Images/BlackBeadChoice.png","","","","","","","","","",""
"image-keyboard-response","78","314226","0.0-3.0-4.0-1.0-2.21","653166fa42afa6ecf4fc73c4","6662009ae78f21dd82fcd179","66620a4e0eda9a70e4593888","null","","null","","","","","","","","./tasks/HMM-beads/Images/BlackBeadChoiceWrong.png","","","","","","","","","",""
"image-keyboard-response","79","315284","0.0-3.0-4.0-1.0-0.22","653166fa42afa6ecf4fc73c4","6662009ae78f21dd82fcd179","66620a4e0eda9a70e4593888","1057","","j","","","","","","","","./tasks/HMM-beads/Images/NewTrialWC.png","practice","0","22","1","1","1","1","true","",""
"image-keyboard-response","80","315592","0.0-3.0-4.0-1.0-1.22","653166fa42afa6ecf4fc73c4","6662009ae78f21dd82fcd179","66620a4e0eda9a70e4593888","null","","null","","","","","","","","./tasks/HMM-beads/Images/WhiteBeadChoice.png","","","","","","","","","",""
"image-keyboard-response","81","316104","0.0-3.0-4.0-1.0-2.22","653166fa42afa6ecf4fc73c4","6662009ae78f21dd82fcd179","66620a4e0eda9a70e4593888","null","","null","","","","","","","","./tasks/HMM-beads/Images/WhiteBeadChoiceCorrect.png","","","","","","","","","",""
"image-keyboard-response","82","317109","0.0-3.0-4.0-1.0-0.23","653166fa42afa6ecf4fc73c4","6662009ae78f21dd82fcd179","66620a4e0eda9a70e4593888","1003","","j","","","","","","","","./tasks/HMM-beads/Images/NewTrialWC.png","practice","0","23","1","0","1","1","false","",""
"image-keyboard-response","83","317421","0.0-3.0-4.0-1.0-1.23","653166fa42afa6ecf4fc73c4","6662009ae78f21dd82fcd179","66620a4e0eda9a70e4593888","null","","null","","","","","","","","./tasks/HMM-beads/Images/WhiteBeadChoice.png","","","","","","","","","",""
"image-keyboard-response","84","317925","0.0-3.0-4.0-1.0-2.23","653166fa42afa6ecf4fc73c4","6662009ae78f21dd82fcd179","66620a4e0eda9a70e4593888","null","","null","","","","","","","","./tasks/HMM-beads/Images/WhiteBeadChoiceWrong.png","","","","","","","","","",""
"image-keyboard-response","85","318412","0.0-3.0-4.0-1.0-0.24","653166fa42afa6ecf4fc73c4","6662009ae78f21dd82fcd179","66620a4e0eda9a70e4593888","485","","f","","","","","","","","./tasks/HMM-beads/Images/NewTrialBC.png","practice","0","24","1","1","0","0","false","",""
"image-keyboard-response","86","318722","0.0-3.0-4.0-1.0-1.24","653166fa42afa6ecf4fc73c4","6662009ae78f21dd82fcd179","66620a4e0eda9a70e4593888","null","","null","","","","","","","","./tasks/HMM-beads/Images/BlackBeadChoice.png","","","","","","","","","",""
"image-keyboard-response","87","319224","0.0-3.0-4.0-1.0-2.24","653166fa42afa6ecf4fc73c4","6662009ae78f21dd82fcd179","66620a4e0eda9a70e4593888","null","","null","","","","","","","","./tasks/HMM-beads/Images/BlackBeadChoiceWrong.png","","","","","","","","","",""
"image-keyboard-response","88","321445","0.0-3.0-4.0-1.0-0.25","653166fa42afa6ecf4fc73c4","6662009ae78f21dd82fcd179","66620a4e0eda9a70e4593888","2219","","j","","","","","","","","./tasks/HMM-beads/Images/NewTrialWC.png","practice","0","25","1","1","1","1","true","",""
"image-keyboard-response","89","321758","0.0-3.0-4.0-1.0-1.25","653166fa42afa6ecf4fc73c4","6662009ae78f21dd82fcd179","66620a4e0eda9a70e4593888","null","","null","","","","","","","","./tasks/HMM-beads/Images/WhiteBeadChoice.png","","","","","","","","","",""
"image-keyboard-response","90","322262","0.0-3.0-4.0-1.0-2.25","653166fa42afa6ecf4fc73c4","6662009ae78f21dd82fcd179","66620a4e0eda9a70e4593888","null","","null","","","","","","","","./tasks/HMM-beads/Images/WhiteBeadChoiceCorrect.png","","","","","","","","","",""
"image-keyboard-response","91","322957","0.0-3.0-4.0-1.0-0.26","653166fa42afa6ecf4fc73c4","6662009ae78f21dd82fcd179","66620a4e0eda9a70e4593888","693","","j","","","","","","","","./tasks/HMM-beads/Images/NewTrialWC.png","practice","0","26","1","1","1","1","true","",""
"image-keyboard-response","92","323276","0.0-3.0-4.0-1.0-1.26","653166fa42afa6ecf4fc73c4","6662009ae78f21dd82fcd179","66620a4e0eda9a70e4593888","null","","null","","","","","","","","./tasks/HMM-beads/Images/WhiteBeadChoice.png","","","","","","","","","",""
"image-keyboard-response","93","323778","0.0-3.0-4.0-1.0-2.26","653166fa42afa6ecf4fc73c4","6662009ae78f21dd82fcd179","66620a4e0eda9a70e4593888","null","","null","","","","","","","","./tasks/HMM-beads/Images/WhiteBeadChoiceCorrect.png","","","","","","","","","",""
"image-keyboard-response","94","324731","0.0-3.0-4.0-1.0-0.27","653166fa42afa6ecf4fc73c4","6662009ae78f21dd82fcd179","66620a4e0eda9a70e4593888","952","","j","","","","","","","","./tasks/HMM-beads/Images/NewTrialWC.png","practice","0","27","1","1","1","1","true","",""
"image-keyboard-response","95","325042","0.0-3.0-4.0-1.0-1.27","653166fa42afa6ecf4fc73c4","6662009ae78f21dd82fcd179","66620a4e0eda9a70e4593888","null","","null","","","","","","","","./tasks/HMM-beads/Images/WhiteBeadChoice.png","","","","","","","","","",""
"image-keyboard-response","96","325557","0.0-3.0-4.0-1.0-2.27","653166fa42afa6ecf4fc73c4","6662009ae78f21dd82fcd179","66620a4e0eda9a70e4593888","null","","null","","","","","","","","./tasks/HMM-beads/Images/WhiteBeadChoiceCorrect.png","","","","","","","","","",""
"image-keyboard-response","97","326901","0.0-3.0-4.0-1.0-0.28","653166fa42afa6ecf4fc73c4","6662009ae78f21dd82fcd179","66620a4e0eda9a70e4593888","1342","","f","","","","","","","","./tasks/HMM-beads/Images/NewTrialWC.png","practice","0","28","1","0","1","0","true","",""
"image-keyboard-response","98","327212","0.0-3.0-4.0-1.0-1.28","653166fa42afa6ecf4fc73c4","6662009ae78f21dd82fcd179","66620a4e0eda9a70e4593888","null","","null","","","","","","","","./tasks/HMM-beads/Images/BlackBeadChoice.png","","","","","","","","","",""
"image-keyboard-response","99","327718","0.0-3.0-4.0-1.0-2.28","653166fa42afa6ecf4fc73c4","6662009ae78f21dd82fcd179","66620a4e0eda9a70e4593888","null","","null","","","","","","","","./tasks/HMM-beads/Images/BlackBeadChoiceCorrect.png","","","","","","","","","",""
"image-keyboard-response","100","329931","0.0-3.0-4.0-1.0-0.29","653166fa42afa6ecf4fc73c4","6662009ae78f21dd82fcd179","66620a4e0eda9a70e4593888","2212","","f","","","","","","","","./tasks/HMM-beads/Images/NewTrialBC.png","practice","0","29","1","1","0","0","false","",""
"image-keyboard-response","101","330244","0.0-3.0-4.0-1.0-1.29","653166fa42afa6ecf4fc73c4","6662009ae78f21dd82fcd179","66620a4e0eda9a70e4593888","null","","null","","","","","","","","./tasks/HMM-beads/Images/BlackBeadChoice.png","","","","","","","","","",""
"image-keyboard-response","102","330748","0.0-3.0-4.0-1.0-2.29","653166fa42afa6ecf4fc73c4","6662009ae78f21dd82fcd179","66620a4e0eda9a70e4593888","null","","null","","","","","","","","./tasks/HMM-beads/Images/BlackBeadChoiceWrong.png","","","","","","","","","",""
"image-keyboard-response","103","331387","0.0-3.0-4.0-1.0-0.30","653166fa42afa6ecf4fc73c4","6662009ae78f21dd82fcd179","66620a4e0eda9a70e4593888","639","","j","","","","","","","","./tasks/HMM-beads/Images/NewTrialWC.png","practice","0","30","1","0","1","1","false","",""
"image-keyboard-response","104","331696","0.0-3.0-4.0-1.0-1.30","653166fa42afa6ecf4fc73c4","6662009ae78f21dd82fcd179","66620a4e0eda9a70e4593888","null","","null","","","","","","","","./tasks/HMM-beads/Images/WhiteBeadChoice.png","","","","","","","","","",""
"image-keyboard-response","105","332215","0.0-3.0-4.0-1.0-2.30","653166fa42afa6ecf4fc73c4","6662009ae78f21dd82fcd179","66620a4e0eda9a70e4593888","null","","null","","","","","","","","./tasks/HMM-beads/Images/WhiteBeadChoiceWrong.png","","","","","","","","","",""
"image-keyboard-response","106","332581","0.0-3.0-4.0-1.0-0.31","653166fa42afa6ecf4fc73c4","6662009ae78f21dd82fcd179","66620a4e0eda9a70e4593888","364","","f","","","","","","","","./tasks/HMM-beads/Images/NewTrialBC.png","practice","0","31","1","1","0","0","false","",""
"image-keyboard-response","107","332897","0.0-3.0-4.0-1.0-1.31","653166fa42afa6ecf4fc73c4","6662009ae78f21dd82fcd179","66620a4e0eda9a70e4593888","null","","null","","","","","","","","./tasks/HMM-beads/Images/BlackBeadChoice.png","","","","","","","","","",""
"image-keyboard-response","108","333415","0.0-3.0-4.0-1.0-2.31","653166fa42afa6ecf4fc73c4","6662009ae78f21dd82fcd179","66620a4e0eda9a70e4593888","null","","null","","","","","","","","./tasks/HMM-beads/Images/BlackBeadChoiceWrong.png","","","","","","","","","",""
"image-keyboard-response","109","334283","0.0-3.0-4.0-1.0-0.32","653166fa42afa6ecf4fc73c4","6662009ae78f21dd82fcd179","66620a4e0eda9a70e4593888","867","","f","","","","","","","","./tasks/HMM-beads/Images/NewTrialWC.png","practice","0","32","1","1","1","0","false","",""
"image-keyboard-response","110","334595","0.0-3.0-4.0-1.0-1.32","653166fa42afa6ecf4fc73c4","6662009ae78f21dd82fcd179","66620a4e0eda9a70e4593888","null","","null","","","","","","","","./tasks/HMM-beads/Images/BlackBeadChoice.png","","","","","","","","","",""
"image-keyboard-response","111","335097","0.0-3.0-4.0-1.0-2.32","653166fa42afa6ecf4fc73c4","6662009ae78f21dd82fcd179","66620a4e0eda9a70e4593888","null","","null","","","","","","","","./tasks/HMM-beads/Images/BlackBeadChoiceWrong.png","","","","","","","","","",""
"image-keyboard-response","112","335828","0.0-3.0-4.0-1.0-0.33","653166fa42afa6ecf4fc73c4","6662009ae78f21dd82fcd179","66620a4e0eda9a70e4593888","729","","j","","","","","","","","./tasks/HMM-beads/Images/NewTrialWC.png","practice","0","33","1","1","1","1","true","",""
"image-keyboard-response","113","336130","0.0-3.0-4.0-1.0-1.33","653166fa42afa6ecf4fc73c4","6662009ae78f21dd82fcd179","66620a4e0eda9a70e4593888","null","","null","","","","","","","","./tasks/HMM-beads/Images/WhiteBeadChoice.png","","","","","","","","","",""
"image-keyboard-response","114","336633","0.0-3.0-4.0-1.0-2.33","653166fa42afa6ecf4fc73c4","6662009ae78f21dd82fcd179","66620a4e0eda9a70e4593888","null","","null","","","","","","","","./tasks/HMM-beads/Images/WhiteBeadChoiceCorrect.png","","","","","","","","","",""
"image-keyboard-response","115","337365","0.0-3.0-4.0-1.0-0.34","653166fa42afa6ecf4fc73c4","6662009ae78f21dd82fcd179","66620a4e0eda9a70e4593888","731","","j","","","","","","","","./tasks/HMM-beads/Images/NewTrialWC.png","practice","0","34","1","1","1","1","true","",""
"image-keyboard-response","116","337666","0.0-3.0-4.0-1.0-1.34","653166fa42afa6ecf4fc73c4","6662009ae78f21dd82fcd179","66620a4e0eda9a70e4593888","null","","null","","","","","","","","./tasks/HMM-beads/Images/WhiteBeadChoice.png","","","","","","","","","",""
"image-keyboard-response","117","338184","0.0-3.0-4.0-1.0-2.34","653166fa42afa6ecf4fc73c4","6662009ae78f21dd82fcd179","66620a4e0eda9a70e4593888","null","","null","","","","","","","","./tasks/HMM-beads/Images/WhiteBeadChoiceCorrect.png","","","","","","","","","",""
"image-keyboard-response","118","338852","0.0-3.0-4.0-1.0-0.35","653166fa42afa6ecf4fc73c4","6662009ae78f21dd82fcd179","66620a4e0eda9a70e4593888","667","","j","","","","","","","","./tasks/HMM-beads/Images/NewTrialWC.png","practice","0","35","1","1","1","1","true","",""
"image-keyboard-response","119","339167","0.0-3.0-4.0-1.0-1.35","653166fa42afa6ecf4fc73c4","6662009ae78f21dd82fcd179","66620a4e0eda9a70e4593888","null","","null","","","","","","","","./tasks/HMM-beads/Images/WhiteBeadChoice.png","","","","","","","","","",""
"image-keyboard-response","120","339681","0.0-3.0-4.0-1.0-2.35","653166fa42afa6ecf4fc73c4","6662009ae78f21dd82fcd179","66620a4e0eda9a70e4593888","null","","null","","","","","","","","./tasks/HMM-beads/Images/WhiteBeadChoiceCorrect.png","","","","","","","","","",""
"image-keyboard-response","121","340236","0.0-3.0-4.0-1.0-0.36","653166fa42afa6ecf4fc73c4","6662009ae78f21dd82fcd179","66620a4e0eda9a70e4593888","553","","j","","","","","","","","./tasks/HMM-beads/Images/NewTrialWC.png","practice","0","36","1","0","1","1","false","",""
"image-keyboard-response","122","340550","0.0-3.0-4.0-1.0-1.36","653166fa42afa6ecf4fc73c4","6662009ae78f21dd82fcd179","66620a4e0eda9a70e4593888","null","","null","","","","","","","","./tasks/HMM-beads/Images/WhiteBeadChoice.png","","","","","","","","","",""
"image-keyboard-response","123","341067","0.0-3.0-4.0-1.0-2.36","653166fa42afa6ecf4fc73c4","6662009ae78f21dd82fcd179","66620a4e0eda9a70e4593888","null","","null","","","","","","","","./tasks/HMM-beads/Images/WhiteBeadChoiceWrong.png","","","","","","","","","",""
"image-keyboard-response","124","341573","0.0-3.0-4.0-1.0-0.37","653166fa42afa6ecf4fc73c4","6662009ae78f21dd82fcd179","66620a4e0eda9a70e4593888","504","","f","","","","","","","","./tasks/HMM-beads/Images/NewTrialBC.png","practice","0","37","1","1","0","0","false","",""
"image-keyboard-response","125","341883","0.0-3.0-4.0-1.0-1.37","653166fa42afa6ecf4fc73c4","6662009ae78f21dd82fcd179","66620a4e0eda9a70e4593888","null","","null","","","","","","","","./tasks/HMM-beads/Images/BlackBeadChoice.png","","","","","","","","","",""
"image-keyboard-response","126","342386","0.0-3.0-4.0-1.0-2.37","653166fa42afa6ecf4fc73c4","6662009ae78f21dd82fcd179","66620a4e0eda9a70e4593888","null","","null","","","","","","","","./tasks/HMM-beads/Images/BlackBeadChoiceWrong.png","","","","","","","","","",""
"image-keyboard-response","127","343301","0.0-3.0-4.0-1.0-0.38","653166fa42afa6ecf4fc73c4","6662009ae78f21dd82fcd179","66620a4e0eda9a70e4593888","913","","f","","","","","","","","./tasks/HMM-beads/Images/NewTrialWC.png","practice","0","38","1","1","1","0","false","",""
"image-keyboard-response","128","343616","0.0-3.0-4.0-1.0-1.38","653166fa42afa6ecf4fc73c4","6662009ae78f21dd82fcd179","66620a4e0eda9a70e4593888","null","","null","","","","","","","","./tasks/HMM-beads/Images/BlackBeadChoice.png","","","","","","","","","",""
"image-keyboard-response","129","344132","0.0-3.0-4.0-1.0-2.38","653166fa42afa6ecf4fc73c4","6662009ae78f21dd82fcd179","66620a4e0eda9a70e4593888","null","","null","","","","","","","","./tasks/HMM-beads/Images/BlackBeadChoiceWrong.png","","","","","","","","","",""
"image-keyboard-response","130","344587","0.0-3.0-4.0-1.0-0.39","653166fa42afa6ecf4fc73c4","6662009ae78f21dd82fcd179","66620a4e0eda9a70e4593888","454","","j","","","","","","","","./tasks/HMM-beads/Images/NewTrialWC.png","practice","0","39","1","1","1","1","true","",""
"image-keyboard-response","131","344903","0.0-3.0-4.0-1.0-1.39","653166fa42afa6ecf4fc73c4","6662009ae78f21dd82fcd179","66620a4e0eda9a70e4593888","null","","null","","","","","","","","./tasks/HMM-beads/Images/WhiteBeadChoice.png","","","","","","","","","",""
"image-keyboard-response","132","345416","0.0-3.0-4.0-1.0-2.39","653166fa42afa6ecf4fc73c4","6662009ae78f21dd82fcd179","66620a4e0eda9a70e4593888","null","","null","","","","","","","","./tasks/HMM-beads/Images/WhiteBeadChoiceCorrect.png","","","","","","","","","",""
"html-keyboard-response","133","349957","0.0-3.0-4.0-2.0","653166fa42afa6ecf4fc73c4","6662009ae78f21dd82fcd179","66620a4e0eda9a70e4593888","4538",""," ","","","","","","","","","","","","","","","","","",""
"instructions","134","586995","0.0-3.0-5.0","653166fa42afa6ecf4fc73c4","6662009ae78f21dd82fcd179","66620a4e0eda9a70e4593888","237037","","","","[{""page_index"":0,""viewing_time"":231157},{""page_index"":1,""viewing_time"":5880}]","","","","","","","","","","","","","","","",""
"html-keyboard-response","135","591589","0.0-3.0-6.0-0.0","653166fa42afa6ecf4fc73c4","6662009ae78f21dd82fcd179","66620a4e0eda9a70e4593888","4593",""," ","","","","","","","","<div align=center>In this block, there will be a <b>1% chance</b> that the jar on the next trial will be different from the jar on the current trial.<br><br></div>","","","","","","","","","",""
"image-keyboard-response","136","595606","0.0-3.0-6.0-1.0-0.0","653166fa42afa6ecf4fc73c4","6662009ae78f21dd82fcd179","66620a4e0eda9a70e4593888","4015","","f","","","","","","","","./tasks/HMM-beads/Images/NoChoice.png","lowH","1","0","1","0","9","0","true","",""
"image-keyboard-response","137","595915","0.0-3.0-6.0-1.0-1.0","653166fa42afa6ecf4fc73c4","6662009ae78f21dd82fcd179","66620a4e0eda9a70e4593888","null","","null","","","","","","","","./tasks/HMM-beads/Images/BlackBeadChoice.png","","","","","","","","","",""
"image-keyboard-response","138","596418","0.0-3.0-6.0-1.0-2.0","653166fa42afa6ecf4fc73c4","6662009ae78f21dd82fcd179","66620a4e0eda9a70e4593888","null","","null","","","","","","","","./tasks/HMM-beads/Images/BlackBeadChoiceCorrect.png","","","","","","","","","",""
"image-keyboard-response","139","604029","0.0-3.0-6.0-1.0-0.1","653166fa42afa6ecf4fc73c4","6662009ae78f21dd82fcd179","66620a4e0eda9a70e4593888","7610","","f","","","","","","","","./tasks/HMM-beads/Images/NewTrialBC.png","lowH","1","1","1","1","0","0","false","",""
"image-keyboard-response","140","604336","0.0-3.0-6.0-1.0-1.1","653166fa42afa6ecf4fc73c4","6662009ae78f21dd82fcd179","66620a4e0eda9a70e4593888","null","","null","","","","","","","","./tasks/HMM-beads/Images/BlackBeadChoice.png","","","","","","","","","",""
"image-keyboard-response","141","604847","0.0-3.0-6.0-1.0-2.1","653166fa42afa6ecf4fc73c4","6662009ae78f21dd82fcd179","66620a4e0eda9a70e4593888","null","","null","","","","","","","","./tasks/HMM-beads/Images/BlackBeadChoiceWrong.png","","","","","","","","","",""
"image-keyboard-response","142","608276","0.0-3.0-6.0-1.0-0.2","653166fa42afa6ecf4fc73c4","6662009ae78f21dd82fcd179","66620a4e0eda9a70e4593888","3428","","f","","","","","","","","./tasks/HMM-beads/Images/NewTrialWC.png","lowH","1","2","1","1","1","0","false","",""
"image-keyboard-response","143","608586","0.0-3.0-6.0-1.0-1.2","653166fa42afa6ecf4fc73c4","6662009ae78f21dd82fcd179","66620a4e0eda9a70e4593888","null","","null","","","","","","","","./tasks/HMM-beads/Images/BlackBeadChoice.png","","","","","","","","","",""
"image-keyboard-response","144","609100","0.0-3.0-6.0-1.0-2.2","653166fa42afa6ecf4fc73c4","6662009ae78f21dd82fcd179","66620a4e0eda9a70e4593888","null","","null","","","","","","","","./tasks/HMM-beads/Images/BlackBeadChoiceWrong.png","","","","","","","","","",""
"image-keyboard-response","145","609755","0.0-3.0-6.0-1.0-0.3","653166fa42afa6ecf4fc73c4","6662009ae78f21dd82fcd179","66620a4e0eda9a70e4593888","654","","j","","","","","","","","./tasks/HMM-beads/Images/NewTrialWC.png","lowH","1","3","1","1","1","1","true","",""
"image-keyboard-response","146","610067","0.0-3.0-6.0-1.0-1.3","653166fa42afa6ecf4fc73c4","6662009ae78f21dd82fcd179","66620a4e0eda9a70e4593888","null","","null","","","","","","","","./tasks/HMM-beads/Images/WhiteBeadChoice.png","","","","","","","","","",""
"image-keyboard-response","147","610581","0.0-3.0-6.0-1.0-2.3","653166fa42afa6ecf4fc73c4","6662009ae78f21dd82fcd179","66620a4e0eda9a70e4593888","null","","null","","","","","","","","./tasks/HMM-beads/Images/WhiteBeadChoiceCorrect.png","","","","","","","","","",""
"image-keyboard-response","148","611187","0.0-3.0-6.0-1.0-0.4","653166fa42afa6ecf4fc73c4","6662009ae78f21dd82fcd179","66620a4e0eda9a70e4593888","603","","j","","","","","","","","./tasks/HMM-beads/Images/NewTrialWC.png","lowH","1","4","1","1","1","1","true","",""
"image-keyboard-response","149","611491","0.0-3.0-6.0-1.0-1.4","653166fa42afa6ecf4fc73c4","6662009ae78f21dd82fcd179","66620a4e0eda9a70e4593888","null","","null","","","","","","","","./tasks/HMM-beads/Images/WhiteBeadChoice.png","","","","","","","","","",""
"image-keyboard-response","150","612007","0.0-3.0-6.0-1.0-2.4","653166fa42afa6ecf4fc73c4","6662009ae78f21dd82fcd179","66620a4e0eda9a70e4593888","null","","null","","","","","","","","./tasks/HMM-beads/Images/WhiteBeadChoiceCorrect.png","","","","","","","","","",""
"image-keyboard-response","151","612628","0.0-3.0-6.0-1.0-0.5","653166fa42afa6ecf4fc73c4","6662009ae78f21dd82fcd179","66620a4e0eda9a70e4593888","620","","j","","","","","","","","./tasks/HMM-beads/Images/NewTrialWC.png","lowH","1","5","1","1","1","1","true","",""
"image-keyboard-response","152","612941","0.0-3.0-6.0-1.0-1.5","653166fa42afa6ecf4fc73c4","6662009ae78f21dd82fcd179","66620a4e0eda9a70e4593888","null","","null","","","","","","","","./tasks/HMM-beads/Images/WhiteBeadChoice.png","","","","","","","","","",""
"image-keyboard-response","153","613455","0.0-3.0-6.0-1.0-2.5","653166fa42afa6ecf4fc73c4","6662009ae78f21dd82fcd179","66620a4e0eda9a70e4593888","null","","null","","","","","","","","./tasks/HMM-beads/Images/WhiteBeadChoiceCorrect.png","","","","","","","","","",""
"image-keyboard-response","154","614357","0.0-3.0-6.0-1.0-0.6","653166fa42afa6ecf4fc73c4","6662009ae78f21dd82fcd179","66620a4e0eda9a70e4593888","900","","j","","","","","","","","./tasks/HMM-beads/Images/NewTrialWC.png","lowH","1","6","1","0","1","1","false","",""
"image-keyboard-response","155","614673","0.0-3.0-6.0-1.0-1.6","653166fa42afa6ecf4fc73c4","6662009ae78f21dd82fcd179","66620a4e0eda9a70e4593888","null","","null","","","","","","","","./tasks/HMM-beads/Images/WhiteBeadChoice.png","","","","","","","","","",""
"image-keyboard-response","156","615185","0.0-3.0-6.0-1.0-2.6","653166fa42afa6ecf4fc73c4","6662009ae78f21dd82fcd179","66620a4e0eda9a70e4593888","null","","null","","","","","","","","./tasks/HMM-beads/Images/WhiteBeadChoiceWrong.png","","","","","","","","","",""
"image-keyboard-response","157","615701","0.0-3.0-6.0-1.0-0.7","653166fa42afa6ecf4fc73c4","6662009ae78f21dd82fcd179","66620a4e0eda9a70e4593888","515","","f","","","","","","","","./tasks/HMM-beads/Images/NewTrialBC.png","lowH","1","7","1","1","0","0","false","",""
"image-keyboard-response","158","616013","0.0-3.0-6.0-1.0-1.7","653166fa42afa6ecf4fc73c4","6662009ae78f21dd82fcd179","66620a4e0eda9a70e4593888","null","","null","","","","","","","","./tasks/HMM-beads/Images/BlackBeadChoice.png","","","","","","","","","",""
"image-keyboard-response","159","616524","0.0-3.0-6.0-1.0-2.7","653166fa42afa6ecf4fc73c4","6662009ae78f21dd82fcd179","66620a4e0eda9a70e4593888","null","","null","","","","","","","","./tasks/HMM-beads/Images/BlackBeadChoiceWrong.png","","","","","","","","","",""
"image-keyboard-response","160","616547","0.0-3.0-6.0-1.0-0.8","653166fa42afa6ecf4fc73c4","6662009ae78f21dd82fcd179","66620a4e0eda9a70e4593888","21","","j","","","","","","","","./tasks/HMM-beads/Images/NewTrialWC.png","lowH","1","8","1","1","1","1","true","",""
"image-keyboard-response","161","616865","0.0-3.0-6.0-1.0-1.8","653166fa42afa6ecf4fc73c4","6662009ae78f21dd82fcd179","66620a4e0eda9a70e4593888","null","","null","","","","","","","","./tasks/HMM-beads/Images/WhiteBeadChoice.png","","","","","","","","","",""
"image-keyboard-response","162","617377","0.0-3.0-6.0-1.0-2.8","653166fa42afa6ecf4fc73c4","6662009ae78f21dd82fcd179","66620a4e0eda9a70e4593888","null","","null","","","","","","","","./tasks/HMM-beads/Images/WhiteBeadChoiceCorrect.png","","","","","","","","","",""
"image-keyboard-response","163","623692","0.0-3.0-6.0-1.0-0.9","653166fa42afa6ecf4fc73c4","6662009ae78f21dd82fcd179","66620a4e0eda9a70e4593888","6314","","j","","","","","","","","./tasks/HMM-beads/Images/NewTrialWC.png","lowH","1","9","1","1","1","1","true","",""
"image-keyboard-response","164","624004","0.0-3.0-6.0-1.0-1.9","653166fa42afa6ecf4fc73c4","6662009ae78f21dd82fcd179","66620a4e0eda9a70e4593888","null","","null","","","","","","","","./tasks/HMM-beads/Images/WhiteBeadChoice.png","","","","","","","","","",""
"image-keyboard-response","165","624517","0.0-3.0-6.0-1.0-2.9","653166fa42afa6ecf4fc73c4","6662009ae78f21dd82fcd179","66620a4e0eda9a70e4593888","null","","null","","","","","","","","./tasks/HMM-beads/Images/WhiteBeadChoiceCorrect.png","","","","","","","","","",""
"image-keyboard-response","166","625245","0.0-3.0-6.0-1.0-0.10","653166fa42afa6ecf4fc73c4","6662009ae78f21dd82fcd179","66620a4e0eda9a70e4593888","727","","j","","","","","","","","./tasks/HMM-beads/Images/NewTrialWC.png","lowH","1","10","1","1","1","1","true","",""
"image-keyboard-response","167","625550","0.0-3.0-6.0-1.0-1.10","653166fa42afa6ecf4fc73c4","6662009ae78f21dd82fcd179","66620a4e0eda9a70e4593888","null","","null","","","","","","","","./tasks/HMM-beads/Images/WhiteBeadChoice.png","","","","","","","","","",""
"image-keyboard-response","168","626052","0.0-3.0-6.0-1.0-2.10","653166fa42afa6ecf4fc73c4","6662009ae78f21dd82fcd179","66620a4e0eda9a70e4593888","null","","null","","","","","","","","./tasks/HMM-beads/Images/WhiteBeadChoiceCorrect.png","","","","","","","","","",""
"image-keyboard-response","169","630051","0.0-3.0-6.0-1.0-0.11","653166fa42afa6ecf4fc73c4","6662009ae78f21dd82fcd179","66620a4e0eda9a70e4593888","3998","","j","","","","","","","","./tasks/HMM-beads/Images/NewTrialWC.png","lowH","1","11","1","1","1","1","true","",""
"image-keyboard-response","170","630357","0.0-3.0-6.0-1.0-1.11","653166fa42afa6ecf4fc73c4","6662009ae78f21dd82fcd179","66620a4e0eda9a70e4593888","null","","null","","","","","","","","./tasks/HMM-beads/Images/WhiteBeadChoice.png","","","","","","","","","",""
"image-keyboard-response","171","630871","0.0-3.0-6.0-1.0-2.11","653166fa42afa6ecf4fc73c4","6662009ae78f21dd82fcd179","66620a4e0eda9a70e4593888","null","","null","","","","","","","","./tasks/HMM-beads/Images/WhiteBeadChoiceCorrect.png","","","","","","","","","",""
"image-keyboard-response","172","632828","0.0-3.0-6.0-1.0-0.12","653166fa42afa6ecf4fc73c4","6662009ae78f21dd82fcd179","66620a4e0eda9a70e4593888","1956","","j","","","","","","","","./tasks/HMM-beads/Images/NewTrialWC.png","lowH","1","12","1","1","1","1","true","",""
"image-keyboard-response","173","633135","0.0-3.0-6.0-1.0-1.12","653166fa42afa6ecf4fc73c4","6662009ae78f21dd82fcd179","66620a4e0eda9a70e4593888","null","","null","","","","","","","","./tasks/HMM-beads/Images/WhiteBeadChoice.png","","","","","","","","","",""
"image-keyboard-response","174","633651","0.0-3.0-6.0-1.0-2.12","653166fa42afa6ecf4fc73c4","6662009ae78f21dd82fcd179","66620a4e0eda9a70e4593888","null","","null","","","","","","","","./tasks/HMM-beads/Images/WhiteBeadChoiceCorrect.png","","","","","","","","","",""
"image-keyboard-response","175","634884","0.0-3.0-6.0-1.0-0.13","653166fa42afa6ecf4fc73c4","6662009ae78f21dd82fcd179","66620a4e0eda9a70e4593888","1232","","f","","","","","","","","./tasks/HMM-beads/Images/NewTrialWC.png","lowH","1","13","1","0","1","0","true","",""
"image-keyboard-response","176","635191","0.0-3.0-6.0-1.0-1.13","653166fa42afa6ecf4fc73c4","6662009ae78f21dd82fcd179","66620a4e0eda9a70e4593888","null","","null","","","","","","","","./tasks/HMM-beads/Images/BlackBeadChoice.png","","","","","","","","","",""
"image-keyboard-response","177","635704","0.0-3.0-6.0-1.0-2.13","653166fa42afa6ecf4fc73c4","6662009ae78f21dd82fcd179","66620a4e0eda9a70e4593888","null","","null","","","","","","","","./tasks/HMM-beads/Images/BlackBeadChoiceCorrect.png","","","","","","","","","",""
"image-keyboard-response","178","637787","0.0-3.0-6.0-1.0-0.14","653166fa42afa6ecf4fc73c4","6662009ae78f21dd82fcd179","66620a4e0eda9a70e4593888","2083","","f","","","","","","","","./tasks/HMM-beads/Images/NewTrialBC.png","lowH","1","14","1","0","0","0","true","",""
"image-keyboard-response","179","638095","0.0-3.0-6.0-1.0-1.14","653166fa42afa6ecf4fc73c4","6662009ae78f21dd82fcd179","66620a4e0eda9a70e4593888","null","","null","","","","","","","","./tasks/HMM-beads/Images/BlackBeadChoice.png","","","","","","","","","",""
"image-keyboard-response","180","638604","0.0-3.0-6.0-1.0-2.14","653166fa42afa6ecf4fc73c4","6662009ae78f21dd82fcd179","66620a4e0eda9a70e4593888","null","","null","","","","","","","","./tasks/HMM-beads/Images/BlackBeadChoiceCorrect.png","","","","","","","","","",""
"image-keyboard-response","181","639437","0.0-3.0-6.0-1.0-0.15","653166fa42afa6ecf4fc73c4","6662009ae78f21dd82fcd179","66620a4e0eda9a70e4593888","831","","f","","","","","","","","./tasks/HMM-beads/Images/NewTrialBC.png","lowH","1","15","1","1","0","0","false","",""
"image-keyboard-response","182","639745","0.0-3.0-6.0-1.0-1.15","653166fa42afa6ecf4fc73c4","6662009ae78f21dd82fcd179","66620a4e0eda9a70e4593888","null","","null","","","","","","","","./tasks/HMM-beads/Images/BlackBeadChoice.png","","","","","","","","","",""
"image-keyboard-response","183","640258","0.0-3.0-6.0-1.0-2.15","653166fa42afa6ecf4fc73c4","6662009ae78f21dd82fcd179","66620a4e0eda9a70e4593888","null","","null","","","","","","","","./tasks/HMM-beads/Images/BlackBeadChoiceWrong.png","","","","","","","","","",""
"image-keyboard-response","184","640645","0.0-3.0-6.0-1.0-0.16","653166fa42afa6ecf4fc73c4","6662009ae78f21dd82fcd179","66620a4e0eda9a70e4593888","386","","j","","","","","","","","./tasks/HMM-beads/Images/NewTrialWC.png","lowH","1","16","1","1","1","1","true","",""
"image-keyboard-response","185","640948","0.0-3.0-6.0-1.0-1.16","653166fa42afa6ecf4fc73c4","6662009ae78f21dd82fcd179","66620a4e0eda9a70e4593888","null","","null","","","","","","","","./tasks/HMM-beads/Images/WhiteBeadChoice.png","","","","","","","","","",""
"image-keyboard-response","186","641462","0.0-3.0-6.0-1.0-2.16","653166fa42afa6ecf4fc73c4","6662009ae78f21dd82fcd179","66620a4e0eda9a70e4593888","null","","null","","","","","","","","./tasks/HMM-beads/Images/WhiteBeadChoiceCorrect.png","","","","","","","","","",""
"image-keyboard-response","187","641964","0.0-3.0-6.0-1.0-0.17","653166fa42afa6ecf4fc73c4","6662009ae78f21dd82fcd179","66620a4e0eda9a70e4593888","502","","j","","","","","","","","./tasks/HMM-beads/Images/NewTrialWC.png","lowH","1","17","1","1","1","1","true","",""
"image-keyboard-response","188","642272","0.0-3.0-6.0-1.0-1.17","653166fa42afa6ecf4fc73c4","6662009ae78f21dd82fcd179","66620a4e0eda9a70e4593888","null","","null","","","","","","","","./tasks/HMM-beads/Images/WhiteBeadChoice.png","","","","","","","","","",""
"image-keyboard-response","189","642787","0.0-3.0-6.0-1.0-2.17","653166fa42afa6ecf4fc73c4","6662009ae78f21dd82fcd179","66620a4e0eda9a70e4593888","null","","null","","","","","","","","./tasks/HMM-beads/Images/WhiteBeadChoiceCorrect.png","","","","","","","","","",""
"image-keyboard-response","190","643532","0.0-3.0-6.0-1.0-0.18","653166fa42afa6ecf4fc73c4","6662009ae78f21dd82fcd179","66620a4e0eda9a70e4593888","744","","j","","","","","","","","./tasks/HMM-beads/Images/NewTrialWC.png","lowH","1","18","1","1","1","1","true","",""
"image-keyboard-response","191","643847","0.0-3.0-6.0-1.0-1.18","653166fa42afa6ecf4fc73c4","6662009ae78f21dd82fcd179","66620a4e0eda9a70e4593888","null","","null","","","","","","","","./tasks/HMM-beads/Images/WhiteBeadChoice.png","","","","","","","","","",""
"image-keyboard-response","192","644361","0.0-3.0-6.0-1.0-2.18","653166fa42afa6ecf4fc73c4","6662009ae78f21dd82fcd179","66620a4e0eda9a70e4593888","null","","null","","","","","","","","./tasks/HMM-beads/Images/WhiteBeadChoiceCorrect.png","","","","","","","","","",""
"image-keyboard-response","193","645261","0.0-3.0-6.0-1.0-0.19","653166fa42afa6ecf4fc73c4","6662009ae78f21dd82fcd179","66620a4e0eda9a70e4593888","899","","j","","","","","","","","./tasks/HMM-beads/Images/NewTrialWC.png","lowH","1","19","1","1","1","1","true","",""
"image-keyboard-response","194","645578","0.0-3.0-6.0-1.0-1.19","653166fa42afa6ecf4fc73c4","6662009ae78f21dd82fcd179","66620a4e0eda9a70e4593888","null","","null","","","","","","","","./tasks/HMM-beads/Images/WhiteBeadChoice.png","","","","","","","","","",""
"image-keyboard-response","195","646094","0.0-3.0-6.0-1.0-2.19","653166fa42afa6ecf4fc73c4","6662009ae78f21dd82fcd179","66620a4e0eda9a70e4593888","null","","null","","","","","","","","./tasks/HMM-beads/Images/WhiteBeadChoiceCorrect.png","","","","","","","","","",""
"image-keyboard-response","196","647029","0.0-3.0-6.0-1.0-0.20","653166fa42afa6ecf4fc73c4","6662009ae78f21dd82fcd179","66620a4e0eda9a70e4593888","933","","f","","","","","","","","./tasks/HMM-beads/Images/NewTrialWC.png","lowH","1","20","1","1","1","0","false","",""
"image-keyboard-response","197","647341","0.0-3.0-6.0-1.0-1.20","653166fa42afa6ecf4fc73c4","6662009ae78f21dd82fcd179","66620a4e0eda9a70e4593888","null","","null","","","","","","","","./tasks/HMM-beads/Images/BlackBeadChoice.png","","","","","","","","","",""
"image-keyboard-response","198","647851","0.0-3.0-6.0-1.0-2.20","653166fa42afa6ecf4fc73c4","6662009ae78f21dd82fcd179","66620a4e0eda9a70e4593888","null","","null","","","","","","","","./tasks/HMM-beads/Images/BlackBeadChoiceWrong.png","","","","","","","","","",""
"image-keyboard-response","199","648277","0.0-3.0-6.0-1.0-0.21","653166fa42afa6ecf4fc73c4","6662009ae78f21dd82fcd179","66620a4e0eda9a70e4593888","425","","j","","","","","","","","./tasks/HMM-beads/Images/NewTrialWC.png","lowH","1","21","1","1","1","1","true","",""
"image-keyboard-response","200","648599","0.0-3.0-6.0-1.0-1.21","653166fa42afa6ecf4fc73c4","6662009ae78f21dd82fcd179","66620a4e0eda9a70e4593888","null","","null","","","","","","","","./tasks/HMM-beads/Images/WhiteBeadChoice.png","","","","","","","","","",""
"image-keyboard-response","201","649114","0.0-3.0-6.0-1.0-2.21","653166fa42afa6ecf4fc73c4","6662009ae78f21dd82fcd179","66620a4e0eda9a70e4593888","null","","null","","","","","","","","./tasks/HMM-beads/Images/WhiteBeadChoiceCorrect.png","","","","","","","","","",""
"image-keyboard-response","202","649500","0.0-3.0-6.0-1.0-0.22","653166fa42afa6ecf4fc73c4","6662009ae78f21dd82fcd179","66620a4e0eda9a70e4593888","385","","j","","","","","","","","./tasks/HMM-beads/Images/NewTrialWC.png","lowH","1","22","1","1","1","1","true","",""
"image-keyboard-response","203","649815","0.0-3.0-6.0-1.0-1.22","653166fa42afa6ecf4fc73c4","6662009ae78f21dd82fcd179","66620a4e0eda9a70e4593888","null","","null","","","","","","","","./tasks/HMM-beads/Images/WhiteBeadChoice.png","","","","","","","","","",""
"image-keyboard-response","204","650331","0.0-3.0-6.0-1.0-2.22","653166fa42afa6ecf4fc73c4","6662009ae78f21dd82fcd179","66620a4e0eda9a70e4593888","null","","null","","","","","","","","./tasks/HMM-beads/Images/WhiteBeadChoiceCorrect.png","","","","","","","","","",""
"image-keyboard-response","205","651245","0.0-3.0-6.0-1.0-0.23","653166fa42afa6ecf4fc73c4","6662009ae78f21dd82fcd179","66620a4e0eda9a70e4593888","913","","j","","","","","","","","./tasks/HMM-beads/Images/NewTrialWC.png","lowH","1","23","1","1","1","1","true","",""
"image-keyboard-response","206","651548","0.0-3.0-6.0-1.0-1.23","653166fa42afa6ecf4fc73c4","6662009ae78f21dd82fcd179","66620a4e0eda9a70e4593888","null","","null","","","","","","","","./tasks/HMM-beads/Images/WhiteBeadChoice.png","","","","","","","","","",""
"image-keyboard-response","207","652051","0.0-3.0-6.0-1.0-2.23","653166fa42afa6ecf4fc73c4","6662009ae78f21dd82fcd179","66620a4e0eda9a70e4593888","null","","null","","","","","","","","./tasks/HMM-beads/Images/WhiteBeadChoiceCorrect.png","","","","","","","","","",""
"image-keyboard-response","208","652891","0.0-3.0-6.0-1.0-0.24","653166fa42afa6ecf4fc73c4","6662009ae78f21dd82fcd179","66620a4e0eda9a70e4593888","839","","f","","","","","","","","./tasks/HMM-beads/Images/NewTrialWC.png","lowH","1","24","1","0","1","0","true","",""
"image-keyboard-response","209","653192","0.0-3.0-6.0-1.0-1.24","653166fa42afa6ecf4fc73c4","6662009ae78f21dd82fcd179","66620a4e0eda9a70e4593888","null","","null","","","","","","","","./tasks/HMM-beads/Images/BlackBeadChoice.png","","","","","","","","","",""
"image-keyboard-response","210","653705","0.0-3.0-6.0-1.0-2.24","653166fa42afa6ecf4fc73c4","6662009ae78f21dd82fcd179","66620a4e0eda9a70e4593888","null","","null","","","","","","","","./tasks/HMM-beads/Images/BlackBeadChoiceCorrect.png","","","","","","","","","",""
"image-keyboard-response","211","655005","0.0-3.0-6.0-1.0-0.25","653166fa42afa6ecf4fc73c4","6662009ae78f21dd82fcd179","66620a4e0eda9a70e4593888","1299","","f","","","","","","","","./tasks/HMM-beads/Images/NewTrialBC.png","lowH","1","25","1","1","0","0","false","",""
"image-keyboard-response","212","655317","0.0-3.0-6.0-1.0-1.25","653166fa42afa6ecf4fc73c4","6662009ae78f21dd82fcd179","66620a4e0eda9a70e4593888","null","","null","","","","","","","","./tasks/HMM-beads/Images/BlackBeadChoice.png","","","","","","","","","",""
"image-keyboard-response","213","655833","0.0-3.0-6.0-1.0-2.25","653166fa42afa6ecf4fc73c4","6662009ae78f21dd82fcd179","66620a4e0eda9a70e4593888","null","","null","","","","","","","","./tasks/HMM-beads/Images/BlackBeadChoiceWrong.png","","","","","","","","","",""
"image-keyboard-response","214","656236","0.0-3.0-6.0-1.0-0.26","653166fa42afa6ecf4fc73c4","6662009ae78f21dd82fcd179","66620a4e0eda9a70e4593888","402","","j","","","","","","","","./tasks/HMM-beads/Images/NewTrialWC.png","lowH","1","26","1","0","1","1","false","",""
"image-keyboard-response","215","656550","0.0-3.0-6.0-1.0-1.26","653166fa42afa6ecf4fc73c4","6662009ae78f21dd82fcd179","66620a4e0eda9a70e4593888","null","","null","","","","","","","","./tasks/HMM-beads/Images/WhiteBeadChoice.png","","","","","","","","","",""
"image-keyboard-response","216","657052","0.0-3.0-6.0-1.0-2.26","653166fa42afa6ecf4fc73c4","6662009ae78f21dd82fcd179","66620a4e0eda9a70e4593888","null","","null","","","","","","","","./tasks/HMM-beads/Images/WhiteBeadChoiceWrong.png","","","","","","","","","",""
"image-keyboard-response","217","657708","0.0-3.0-6.0-1.0-0.27","653166fa42afa6ecf4fc73c4","6662009ae78f21dd82fcd179","66620a4e0eda9a70e4593888","655","","f","","","","","","","","./tasks/HMM-beads/Images/NewTrialBC.png","lowH","1","27","1","1","0","0","false","",""
"image-keyboard-response","218","658020","0.0-3.0-6.0-1.0-1.27","653166fa42afa6ecf4fc73c4","6662009ae78f21dd82fcd179","66620a4e0eda9a70e4593888","null","","null","","","","","","","","./tasks/HMM-beads/Images/BlackBeadChoice.png","","","","","","","","","",""
"image-keyboard-response","219","658535","0.0-3.0-6.0-1.0-2.27","653166fa42afa6ecf4fc73c4","6662009ae78f21dd82fcd179","66620a4e0eda9a70e4593888","null","","null","","","","","","","","./tasks/HMM-beads/Images/BlackBeadChoiceWrong.png","","","","","","","","","",""
"image-keyboard-response","220","658973","0.0-3.0-6.0-1.0-0.28","653166fa42afa6ecf4fc73c4","6662009ae78f21dd82fcd179","66620a4e0eda9a70e4593888","437","","j","","","","","","","","./tasks/HMM-beads/Images/NewTrialWC.png","lowH","1","28","1","1","1","1","true","",""
"image-keyboard-response","221","659286","0.0-3.0-6.0-1.0-1.28","653166fa42afa6ecf4fc73c4","6662009ae78f21dd82fcd179","66620a4e0eda9a70e4593888","null","","null","","","","","","","","./tasks/HMM-beads/Images/WhiteBeadChoice.png","","","","","","","","","",""
"image-keyboard-response","222","659799","0.0-3.0-6.0-1.0-2.28","653166fa42afa6ecf4fc73c4","6662009ae78f21dd82fcd179","66620a4e0eda9a70e4593888","null","","null","","","","","","","","./tasks/HMM-beads/Images/WhiteBeadChoiceCorrect.png","","","","","","","","","",""
"image-keyboard-response","223","659852","0.0-3.0-6.0-1.0-0.29","653166fa42afa6ecf4fc73c4","6662009ae78f21dd82fcd179","66620a4e0eda9a70e4593888","52","","j","","","","","","","","./tasks/HMM-beads/Images/NewTrialWC.png","lowH","1","29","1","1","1","1","true","",""
"image-keyboard-response","224","660160","0.0-3.0-6.0-1.0-1.29","653166fa42afa6ecf4fc73c4","6662009ae78f21dd82fcd179","66620a4e0eda9a70e4593888","null","","null","","","","","","","","./tasks/HMM-beads/Images/WhiteBeadChoice.png","","","","","","","","","",""
"image-keyboard-response","225","660672","0.0-3.0-6.0-1.0-2.29","653166fa42afa6ecf4fc73c4","6662009ae78f21dd82fcd179","66620a4e0eda9a70e4593888","null","","null","","","","","","","","./tasks/HMM-beads/Images/WhiteBeadChoiceCorrect.png","","","","","","","","","",""
"image-keyboard-response","226","661219","0.0-3.0-6.0-1.0-0.30","653166fa42afa6ecf4fc73c4","6662009ae78f21dd82fcd179","66620a4e0eda9a70e4593888","545","","j","","","","","","","","./tasks/HMM-beads/Images/NewTrialWC.png","lowH","1","30","1","1","1","1","true","",""
"image-keyboard-response","227","661529","0.0-3.0-6.0-1.0-1.30","653166fa42afa6ecf4fc73c4","6662009ae78f21dd82fcd179","66620a4e0eda9a70e4593888","null","","null","","","","","","","","./tasks/HMM-beads/Images/WhiteBeadChoice.png","","","","","","","","","",""
"image-keyboard-response","228","662044","0.0-3.0-6.0-1.0-2.30","653166fa42afa6ecf4fc73c4","6662009ae78f21dd82fcd179","66620a4e0eda9a70e4593888","null","","null","","","","","","","","./tasks/HMM-beads/Images/WhiteBeadChoiceCorrect.png","","","","","","","","","",""
"image-keyboard-response","229","662421","0.0-3.0-6.0-1.0-0.31","653166fa42afa6ecf4fc73c4","6662009ae78f21dd82fcd179","66620a4e0eda9a70e4593888","376","","j","","","","","","","","./tasks/HMM-beads/Images/NewTrialWC.png","lowH","1","31","1","1","1","1","true","",""
"image-keyboard-response","230","662732","0.0-3.0-6.0-1.0-1.31","653166fa42afa6ecf4fc73c4","6662009ae78f21dd82fcd179","66620a4e0eda9a70e4593888","null","","null","","","","","","","","./tasks/HMM-beads/Images/WhiteBeadChoice.png","","","","","","","","","",""
"image-keyboard-response","231","663235","0.0-3.0-6.0-1.0-2.31","653166fa42afa6ecf4fc73c4","6662009ae78f21dd82fcd179","66620a4e0eda9a70e4593888","null","","null","","","","","","","","./tasks/HMM-beads/Images/WhiteBeadChoiceCorrect.png","","","","","","","","","",""
"image-keyboard-response","232","663852","0.0-3.0-6.0-1.0-0.32","653166fa42afa6ecf4fc73c4","6662009ae78f21dd82fcd179","66620a4e0eda9a70e4593888","617","","f","","","","","","","","./tasks/HMM-beads/Images/NewTrialWC.png","lowH","1","32","1","1","1","0","false","",""
"image-keyboard-response","233","664158","0.0-3.0-6.0-1.0-1.32","653166fa42afa6ecf4fc73c4","6662009ae78f21dd82fcd179","66620a4e0eda9a70e4593888","null","","null","","","","","","","","./tasks/HMM-beads/Images/BlackBeadChoice.png","","","","","","","","","",""
"image-keyboard-response","234","664671","0.0-3.0-6.0-1.0-2.32","653166fa42afa6ecf4fc73c4","6662009ae78f21dd82fcd179","66620a4e0eda9a70e4593888","null","","null","","","","","","","","./tasks/HMM-beads/Images/BlackBeadChoiceWrong.png","","","","","","","","","",""
"image-keyboard-response","235","665044","0.0-3.0-6.0-1.0-0.33","653166fa42afa6ecf4fc73c4","6662009ae78f21dd82fcd179","66620a4e0eda9a70e4593888","372","","j","","","","","","","","./tasks/HMM-beads/Images/NewTrialWC.png","lowH","1","33","1","1","1","1","true","",""
"image-keyboard-response","236","665356","0.0-3.0-6.0-1.0-1.33","653166fa42afa6ecf4fc73c4","6662009ae78f21dd82fcd179","66620a4e0eda9a70e4593888","null","","null","","","","","","","","./tasks/HMM-beads/Images/WhiteBeadChoice.png","","","","","","","","","",""
"image-keyboard-response","237","665871","0.0-3.0-6.0-1.0-2.33","653166fa42afa6ecf4fc73c4","6662009ae78f21dd82fcd179","66620a4e0eda9a70e4593888","null","","null","","","","","","","","./tasks/HMM-beads/Images/WhiteBeadChoiceCorrect.png","","","","","","","","","",""
"image-keyboard-response","238","666364","0.0-3.0-6.0-1.0-0.34","653166fa42afa6ecf4fc73c4","6662009ae78f21dd82fcd179","66620a4e0eda9a70e4593888","492","","f","","","","","","","","./tasks/HMM-beads/Images/NewTrialWC.png","lowH","1","34","1","1","1","0","false","",""
"image-keyboard-response","239","666683","0.0-3.0-6.0-1.0-1.34","653166fa42afa6ecf4fc73c4","6662009ae78f21dd82fcd179","66620a4e0eda9a70e4593888","null","","null","","","","","","","","./tasks/HMM-beads/Images/BlackBeadChoice.png","","","","","","","","","",""
"image-keyboard-response","240","667200","0.0-3.0-6.0-1.0-2.34","653166fa42afa6ecf4fc73c4","6662009ae78f21dd82fcd179","66620a4e0eda9a70e4593888","null","","null","","","","","","","","./tasks/HMM-beads/Images/BlackBeadChoiceWrong.png","","","","","","","","","",""
"image-keyboard-response","241","667540","0.0-3.0-6.0-1.0-0.35","653166fa42afa6ecf4fc73c4","6662009ae78f21dd82fcd179","66620a4e0eda9a70e4593888","339","","j","","","","","","","","./tasks/HMM-beads/Images/NewTrialWC.png","lowH","1","35","1","1","1","1","true","",""
"image-keyboard-response","242","667853","0.0-3.0-6.0-1.0-1.35","653166fa42afa6ecf4fc73c4","6662009ae78f21dd82fcd179","66620a4e0eda9a70e4593888","null","","null","","","","","","","","./tasks/HMM-beads/Images/WhiteBeadChoice.png","","","","","","","","","",""
"image-keyboard-response","243","668367","0.0-3.0-6.0-1.0-2.35","653166fa42afa6ecf4fc73c4","6662009ae78f21dd82fcd179","66620a4e0eda9a70e4593888","null","","null","","","","","","","","./tasks/HMM-beads/Images/WhiteBeadChoiceCorrect.png","","","","","","","","","",""
"image-keyboard-response","244","668731","0.0-3.0-6.0-1.0-0.36","653166fa42afa6ecf4fc73c4","6662009ae78f21dd82fcd179","66620a4e0eda9a70e4593888","363","","j","","","","","","","","./tasks/HMM-beads/Images/NewTrialWC.png","lowH","1","36","1","1","1","1","true","",""
"image-keyboard-response","245","669036","0.0-3.0-6.0-1.0-1.36","653166fa42afa6ecf4fc73c4","6662009ae78f21dd82fcd179","66620a4e0eda9a70e4593888","null","","null","","","","","","","","./tasks/HMM-beads/Images/WhiteBeadChoice.png","","","","","","","","","",""
"image-keyboard-response","246","669552","0.0-3.0-6.0-1.0-2.36","653166fa42afa6ecf4fc73c4","6662009ae78f21dd82fcd179","66620a4e0eda9a70e4593888","null","","null","","","","","","","","./tasks/HMM-beads/Images/WhiteBeadChoiceCorrect.png","","","","","","","","","",""
"image-keyboard-response","247","670133","0.0-3.0-6.0-1.0-0.37","653166fa42afa6ecf4fc73c4","6662009ae78f21dd82fcd179","66620a4e0eda9a70e4593888","580","","j","","","","","","","","./tasks/HMM-beads/Images/NewTrialWC.png","lowH","1","37","1","1","1","1","true","",""
"image-keyboard-response","248","670437","0.0-3.0-6.0-1.0-1.37","653166fa42afa6ecf4fc73c4","6662009ae78f21dd82fcd179","66620a4e0eda9a70e4593888","null","","null","","","","","","","","./tasks/HMM-beads/Images/WhiteBeadChoice.png","","","","","","","","","",""
"image-keyboard-response","249","670950","0.0-3.0-6.0-1.0-2.37","653166fa42afa6ecf4fc73c4","6662009ae78f21dd82fcd179","66620a4e0eda9a70e4593888","null","","null","","","","","","","","./tasks/HMM-beads/Images/WhiteBeadChoiceCorrect.png","","","","","","","","","",""
"image-keyboard-response","250","671557","0.0-3.0-6.0-1.0-0.38","653166fa42afa6ecf4fc73c4","6662009ae78f21dd82fcd179","66620a4e0eda9a70e4593888","605","","j","","","","","","","","./tasks/HMM-beads/Images/NewTrialWC.png","lowH","1","38","1","1","1","1","true","",""
"image-keyboard-response","251","671872","0.0-3.0-6.0-1.0-1.38","653166fa42afa6ecf4fc73c4","6662009ae78f21dd82fcd179","66620a4e0eda9a70e4593888","null","","null","","","","","","","","./tasks/HMM-beads/Images/WhiteBeadChoice.png","","","","","","","","","",""
"image-keyboard-response","252","672388","0.0-3.0-6.0-1.0-2.38","653166fa42afa6ecf4fc73c4","6662009ae78f21dd82fcd179","66620a4e0eda9a70e4593888","null","","null","","","","","","","","./tasks/HMM-beads/Images/WhiteBeadChoiceCorrect.png","","","","","","","","","",""
"image-keyboard-response","253","672836","0.0-3.0-6.0-1.0-0.39","653166fa42afa6ecf4fc73c4","6662009ae78f21dd82fcd179","66620a4e0eda9a70e4593888","447","","j","","","","","","","","./tasks/HMM-beads/Images/NewTrialWC.png","lowH","1","39","1","1","1","1","true","",""
"image-keyboard-response","254","673150","0.0-3.0-6.0-1.0-1.39","653166fa42afa6ecf4fc73c4","6662009ae78f21dd82fcd179","66620a4e0eda9a70e4593888","null","","null","","","","","","","","./tasks/HMM-beads/Images/WhiteBeadChoice.png","","","","","","","","","",""
"image-keyboard-response","255","673651","0.0-3.0-6.0-1.0-2.39","653166fa42afa6ecf4fc73c4","6662009ae78f21dd82fcd179","66620a4e0eda9a70e4593888","null","","null","","","","","","","","./tasks/HMM-beads/Images/WhiteBeadChoiceCorrect.png","","","","","","","","","",""
"image-keyboard-response","256","675341","0.0-3.0-6.0-1.0-0.40","653166fa42afa6ecf4fc73c4","6662009ae78f21dd82fcd179","66620a4e0eda9a70e4593888","1689","","j","","","","","","","","./tasks/HMM-beads/Images/NewTrialWC.png","lowH","1","40","1","1","1","1","true","",""
"image-keyboard-response","257","675651","0.0-3.0-6.0-1.0-1.40","653166fa42afa6ecf4fc73c4","6662009ae78f21dd82fcd179","66620a4e0eda9a70e4593888","null","","null","","","","","","","","./tasks/HMM-beads/Images/WhiteBeadChoice.png","","","","","","","","","",""
"image-keyboard-response","258","676166","0.0-3.0-6.0-1.0-2.40","653166fa42afa6ecf4fc73c4","6662009ae78f21dd82fcd179","66620a4e0eda9a70e4593888","null","","null","","","","","","","","./tasks/HMM-beads/Images/WhiteBeadChoiceCorrect.png","","","","","","","","","",""
"image-keyboard-response","259","676605","0.0-3.0-6.0-1.0-0.41","653166fa42afa6ecf4fc73c4","6662009ae78f21dd82fcd179","66620a4e0eda9a70e4593888","438","","j","","","","","","","","./tasks/HMM-beads/Images/NewTrialWC.png","lowH","1","41","1","1","1","1","true","",""
"image-keyboard-response","260","676912","0.0-3.0-6.0-1.0-1.41","653166fa42afa6ecf4fc73c4","6662009ae78f21dd82fcd179","66620a4e0eda9a70e4593888","null","","null","","","","","","","","./tasks/HMM-beads/Images/WhiteBeadChoice.png","","","","","","","","","",""
"image-keyboard-response","261","677428","0.0-3.0-6.0-1.0-2.41","653166fa42afa6ecf4fc73c4","6662009ae78f21dd82fcd179","66620a4e0eda9a70e4593888","null","","null","","","","","","","","./tasks/HMM-beads/Images/WhiteBeadChoiceCorrect.png","","","","","","","","","",""
"image-keyboard-response","262","677868","0.0-3.0-6.0-1.0-0.42","653166fa42afa6ecf4fc73c4","6662009ae78f21dd82fcd179","66620a4e0eda9a70e4593888","439","","j","","","","","","","","./tasks/HMM-beads/Images/NewTrialWC.png","lowH","1","42","1","1","1","1","true","",""
"image-keyboard-response","263","678179","0.0-3.0-6.0-1.0-1.42","653166fa42afa6ecf4fc73c4","6662009ae78f21dd82fcd179","66620a4e0eda9a70e4593888","null","","null","","","","","","","","./tasks/HMM-beads/Images/WhiteBeadChoice.png","","","","","","","","","",""
"image-keyboard-response","264","678694","0.0-3.0-6.0-1.0-2.42","653166fa42afa6ecf4fc73c4","6662009ae78f21dd82fcd179","66620a4e0eda9a70e4593888","null","","null","","","","","","","","./tasks/HMM-beads/Images/WhiteBeadChoiceCorrect.png","","","","","","","","","",""
"image-keyboard-response","265","679140","0.0-3.0-6.0-1.0-0.43","653166fa42afa6ecf4fc73c4","6662009ae78f21dd82fcd179","66620a4e0eda9a70e4593888","444","","j","","","","","","","","./tasks/HMM-beads/Images/NewTrialWC.png","lowH","1","43","1","1","1","1","true","",""
"image-keyboard-response","266","679455","0.0-3.0-6.0-1.0-1.43","653166fa42afa6ecf4fc73c4","6662009ae78f21dd82fcd179","66620a4e0eda9a70e4593888","null","","null","","","","","","","","./tasks/HMM-beads/Images/WhiteBeadChoice.png","","","","","","","","","",""
"image-keyboard-response","267","679968","0.0-3.0-6.0-1.0-2.43","653166fa42afa6ecf4fc73c4","6662009ae78f21dd82fcd179","66620a4e0eda9a70e4593888","null","","null","","","","","","","","./tasks/HMM-beads/Images/WhiteBeadChoiceCorrect.png","","","","","","","","","",""
"image-keyboard-response","268","680181","0.0-3.0-6.0-1.0-0.44","653166fa42afa6ecf4fc73c4","6662009ae78f21dd82fcd179","66620a4e0eda9a70e4593888","211","","j","","","","","","","","./tasks/HMM-beads/Images/NewTrialWC.png","lowH","1","44","1","1","1","1","true","",""
"image-keyboard-response","269","680484","0.0-3.0-6.0-1.0-1.44","653166fa42afa6ecf4fc73c4","6662009ae78f21dd82fcd179","66620a4e0eda9a70e4593888","null","","null","","","","","","","","./tasks/HMM-beads/Images/WhiteBeadChoice.png","","","","","","","","","",""
"image-keyboard-response","270","680997","0.0-3.0-6.0-1.0-2.44","653166fa42afa6ecf4fc73c4","6662009ae78f21dd82fcd179","66620a4e0eda9a70e4593888","null","","null","","","","","","","","./tasks/HMM-beads/Images/WhiteBeadChoiceCorrect.png","","","","","","","","","",""
"image-keyboard-response","271","681549","0.0-3.0-6.0-1.0-0.45","653166fa42afa6ecf4fc73c4","6662009ae78f21dd82fcd179","66620a4e0eda9a70e4593888","550","","j","","","","","","","","./tasks/HMM-beads/Images/NewTrialWC.png","lowH","1","45","1","1","1","1","true","",""
"image-keyboard-response","272","681855","0.0-3.0-6.0-1.0-1.45","653166fa42afa6ecf4fc73c4","6662009ae78f21dd82fcd179","66620a4e0eda9a70e4593888","null","","null","","","","","","","","./tasks/HMM-beads/Images/WhiteBeadChoice.png","","","","","","","","","",""
"image-keyboard-response","273","682370","0.0-3.0-6.0-1.0-2.45","653166fa42afa6ecf4fc73c4","6662009ae78f21dd82fcd179","66620a4e0eda9a70e4593888","null","","null","","","","","","","","./tasks/HMM-beads/Images/WhiteBeadChoiceCorrect.png","","","","","","","","","",""
"image-keyboard-response","274","682732","0.0-3.0-6.0-1.0-0.46","653166fa42afa6ecf4fc73c4","6662009ae78f21dd82fcd179","66620a4e0eda9a70e4593888","360","","j","","","","","","","","./tasks/HMM-beads/Images/NewTrialWC.png","lowH","1","46","1","1","1","1","true","",""
"image-keyboard-response","275","683044","0.0-3.0-6.0-1.0-1.46","653166fa42afa6ecf4fc73c4","6662009ae78f21dd82fcd179","66620a4e0eda9a70e4593888","null","","null","","","","","","","","./tasks/HMM-beads/Images/WhiteBeadChoice.png","","","","","","","","","",""
"image-keyboard-response","276","683560","0.0-3.0-6.0-1.0-2.46","653166fa42afa6ecf4fc73c4","6662009ae78f21dd82fcd179","66620a4e0eda9a70e4593888","null","","null","","","","","","","","./tasks/HMM-beads/Images/WhiteBeadChoiceCorrect.png","","","","","","","","","",""
"image-keyboard-response","277","683908","0.0-3.0-6.0-1.0-0.47","653166fa42afa6ecf4fc73c4","6662009ae78f21dd82fcd179","66620a4e0eda9a70e4593888","347","","f","","","","","","","","./tasks/HMM-beads/Images/NewTrialWC.png","lowH","1","47","1","0","1","0","true","",""
"image-keyboard-response","278","684231","0.0-3.0-6.0-1.0-1.47","653166fa42afa6ecf4fc73c4","6662009ae78f21dd82fcd179","66620a4e0eda9a70e4593888","null","","null","","","","","","","","./tasks/HMM-beads/Images/BlackBeadChoice.png","","","","","","","","","",""
"image-keyboard-response","279","684734","0.0-3.0-6.0-1.0-2.47","653166fa42afa6ecf4fc73c4","6662009ae78f21dd82fcd179","66620a4e0eda9a70e4593888","null","","null","","","","","","","","./tasks/HMM-beads/Images/BlackBeadChoiceCorrect.png","","","","","","","","","",""
"image-keyboard-response","280","685739","0.0-3.0-6.0-1.0-0.48","653166fa42afa6ecf4fc73c4","6662009ae78f21dd82fcd179","66620a4e0eda9a70e4593888","1005","","j","","","","","","","","./tasks/HMM-beads/Images/NewTrialBC.png","lowH","1","48","1","0","0","1","false","",""
"image-keyboard-response","281","686044","0.0-3.0-6.0-1.0-1.48","653166fa42afa6ecf4fc73c4","6662009ae78f21dd82fcd179","66620a4e0eda9a70e4593888","null","","null","","","","","","","","./tasks/HMM-beads/Images/WhiteBeadChoice.png","","","","","","","","","",""
"image-keyboard-response","282","686548","0.0-3.0-6.0-1.0-2.48","653166fa42afa6ecf4fc73c4","6662009ae78f21dd82fcd179","66620a4e0eda9a70e4593888","null","","null","","","","","","","","./tasks/HMM-beads/Images/WhiteBeadChoiceWrong.png","","","","","","","","","",""
"image-keyboard-response","283","686756","0.0-3.0-6.0-1.0-0.49","653166fa42afa6ecf4fc73c4","6662009ae78f21dd82fcd179","66620a4e0eda9a70e4593888","206","","f","","","","","","","","./tasks/HMM-beads/Images/NewTrialBC.png","lowH","1","49","1","0","0","0","true","",""
"image-keyboard-response","284","687061","0.0-3.0-6.0-1.0-1.49","653166fa42afa6ecf4fc73c4","6662009ae78f21dd82fcd179","66620a4e0eda9a70e4593888","null","","null","","","","","","","","./tasks/HMM-beads/Images/BlackBeadChoice.png","","","","","","","","","",""
"image-keyboard-response","285","687576","0.0-3.0-6.0-1.0-2.49","653166fa42afa6ecf4fc73c4","6662009ae78f21dd82fcd179","66620a4e0eda9a70e4593888","null","","null","","","","","","","","./tasks/HMM-beads/Images/BlackBeadChoiceCorrect.png","","","","","","","","","",""
"image-keyboard-response","286","687925","0.0-3.0-6.0-1.0-0.50","653166fa42afa6ecf4fc73c4","6662009ae78f21dd82fcd179","66620a4e0eda9a70e4593888","348","","f","","","","","","","","./tasks/HMM-beads/Images/NewTrialBC.png","lowH","1","50","1","1","0","0","false","",""
"image-keyboard-response","287","688237","0.0-3.0-6.0-1.0-1.50","653166fa42afa6ecf4fc73c4","6662009ae78f21dd82fcd179","66620a4e0eda9a70e4593888","null","","null","","","","","","","","./tasks/HMM-beads/Images/BlackBeadChoice.png","","","","","","","","","",""
"image-keyboard-response","288","688754","0.0-3.0-6.0-1.0-2.50","653166fa42afa6ecf4fc73c4","6662009ae78f21dd82fcd179","66620a4e0eda9a70e4593888","null","","null","","","","","","","","./tasks/HMM-beads/Images/BlackBeadChoiceWrong.png","","","","","","","","","",""
"image-keyboard-response","289","689612","0.0-3.0-6.0-1.0-0.51","653166fa42afa6ecf4fc73c4","6662009ae78f21dd82fcd179","66620a4e0eda9a70e4593888","857","","j","","","","","","","","./tasks/HMM-beads/Images/NewTrialWC.png","lowH","1","51","1","1","1","1","true","",""
"image-keyboard-response","290","689927","0.0-3.0-6.0-1.0-1.51","653166fa42afa6ecf4fc73c4","6662009ae78f21dd82fcd179","66620a4e0eda9a70e4593888","null","","null","","","","","","","","./tasks/HMM-beads/Images/WhiteBeadChoice.png","","","","","","","","","",""
"image-keyboard-response","291","690444","0.0-3.0-6.0-1.0-2.51","653166fa42afa6ecf4fc73c4","6662009ae78f21dd82fcd179","66620a4e0eda9a70e4593888","null","","null","","","","","","","","./tasks/HMM-beads/Images/WhiteBeadChoiceCorrect.png","","","","","","","","","",""
"image-keyboard-response","292","690598","0.0-3.0-6.0-1.0-0.52","653166fa42afa6ecf4fc73c4","6662009ae78f21dd82fcd179","66620a4e0eda9a70e4593888","152","","j","","","","","","","","./tasks/HMM-beads/Images/NewTrialWC.png","lowH","1","52","1","1","1","1","true","",""
"image-keyboard-response","293","690913","0.0-3.0-6.0-1.0-1.52","653166fa42afa6ecf4fc73c4","6662009ae78f21dd82fcd179","66620a4e0eda9a70e4593888","null","","null","","","","","","","","./tasks/HMM-beads/Images/WhiteBeadChoice.png","","","","","","","","","",""
"image-keyboard-response","294","691426","0.0-3.0-6.0-1.0-2.52","653166fa42afa6ecf4fc73c4","6662009ae78f21dd82fcd179","66620a4e0eda9a70e4593888","null","","null","","","","","","","","./tasks/HMM-beads/Images/WhiteBeadChoiceCorrect.png","","","","","","","","","",""
"image-keyboard-response","295","692604","0.0-3.0-6.0-1.0-0.53","653166fa42afa6ecf4fc73c4","6662009ae78f21dd82fcd179","66620a4e0eda9a70e4593888","1176","","j","","","","","","","","./tasks/HMM-beads/Images/NewTrialWC.png","lowH","1","53","1","1","1","1","true","",""
"image-keyboard-response","296","692910","0.0-3.0-6.0-1.0-1.53","653166fa42afa6ecf4fc73c4","6662009ae78f21dd82fcd179","66620a4e0eda9a70e4593888","null","","null","","","","","","","","./tasks/HMM-beads/Images/WhiteBeadChoice.png","","","","","","","","","",""
"image-keyboard-response","297","693426","0.0-3.0-6.0-1.0-2.53","653166fa42afa6ecf4fc73c4","6662009ae78f21dd82fcd179","66620a4e0eda9a70e4593888","null","","null","","","","","","","","./tasks/HMM-beads/Images/WhiteBeadChoiceCorrect.png","","","","","","","","","",""
"image-keyboard-response","298","693557","0.0-3.0-6.0-1.0-0.54","653166fa42afa6ecf4fc73c4","6662009ae78f21dd82fcd179","66620a4e0eda9a70e4593888","129","","j","","","","","","","","./tasks/HMM-beads/Images/NewTrialWC.png","lowH","1","54","1","1","1","1","true","",""
"image-keyboard-response","299","693863","0.0-3.0-6.0-1.0-1.54","653166fa42afa6ecf4fc73c4","6662009ae78f21dd82fcd179","66620a4e0eda9a70e4593888","null","","null","","","","","","","","./tasks/HMM-beads/Images/WhiteBeadChoice.png","","","","","","","","","",""
"image-keyboard-response","300","694369","0.0-3.0-6.0-1.0-2.54","653166fa42afa6ecf4fc73c4","6662009ae78f21dd82fcd179","66620a4e0eda9a70e4593888","null","","null","","","","","","","","./tasks/HMM-beads/Images/WhiteBeadChoiceCorrect.png","","","","","","","","","",""
"image-keyboard-response","301","694372","0.0-3.0-6.0-1.0-0.55","653166fa42afa6ecf4fc73c4","6662009ae78f21dd82fcd179","66620a4e0eda9a70e4593888","1","","j","","","","","","","","./tasks/HMM-beads/Images/NewTrialWC.png","lowH","1","55","1","1","1","1","true","",""
"image-keyboard-response","302","694680","0.0-3.0-6.0-1.0-1.55","653166fa42afa6ecf4fc73c4","6662009ae78f21dd82fcd179","66620a4e0eda9a70e4593888","null","","null","","","","","","","","./tasks/HMM-beads/Images/WhiteBeadChoice.png","","","","","","","","","",""
"image-keyboard-response","303","695194","0.0-3.0-6.0-1.0-2.55","653166fa42afa6ecf4fc73c4","6662009ae78f21dd82fcd179","66620a4e0eda9a70e4593888","null","","null","","","","","","","","./tasks/HMM-beads/Images/WhiteBeadChoiceCorrect.png","","","","","","","","","",""
"image-keyboard-response","304","695604","0.0-3.0-6.0-1.0-0.56","653166fa42afa6ecf4fc73c4","6662009ae78f21dd82fcd179","66620a4e0eda9a70e4593888","410","","j","","","","","","","","./tasks/HMM-beads/Images/NewTrialWC.png","lowH","1","56","1","1","1","1","true","",""
"image-keyboard-response","305","695914","0.0-3.0-6.0-1.0-1.56","653166fa42afa6ecf4fc73c4","6662009ae78f21dd82fcd179","66620a4e0eda9a70e4593888","null","","null","","","","","","","","./tasks/HMM-beads/Images/WhiteBeadChoice.png","","","","","","","","","",""
"image-keyboard-response","306","696430","0.0-3.0-6.0-1.0-2.56","653166fa42afa6ecf4fc73c4","6662009ae78f21dd82fcd179","66620a4e0eda9a70e4593888","null","","null","","","","","","","","./tasks/HMM-beads/Images/WhiteBeadChoiceCorrect.png","","","","","","","","","",""
"image-keyboard-response","307","696755","0.0-3.0-6.0-1.0-0.57","653166fa42afa6ecf4fc73c4","6662009ae78f21dd82fcd179","66620a4e0eda9a70e4593888","324","","j","","","","","","","","./tasks/HMM-beads/Images/NewTrialWC.png","lowH","1","57","1","1","1","1","true","",""
"image-keyboard-response","308","697069","0.0-3.0-6.0-1.0-1.57","653166fa42afa6ecf4fc73c4","6662009ae78f21dd82fcd179","66620a4e0eda9a70e4593888","null","","null","","","","","","","","./tasks/HMM-beads/Images/WhiteBeadChoice.png","","","","","","","","","",""
"image-keyboard-response","309","697581","0.0-3.0-6.0-1.0-2.57","653166fa42afa6ecf4fc73c4","6662009ae78f21dd82fcd179","66620a4e0eda9a70e4593888","null","","null","","","","","","","","./tasks/HMM-beads/Images/WhiteBeadChoiceCorrect.png","","","","","","","","","",""
"image-keyboard-response","310","698276","0.0-3.0-6.0-1.0-0.58","653166fa42afa6ecf4fc73c4","6662009ae78f21dd82fcd179","66620a4e0eda9a70e4593888","693","","j","","","","","","","","./tasks/HMM-beads/Images/NewTrialWC.png","lowH","1","58","1","1","1","1","true","",""
"image-keyboard-response","311","698582","0.0-3.0-6.0-1.0-1.58","653166fa42afa6ecf4fc73c4","6662009ae78f21dd82fcd179","66620a4e0eda9a70e4593888","null","","null","","","","","","","","./tasks/HMM-beads/Images/WhiteBeadChoice.png","","","","","","","","","",""
"image-keyboard-response","312","699088","0.0-3.0-6.0-1.0-2.58","653166fa42afa6ecf4fc73c4","6662009ae78f21dd82fcd179","66620a4e0eda9a70e4593888","null","","null","","","","","","","","./tasks/HMM-beads/Images/WhiteBeadChoiceCorrect.png","","","","","","","","","",""
"image-keyboard-response","313","699621","0.0-3.0-6.0-1.0-0.59","653166fa42afa6ecf4fc73c4","6662009ae78f21dd82fcd179","66620a4e0eda9a70e4593888","531","","j","","","","","","","","./tasks/HMM-beads/Images/NewTrialWC.png","lowH","1","59","1","0","1","1","false","",""
"image-keyboard-response","314","699931","0.0-3.0-6.0-1.0-1.59","653166fa42afa6ecf4fc73c4","6662009ae78f21dd82fcd179","66620a4e0eda9a70e4593888","null","","null","","","","","","","","./tasks/HMM-beads/Images/WhiteBeadChoice.png","","","","","","","","","",""
"image-keyboard-response","315","700445","0.0-3.0-6.0-1.0-2.59","653166fa42afa6ecf4fc73c4","6662009ae78f21dd82fcd179","66620a4e0eda9a70e4593888","null","","null","","","","","","","","./tasks/HMM-beads/Images/WhiteBeadChoiceWrong.png","","","","","","","","","",""
"image-keyboard-response","316","701021","0.0-3.0-6.0-1.0-0.60","653166fa42afa6ecf4fc73c4","6662009ae78f21dd82fcd179","66620a4e0eda9a70e4593888","574","","f","","","","","","","","./tasks/HMM-beads/Images/NewTrialBC.png","lowH","1","60","1","1","0","0","false","",""
"image-keyboard-response","317","701331","0.0-3.0-6.0-1.0-1.60","653166fa42afa6ecf4fc73c4","6662009ae78f21dd82fcd179","66620a4e0eda9a70e4593888","null","","null","","","","","","","","./tasks/HMM-beads/Images/BlackBeadChoice.png","","","","","","","","","",""
"image-keyboard-response","318","701848","0.0-3.0-6.0-1.0-2.60","653166fa42afa6ecf4fc73c4","6662009ae78f21dd82fcd179","66620a4e0eda9a70e4593888","null","","null","","","","","","","","./tasks/HMM-beads/Images/BlackBeadChoiceWrong.png","","","","","","","","","",""
"image-keyboard-response","319","702613","0.0-3.0-6.0-1.0-0.61","653166fa42afa6ecf4fc73c4","6662009ae78f21dd82fcd179","66620a4e0eda9a70e4593888","763","","j","","","","","","","","./tasks/HMM-beads/Images/NewTrialWC.png","lowH","1","61","1","1","1","1","true","",""
"image-keyboard-response","320","702929","0.0-3.0-6.0-1.0-1.61","653166fa42afa6ecf4fc73c4","6662009ae78f21dd82fcd179","66620a4e0eda9a70e4593888","null","","null","","","","","","","","./tasks/HMM-beads/Images/WhiteBeadChoice.png","","","","","","","","","",""
"image-keyboard-response","321","703446","0.0-3.0-6.0-1.0-2.61","653166fa42afa6ecf4fc73c4","6662009ae78f21dd82fcd179","66620a4e0eda9a70e4593888","null","","null","","","","","","","","./tasks/HMM-beads/Images/WhiteBeadChoiceCorrect.png","","","","","","","","","",""
"image-keyboard-response","322","703893","0.0-3.0-6.0-1.0-0.62","653166fa42afa6ecf4fc73c4","6662009ae78f21dd82fcd179","66620a4e0eda9a70e4593888","446","","j","","","","","","","","./tasks/HMM-beads/Images/NewTrialWC.png","lowH","1","62","1","0","1","1","false","",""
"image-keyboard-response","323","704196","0.0-3.0-6.0-1.0-1.62","653166fa42afa6ecf4fc73c4","6662009ae78f21dd82fcd179","66620a4e0eda9a70e4593888","null","","null","","","","","","","","./tasks/HMM-beads/Images/WhiteBeadChoice.png","","","","","","","","","",""
"image-keyboard-response","324","704697","0.0-3.0-6.0-1.0-2.62","653166fa42afa6ecf4fc73c4","6662009ae78f21dd82fcd179","66620a4e0eda9a70e4593888","null","","null","","","","","","","","./tasks/HMM-beads/Images/WhiteBeadChoiceWrong.png","","","","","","","","","",""
"image-keyboard-response","325","705197","0.0-3.0-6.0-1.0-0.63","653166fa42afa6ecf4fc73c4","6662009ae78f21dd82fcd179","66620a4e0eda9a70e4593888","499","","f","","","","","","","","./tasks/HMM-beads/Images/NewTrialBC.png","lowH","1","63","1","1","0","0","false","",""
"image-keyboard-response","326","705508","0.0-3.0-6.0-1.0-1.63","653166fa42afa6ecf4fc73c4","6662009ae78f21dd82fcd179","66620a4e0eda9a70e4593888","null","","null","","","","","","","","./tasks/HMM-beads/Images/BlackBeadChoice.png","","","","","","","","","",""
"image-keyboard-response","327","706023","0.0-3.0-6.0-1.0-2.63","653166fa42afa6ecf4fc73c4","6662009ae78f21dd82fcd179","66620a4e0eda9a70e4593888","null","","null","","","","","","","","./tasks/HMM-beads/Images/BlackBeadChoiceWrong.png","","","","","","","","","",""
"image-keyboard-response","328","706661","0.0-3.0-6.0-1.0-0.64","653166fa42afa6ecf4fc73c4","6662009ae78f21dd82fcd179","66620a4e0eda9a70e4593888","637","","j","","","","","","","","./tasks/HMM-beads/Images/NewTrialWC.png","lowH","1","64","1","1","1","1","true","",""
"image-keyboard-response","329","706972","0.0-3.0-6.0-1.0-1.64","653166fa42afa6ecf4fc73c4","6662009ae78f21dd82fcd179","66620a4e0eda9a70e4593888","null","","null","","","","","","","","./tasks/HMM-beads/Images/WhiteBeadChoice.png","","","","","","","","","",""
"image-keyboard-response","330","707489","0.0-3.0-6.0-1.0-2.64","653166fa42afa6ecf4fc73c4","6662009ae78f21dd82fcd179","66620a4e0eda9a70e4593888","null","","null","","","","","","","","./tasks/HMM-beads/Images/WhiteBeadChoiceCorrect.png","","","","","","","","","",""
"image-keyboard-response","331","708253","0.0-3.0-6.0-1.0-0.65","653166fa42afa6ecf4fc73c4","6662009ae78f21dd82fcd179","66620a4e0eda9a70e4593888","762","","j","","","","","","","","./tasks/HMM-beads/Images/NewTrialWC.png","lowH","1","65","1","1","1","1","true","",""
"image-keyboard-response","332","708564","0.0-3.0-6.0-1.0-1.65","653166fa42afa6ecf4fc73c4","6662009ae78f21dd82fcd179","66620a4e0eda9a70e4593888","null","","null","","","","","","","","./tasks/HMM-beads/Images/WhiteBeadChoice.png","","","","","","","","","",""
"image-keyboard-response","333","709079","0.0-3.0-6.0-1.0-2.65","653166fa42afa6ecf4fc73c4","6662009ae78f21dd82fcd179","66620a4e0eda9a70e4593888","null","","null","","","","","","","","./tasks/HMM-beads/Images/WhiteBeadChoiceCorrect.png","","","","","","","","","",""
"image-keyboard-response","334","709485","0.0-3.0-6.0-1.0-0.66","653166fa42afa6ecf4fc73c4","6662009ae78f21dd82fcd179","66620a4e0eda9a70e4593888","404","","j","","","","","","","","./tasks/HMM-beads/Images/NewTrialWC.png","lowH","1","66","1","1","1","1","true","",""
"image-keyboard-response","335","709793","0.0-3.0-6.0-1.0-1.66","653166fa42afa6ecf4fc73c4","6662009ae78f21dd82fcd179","66620a4e0eda9a70e4593888","null","","null","","","","","","","","./tasks/HMM-beads/Images/WhiteBeadChoice.png","","","","","","","","","",""
"image-keyboard-response","336","710305","0.0-3.0-6.0-1.0-2.66","653166fa42afa6ecf4fc73c4","6662009ae78f21dd82fcd179","66620a4e0eda9a70e4593888","null","","null","","","","","","","","./tasks/HMM-beads/Images/WhiteBeadChoiceCorrect.png","","","","","","","","","",""
"image-keyboard-response","337","710677","0.0-3.0-6.0-1.0-0.67","653166fa42afa6ecf4fc73c4","6662009ae78f21dd82fcd179","66620a4e0eda9a70e4593888","370","","j","","","","","","","","./tasks/HMM-beads/Images/NewTrialWC.png","lowH","1","67","1","0","1","1","false","",""
"image-keyboard-response","338","710993","0.0-3.0-6.0-1.0-1.67","653166fa42afa6ecf4fc73c4","6662009ae78f21dd82fcd179","66620a4e0eda9a70e4593888","null","","null","","","","","","","","./tasks/HMM-beads/Images/WhiteBeadChoice.png","","","","","","","","","",""
"image-keyboard-response","339","711504","0.0-3.0-6.0-1.0-2.67","653166fa42afa6ecf4fc73c4","6662009ae78f21dd82fcd179","66620a4e0eda9a70e4593888","null","","null","","","","","","","","./tasks/HMM-beads/Images/WhiteBeadChoiceWrong.png","","","","","","","","","",""
"image-keyboard-response","340","712300","0.0-3.0-6.0-1.0-0.68","653166fa42afa6ecf4fc73c4","6662009ae78f21dd82fcd179","66620a4e0eda9a70e4593888","795","","j","","","","","","","","./tasks/HMM-beads/Images/NewTrialBC.png","lowH","1","68","1","1","0","1","true","",""
"image-keyboard-response","341","712613","0.0-3.0-6.0-1.0-1.68","653166fa42afa6ecf4fc73c4","6662009ae78f21dd82fcd179","66620a4e0eda9a70e4593888","null","","null","","","","","","","","./tasks/HMM-beads/Images/WhiteBeadChoice.png","","","","","","","","","",""
"image-keyboard-response","342","713128","0.0-3.0-6.0-1.0-2.68","653166fa42afa6ecf4fc73c4","6662009ae78f21dd82fcd179","66620a4e0eda9a70e4593888","null","","null","","","","","","","","./tasks/HMM-beads/Images/WhiteBeadChoiceCorrect.png","","","","","","","","","",""
"image-keyboard-response","343","713637","0.0-3.0-6.0-1.0-0.69","653166fa42afa6ecf4fc73c4","6662009ae78f21dd82fcd179","66620a4e0eda9a70e4593888","507","","j","","","","","","","","./tasks/HMM-beads/Images/NewTrialWC.png","lowH","1","69","0","1","1","1","true","",""
"image-keyboard-response","344","713943","0.0-3.0-6.0-1.0-1.69","653166fa42afa6ecf4fc73c4","6662009ae78f21dd82fcd179","66620a4e0eda9a70e4593888","null","","null","","","","","","","","./tasks/HMM-beads/Images/WhiteBeadChoice.png","","","","","","","","","",""
"image-keyboard-response","345","714457","0.0-3.0-6.0-1.0-2.69","653166fa42afa6ecf4fc73c4","6662009ae78f21dd82fcd179","66620a4e0eda9a70e4593888","null","","null","","","","","","","","./tasks/HMM-beads/Images/WhiteBeadChoiceCorrect.png","","","","","","","","","",""
"image-keyboard-response","346","714931","0.0-3.0-6.0-1.0-0.70","653166fa42afa6ecf4fc73c4","6662009ae78f21dd82fcd179","66620a4e0eda9a70e4593888","473","","j","","","","","","","","./tasks/HMM-beads/Images/NewTrialWC.png","lowH","1","70","0","1","1","1","true","",""
"image-keyboard-response","347","715237","0.0-3.0-6.0-1.0-1.70","653166fa42afa6ecf4fc73c4","6662009ae78f21dd82fcd179","66620a4e0eda9a70e4593888","null","","null","","","","","","","","./tasks/HMM-beads/Images/WhiteBeadChoice.png","","","","","","","","","",""
"image-keyboard-response","348","715751","0.0-3.0-6.0-1.0-2.70","653166fa42afa6ecf4fc73c4","6662009ae78f21dd82fcd179","66620a4e0eda9a70e4593888","null","","null","","","","","","","","./tasks/HMM-beads/Images/WhiteBeadChoiceCorrect.png","","","","","","","","","",""
"image-keyboard-response","349","716203","0.0-3.0-6.0-1.0-0.71","653166fa42afa6ecf4fc73c4","6662009ae78f21dd82fcd179","66620a4e0eda9a70e4593888","452","","j","","","","","","","","./tasks/HMM-beads/Images/NewTrialWC.png","lowH","1","71","0","0","1","1","false","",""
"image-keyboard-response","350","716514","0.0-3.0-6.0-1.0-1.71","653166fa42afa6ecf4fc73c4","6662009ae78f21dd82fcd179","66620a4e0eda9a70e4593888","null","","null","","","","","","","","./tasks/HMM-beads/Images/WhiteBeadChoice.png","","","","","","","","","",""
"image-keyboard-response","351","717016","0.0-3.0-6.0-1.0-2.71","653166fa42afa6ecf4fc73c4","6662009ae78f21dd82fcd179","66620a4e0eda9a70e4593888","null","","null","","","","","","","","./tasks/HMM-beads/Images/WhiteBeadChoiceWrong.png","","","","","","","","","",""
"image-keyboard-response","352","717429","0.0-3.0-6.0-1.0-0.72","653166fa42afa6ecf4fc73c4","6662009ae78f21dd82fcd179","66620a4e0eda9a70e4593888","412","","j","","","","","","","","./tasks/HMM-beads/Images/NewTrialBC.png","lowH","1","72","0","0","0","1","false","",""
"image-keyboard-response","353","717733","0.0-3.0-6.0-1.0-1.72","653166fa42afa6ecf4fc73c4","6662009ae78f21dd82fcd179","66620a4e0eda9a70e4593888","null","","null","","","","","","","","./tasks/HMM-beads/Images/WhiteBeadChoice.png","","","","","","","","","",""
"image-keyboard-response","354","718235","0.0-3.0-6.0-1.0-2.72","653166fa42afa6ecf4fc73c4","6662009ae78f21dd82fcd179","66620a4e0eda9a70e4593888","null","","null","","","","","","","","./tasks/HMM-beads/Images/WhiteBeadChoiceWrong.png","","","","","","","","","",""
"image-keyboard-response","355","718445","0.0-3.0-6.0-1.0-0.73","653166fa42afa6ecf4fc73c4","6662009ae78f21dd82fcd179","66620a4e0eda9a70e4593888","209","","j","","","","","","","","./tasks/HMM-beads/Images/NewTrialBC.png","lowH","1","73","0","1","0","1","true","",""
"image-keyboard-response","356","718752","0.0-3.0-6.0-1.0-1.73","653166fa42afa6ecf4fc73c4","6662009ae78f21dd82fcd179","66620a4e0eda9a70e4593888","null","","null","","","","","","","","./tasks/HMM-beads/Images/WhiteBeadChoice.png","","","","","","","","","",""
"image-keyboard-response","357","719267","0.0-3.0-6.0-1.0-2.73","653166fa42afa6ecf4fc73c4","6662009ae78f21dd82fcd179","66620a4e0eda9a70e4593888","null","","null","","","","","","","","./tasks/HMM-beads/Images/WhiteBeadChoiceCorrect.png","","","","","","","","","",""
"image-keyboard-response","358","719661","0.0-3.0-6.0-1.0-0.74","653166fa42afa6ecf4fc73c4","6662009ae78f21dd82fcd179","66620a4e0eda9a70e4593888","393","","j","","","","","","","","./tasks/HMM-beads/Images/NewTrialWC.png","lowH","1","74","0","0","1","1","false","",""
"image-keyboard-response","359","719971","0.0-3.0-6.0-1.0-1.74","653166fa42afa6ecf4fc73c4","6662009ae78f21dd82fcd179","66620a4e0eda9a70e4593888","null","","null","","","","","","","","./tasks/HMM-beads/Images/WhiteBeadChoice.png","","","","","","","","","",""
"image-keyboard-response","360","720487","0.0-3.0-6.0-1.0-2.74","653166fa42afa6ecf4fc73c4","6662009ae78f21dd82fcd179","66620a4e0eda9a70e4593888","null","","null","","","","","","","","./tasks/HMM-beads/Images/WhiteBeadChoiceWrong.png","","","","","","","","","",""
"image-keyboard-response","361","721165","0.0-3.0-6.0-1.0-0.75","653166fa42afa6ecf4fc73c4","6662009ae78f21dd82fcd179","66620a4e0eda9a70e4593888","676","","j","","","","","","","","./tasks/HMM-beads/Images/NewTrialBC.png","lowH","1","75","0","1","0","1","true","",""
"image-keyboard-response","362","721468","0.0-3.0-6.0-1.0-1.75","653166fa42afa6ecf4fc73c4","6662009ae78f21dd82fcd179","66620a4e0eda9a70e4593888","null","","null","","","","","","","","./tasks/HMM-beads/Images/WhiteBeadChoice.png","","","","","","","","","",""
"image-keyboard-response","363","721981","0.0-3.0-6.0-1.0-2.75","653166fa42afa6ecf4fc73c4","6662009ae78f21dd82fcd179","66620a4e0eda9a70e4593888","null","","null","","","","","","","","./tasks/HMM-beads/Images/WhiteBeadChoiceCorrect.png","","","","","","","","","",""
"image-keyboard-response","364","722269","0.0-3.0-6.0-1.0-0.76","653166fa42afa6ecf4fc73c4","6662009ae78f21dd82fcd179","66620a4e0eda9a70e4593888","287","","j","","","","","","","","./tasks/HMM-beads/Images/NewTrialWC.png","lowH","1","76","0","1","1","1","true","",""
"image-keyboard-response","365","722572","0.0-3.0-6.0-1.0-1.76","653166fa42afa6ecf4fc73c4","6662009ae78f21dd82fcd179","66620a4e0eda9a70e4593888","null","","null","","","","","","","","./tasks/HMM-beads/Images/WhiteBeadChoice.png","","","","","","","","","",""
"image-keyboard-response","366","723085","0.0-3.0-6.0-1.0-2.76","653166fa42afa6ecf4fc73c4","6662009ae78f21dd82fcd179","66620a4e0eda9a70e4593888","null","","null","","","","","","","","./tasks/HMM-beads/Images/WhiteBeadChoiceCorrect.png","","","","","","","","","",""
"image-keyboard-response","367","723397","0.0-3.0-6.0-1.0-0.77","653166fa42afa6ecf4fc73c4","6662009ae78f21dd82fcd179","66620a4e0eda9a70e4593888","311","","j","","","","","","","","./tasks/HMM-beads/Images/NewTrialWC.png","lowH","1","77","0","0","1","1","false","",""
"image-keyboard-response","368","723709","0.0-3.0-6.0-1.0-1.77","653166fa42afa6ecf4fc73c4","6662009ae78f21dd82fcd179","66620a4e0eda9a70e4593888","null","","null","","","","","","","","./tasks/HMM-beads/Images/WhiteBeadChoice.png","","","","","","","","","",""
"image-keyboard-response","369","724223","0.0-3.0-6.0-1.0-2.77","653166fa42afa6ecf4fc73c4","6662009ae78f21dd82fcd179","66620a4e0eda9a70e4593888","null","","null","","","","","","","","./tasks/HMM-beads/Images/WhiteBeadChoiceWrong.png","","","","","","","","","",""
"image-keyboard-response","370","726764","0.0-3.0-6.0-1.0-0.78","653166fa42afa6ecf4fc73c4","6662009ae78f21dd82fcd179","66620a4e0eda9a70e4593888","2540","","j","","","","","","","","./tasks/HMM-beads/Images/NewTrialBC.png","lowH","1","78","0","0","0","1","false","",""
"image-keyboard-response","371","727075","0.0-3.0-6.0-1.0-1.78","653166fa42afa6ecf4fc73c4","6662009ae78f21dd82fcd179","66620a4e0eda9a70e4593888","null","","null","","","","","","","","./tasks/HMM-beads/Images/WhiteBeadChoice.png","","","","","","","","","",""
"image-keyboard-response","372","727590","0.0-3.0-6.0-1.0-2.78","653166fa42afa6ecf4fc73c4","6662009ae78f21dd82fcd179","66620a4e0eda9a70e4593888","null","","null","","","","","","","","./tasks/HMM-beads/Images/WhiteBeadChoiceWrong.png","","","","","","","","","",""
"image-keyboard-response","373","727685","0.0-3.0-6.0-1.0-0.79","653166fa42afa6ecf4fc73c4","6662009ae78f21dd82fcd179","66620a4e0eda9a70e4593888","93","","j","","","","","","","","./tasks/HMM-beads/Images/NewTrialBC.png","lowH","1","79","0","0","0","1","false","",""
