"trial_type","trial_index","time_elapsed","internal_node_id","subject_id","study_id","session_id","rt","url","response","question_order","view_history","success","timeout","failed_images","failed_audio","failed_video","stimulus","block","block_rep","trial_number","jar","bead","previous_bead","choice","correct","lowH_score","total_bonus"
"pavlovia","0","1126","0.0-0.0","63dc047be4fc60aacae88fbe","6662009ae78f21dd82fcd179","6662038fe4bde838531ff44b","","","","","","","","","","","","","","","","","","","","",""
"external-html","1","15764","0.0-1.0-0.0","63dc047be4fc60aacae88fbe","6662009ae78f21dd82fcd179","6662038fe4bde838531ff44b","14492","new_consent.html","","","","","","","","","","","","","","","","","","",""
"survey-multi-choice","2","21211","0.0-1.0-1.0","63dc047be4fc60aacae88fbe","6662009ae78f21dd82fcd179","6662038fe4bde838531ff44b","5445","","{""Q0"":""Male"",""Q1"":""White""}","[0,1]","","","","","","","","","","","","","","","","",""
"survey-text","3","24513","0.0-1.0-2.0","63dc047be4fc60aacae88fbe","6662009ae78f21dd82fcd179","6662038fe4bde838531ff44b","3295","","{""Q0"":""24""}","","","","","","","","","","","","","","","","","",""
"instructions","4","26730","0.0-2.0","63dc047be4fc60aacae88fbe","6662009ae78f21dd82fcd179","6662038fe4bde838531ff44b","2115","","","","[{""page_index"":0,""viewing_time"":2115}]","","","","","","","","","","","","","","","",""
"preload","5","31751","0.0-3.0-0.0","63dc047be4fc60aacae88fbe","6662009ae78f21dd82fcd179","6662038fe4bde838531ff44b","","","","","","true","false","[]","[]","[]","","","","","","","","","","",""
"instructions","6","124227","0.0-3.0-1.0","63dc047be4fc60aacae88fbe","6662009ae78f21dd82fcd179","6662038fe4bde838531ff44b","92474","","","","[{""page_index"":0,""viewing_time"":10308},{""page_index"":1,""viewing_time"":8096},{""page_index"":2,""viewing_time"":5374},{""page_index"":3,""viewing_time"":3044},{""page_index"":4,""viewing_time"":14588},{""page_index"":5,""viewing_time"":21588},{""page_index"":6,""viewing_time"":6230},{""page_index"":7,""viewing_time"":4832},{""page_index"":8,""viewing_time"":3314},{""page_index"":9,""viewing_time"":4180},{""page_index"":10,""viewing_time"":8838},{""page_index"":11,""viewing_time"":2082}]","","","","","","","","","","","","","","","",""
"html-button-response","7","127111","0.0-3.0-2.0-0.0-0.0","63dc047be4fc60aacae88fbe","6662009ae78f21dd82fcd179","6662038fe4bde838531ff44b","2883","","1","","","","","","","","<div align=center>Your goal is to predict…?<br><br></div>","","","","","","","","","",""
"html-button-response","8","133699","0.0-3.0-2.0-1.0-0.0","63dc047be4fc60aacae88fbe","6662009ae78f21dd82fcd179","6662038fe4bde838531ff44b","4965","","2","","","","","","","","<div align=center>In the jar with mostly white beads, there are ___% white beads and ___% black beads?<br><br></div>","","","","","","","","","",""
"html-button-response","9","141927","0.0-3.0-2.0-2.0-0.0","63dc047be4fc60aacae88fbe","6662009ae78f21dd82fcd179","6662038fe4bde838531ff44b","6901","","0","","","","","","","","<div align=center>When there is a 1% probability that the jars will switch, the next bead will most likely be drawn from the…<br><br></div>","","","","","","","","","",""
"html-button-response","10","145691","0.0-3.0-2.0-3.0-0.0","63dc047be4fc60aacae88fbe","6662009ae78f21dd82fcd179","6662038fe4bde838531ff44b","2495","","1","","","","","","","","<div align=center>When there is a 99% probability that the jars will switch, the next bead will most likely be drawn from the…<br><br></div>","","","","","","","","","",""
"instructions","11","156029","0.0-3.0-3.0","63dc047be4fc60aacae88fbe","6662009ae78f21dd82fcd179","6662038fe4bde838531ff44b","9251","","","","[{""page_index"":0,""viewing_time"":9251}]","","","","","","","","","","","","","","","",""
"html-keyboard-response","12","165092","0.0-3.0-4.0-0.0","63dc047be4fc60aacae88fbe","6662009ae78f21dd82fcd179","6662038fe4bde838531ff44b","9063",""," ","","","","","","","","<div align=center>In this practice block, there will be a <b>1% chance</b> that the jar on the next trial will be different from the jar on the current trial.<br><br></div>","","","","","","","","","",""
"image-keyboard-response","13","168216","0.0-3.0-4.0-1.0-0.0","63dc047be4fc60aacae88fbe","6662009ae78f21dd82fcd179","6662038fe4bde838531ff44b","3120","","f","","","","","","","","./tasks/HMM-beads/Images/NoChoice.png","practice","0","0","0","0","9","0","true","",""
"image-keyboard-response","14","168521","0.0-3.0-4.0-1.0-1.0","63dc047be4fc60aacae88fbe","6662009ae78f21dd82fcd179","6662038fe4bde838531ff44b","null","","null","","","","","","","","./tasks/HMM-beads/Images/BlackBeadChoice.png","","","","","","","","","",""
"image-keyboard-response","15","169033","0.0-3.0-4.0-1.0-2.0","63dc047be4fc60aacae88fbe","6662009ae78f21dd82fcd179","6662038fe4bde838531ff44b","null","","null","","","","","","","","./tasks/HMM-beads/Images/BlackBeadChoiceCorrect.png","","","","","","","","","",""
"image-keyboard-response","16","170888","0.0-3.0-4.0-1.0-0.1","63dc047be4fc60aacae88fbe","6662009ae78f21dd82fcd179","6662038fe4bde838531ff44b","1854","","f","","","","","","","","./tasks/HMM-beads/Images/NewTrialBC.png","practice","0","1","0","0","0","0","true","",""
"image-keyboard-response","17","171204","0.0-3.0-4.0-1.0-1.1","63dc047be4fc60aacae88fbe","6662009ae78f21dd82fcd179","6662038fe4bde838531ff44b","null","","null","","","","","","","","./tasks/HMM-beads/Images/BlackBeadChoice.png","","","","","","","","","",""
"image-keyboard-response","18","171720","0.0-3.0-4.0-1.0-2.1","63dc047be4fc60aacae88fbe","6662009ae78f21dd82fcd179","6662038fe4bde838531ff44b","null","","null","","","","","","","","./tasks/HMM-beads/Images/BlackBeadChoiceCorrect.png","","","","","","","","","",""
"image-keyboard-response","19","172634","0.0-3.0-4.0-1.0-0.2","63dc047be4fc60aacae88fbe","6662009ae78f21dd82fcd179","6662038fe4bde838531ff44b","913","","f","","","","","","","","./tasks/HMM-beads/Images/NewTrialBC.png","practice","0","2","0","1","0","0","false","",""
"image-keyboard-response","20","172945","0.0-3.0-4.0-1.0-1.2","63dc047be4fc60aacae88fbe","6662009ae78f21dd82fcd179","6662038fe4bde838531ff44b","null","","null","","","","","","","","./tasks/HMM-beads/Images/BlackBeadChoice.png","","","","","","","","","",""
"image-keyboard-response","21","173454","0.0-3.0-4.0-1.0-2.2","63dc047be4fc60aacae88fbe","6662009ae78f21dd82fcd179","6662038fe4bde838531ff44b","null","","null","","","","","","","","./tasks/HMM-beads/Images/BlackBeadChoiceWrong.png","","","","","","","","","",""
"image-keyboard-response","22","174313","0.0-3.0-4.0-1.0-0.3","63dc047be4fc60aacae88fbe","6662009ae78f21dd82fcd179","6662038fe4bde838531ff44b","858","","f","","","","","","","","./tasks/HMM-beads/Images/NewTrialWC.png","practice","0","3","0","0","1","0","true","",""
"image-keyboard-response","23","174616","0.0-3.0-4.0-1.0-1.3","63dc047be4fc60aacae88fbe","6662009ae78f21dd82fcd179","6662038fe4bde838531ff44b","null","","null","","","","","","","","./tasks/HMM-beads/Images/BlackBeadChoice.png","","","","","","","","","",""
"image-keyboard-response","24","175119","0.0-3.0-4.0-1.0-2.3","63dc047be4fc60aacae88fbe","6662009ae78f21dd82fcd179","6662038fe4bde838531ff44b","null","","null","","","","","","","","./tasks/HMM-beads/Images/BlackBeadChoiceCorrect.png","","","","","","","","","",""
"image-keyboard-response","25","175879","0.0-3.0-4.0-1.0-0.4","63dc047be4fc60aacae88fbe","6662009ae78f21dd82fcd179","6662038fe4bde838531ff44b","759","","f","","","","","","","","./tasks/HMM-beads/Images/NewTrialBC.png","practice","0","4","0","0","0","0","true","",""
"image-keyboard-response","26","176183","0.0-3.0-4.0-1.0-1.4","63dc047be4fc60aacae88fbe","6662009ae78f21dd82fcd179","6662038fe4bde838531ff44b","null","","null","","","","","","","","./tasks/HMM-beads/Images/BlackBeadChoice.png","","","","","","","","","",""
"image-keyboard-response","27","176688","0.0-3.0-4.0-1.0-2.4","63dc047be4fc60aacae88fbe","6662009ae78f21dd82fcd179","6662038fe4bde838531ff44b","null","","null","","","","","","","","./tasks/HMM-beads/Images/BlackBeadChoiceCorrect.png","","","","","","","","","",""
"image-keyboard-response","28","177386","0.0-3.0-4.0-1.0-0.5","63dc047be4fc60aacae88fbe","6662009ae78f21dd82fcd179","6662038fe4bde838531ff44b","696","","f","","","","","","","","./tasks/HMM-beads/Images/NewTrialBC.png","practice","0","5","0","1","0","0","false","",""
"image-keyboard-response","29","177687","0.0-3.0-4.0-1.0-1.5","63dc047be4fc60aacae88fbe","6662009ae78f21dd82fcd179","6662038fe4bde838531ff44b","null","","null","","","","","","","","./tasks/HMM-beads/Images/BlackBeadChoice.png","","","","","","","","","",""
"image-keyboard-response","30","178200","0.0-3.0-4.0-1.0-2.5","63dc047be4fc60aacae88fbe","6662009ae78f21dd82fcd179","6662038fe4bde838531ff44b","null","","null","","","","","","","","./tasks/HMM-beads/Images/BlackBeadChoiceWrong.png","","","","","","","","","",""
"image-keyboard-response","31","178883","0.0-3.0-4.0-1.0-0.6","63dc047be4fc60aacae88fbe","6662009ae78f21dd82fcd179","6662038fe4bde838531ff44b","682","","f","","","","","","","","./tasks/HMM-beads/Images/NewTrialWC.png","practice","0","6","0","0","1","0","true","",""
"image-keyboard-response","32","179194","0.0-3.0-4.0-1.0-1.6","63dc047be4fc60aacae88fbe","6662009ae78f21dd82fcd179","6662038fe4bde838531ff44b","null","","null","","","","","","","","./tasks/HMM-beads/Images/BlackBeadChoice.png","","","","","","","","","",""
"image-keyboard-response","33","179703","0.0-3.0-4.0-1.0-2.6","63dc047be4fc60aacae88fbe","6662009ae78f21dd82fcd179","6662038fe4bde838531ff44b","null","","null","","","","","","","","./tasks/HMM-beads/Images/BlackBeadChoiceCorrect.png","","","","","","","","","",""
"image-keyboard-response","34","180254","0.0-3.0-4.0-1.0-0.7","63dc047be4fc60aacae88fbe","6662009ae78f21dd82fcd179","6662038fe4bde838531ff44b","550","","f","","","","","","","","./tasks/HMM-beads/Images/NewTrialBC.png","practice","0","7","0","0","0","0","true","",""
"image-keyboard-response","35","180556","0.0-3.0-4.0-1.0-1.7","63dc047be4fc60aacae88fbe","6662009ae78f21dd82fcd179","6662038fe4bde838531ff44b","null","","null","","","","","","","","./tasks/HMM-beads/Images/BlackBeadChoice.png","","","","","","","","","",""
"image-keyboard-response","36","181067","0.0-3.0-4.0-1.0-2.7","63dc047be4fc60aacae88fbe","6662009ae78f21dd82fcd179","6662038fe4bde838531ff44b","null","","null","","","","","","","","./tasks/HMM-beads/Images/BlackBeadChoiceCorrect.png","","","","","","","","","",""
"image-keyboard-response","37","181615","0.0-3.0-4.0-1.0-0.8","63dc047be4fc60aacae88fbe","6662009ae78f21dd82fcd179","6662038fe4bde838531ff44b","546","","f","","","","","","","","./tasks/HMM-beads/Images/NewTrialBC.png","practice","0","8","0","0","0","0","true","",""
"image-keyboard-response","38","181916","0.0-3.0-4.0-1.0-1.8","63dc047be4fc60aacae88fbe","6662009ae78f21dd82fcd179","6662038fe4bde838531ff44b","null","","null","","","","","","","","./tasks/HMM-beads/Images/BlackBeadChoice.png","","","","","","","","","",""
"image-keyboard-response","39","182431","0.0-3.0-4.0-1.0-2.8","63dc047be4fc60aacae88fbe","6662009ae78f21dd82fcd179","6662038fe4bde838531ff44b","null","","null","","","","","","","","./tasks/HMM-beads/Images/BlackBeadChoiceCorrect.png","","","","","","","","","",""
"image-keyboard-response","40","182971","0.0-3.0-4.0-1.0-0.9","63dc047be4fc60aacae88fbe","6662009ae78f21dd82fcd179","6662038fe4bde838531ff44b","536","","f","","","","","","","","./tasks/HMM-beads/Images/NewTrialBC.png","practice","0","9","0","1","0","0","false","",""
"image-keyboard-response","41","183275","0.0-3.0-4.0-1.0-1.9","63dc047be4fc60aacae88fbe","6662009ae78f21dd82fcd179","6662038fe4bde838531ff44b","null","","null","","","","","","","","./tasks/HMM-beads/Images/BlackBeadChoice.png","","","","","","","","","",""
"image-keyboard-response","42","183789","0.0-3.0-4.0-1.0-2.9","63dc047be4fc60aacae88fbe","6662009ae78f21dd82fcd179","6662038fe4bde838531ff44b","null","","null","","","","","","","","./tasks/HMM-beads/Images/BlackBeadChoiceWrong.png","","","","","","","","","",""
"image-keyboard-response","43","184348","0.0-3.0-4.0-1.0-0.10","63dc047be4fc60aacae88fbe","6662009ae78f21dd82fcd179","6662038fe4bde838531ff44b","558","","f","","","","","","","","./tasks/HMM-beads/Images/NewTrialWC.png","practice","0","10","0","0","1","0","true","",""
"image-keyboard-response","44","184663","0.0-3.0-4.0-1.0-1.10","63dc047be4fc60aacae88fbe","6662009ae78f21dd82fcd179","6662038fe4bde838531ff44b","null","","null","","","","","","","","./tasks/HMM-beads/Images/BlackBeadChoice.png","","","","","","","","","",""
"image-keyboard-response","45","185173","0.0-3.0-4.0-1.0-2.10","63dc047be4fc60aacae88fbe","6662009ae78f21dd82fcd179","6662038fe4bde838531ff44b","null","","null","","","","","","","","./tasks/HMM-beads/Images/BlackBeadChoiceCorrect.png","","","","","","","","","",""
"image-keyboard-response","46","185726","0.0-3.0-4.0-1.0-0.11","63dc047be4fc60aacae88fbe","6662009ae78f21dd82fcd179","6662038fe4bde838531ff44b","551","","f","","","","","","","","./tasks/HMM-beads/Images/NewTrialBC.png","practice","0","11","0","1","0","0","false","",""
"image-keyboard-response","47","186032","0.0-3.0-4.0-1.0-1.11","63dc047be4fc60aacae88fbe","6662009ae78f21dd82fcd179","6662038fe4bde838531ff44b","null","","null","","","","","","","","./tasks/HMM-beads/Images/BlackBeadChoice.png","","","","","","","","","",""
"image-keyboard-response","48","186549","0.0-3.0-4.0-1.0-2.11","63dc047be4fc60aacae88fbe","6662009ae78f21dd82fcd179","6662038fe4bde838531ff44b","null","","null","","","","","","","","./tasks/HMM-beads/Images/BlackBeadChoiceWrong.png","","","","","","","","","",""
"image-keyboard-response","49","187038","0.0-3.0-4.0-1.0-0.12","63dc047be4fc60aacae88fbe","6662009ae78f21dd82fcd179","6662038fe4bde838531ff44b","488","","f","","","","","","","","./tasks/HMM-beads/Images/NewTrialWC.png","practice","0","12","0","0","1","0","true","",""
"image-keyboard-response","50","187342","0.0-3.0-4.0-1.0-1.12","63dc047be4fc60aacae88fbe","6662009ae78f21dd82fcd179","6662038fe4bde838531ff44b","null","","null","","","","","","","","./tasks/HMM-beads/Images/BlackBeadChoice.png","","","","","","","","","",""
"image-keyboard-response","51","187845","0.0-3.0-4.0-1.0-2.12","63dc047be4fc60aacae88fbe","6662009ae78f21dd82fcd179","6662038fe4bde838531ff44b","null","","null","","","","","","","","./tasks/HMM-beads/Images/BlackBeadChoiceCorrect.png","","","","","","","","","",""
"image-keyboard-response","52","188307","0.0-3.0-4.0-1.0-0.13","63dc047be4fc60aacae88fbe","6662009ae78f21dd82fcd179","6662038fe4bde838531ff44b","461","","f","","","","","","","","./tasks/HMM-beads/Images/NewTrialBC.png","practice","0","13","0","0","0","0","true","",""
"image-keyboard-response","53","188621","0.0-3.0-4.0-1.0-1.13","63dc047be4fc60aacae88fbe","6662009ae78f21dd82fcd179","6662038fe4bde838531ff44b","null","","null","","","","","","","","./tasks/HMM-beads/Images/BlackBeadChoice.png","","","","","","","","","",""
"image-keyboard-response","54","189135","0.0-3.0-4.0-1.0-2.13","63dc047be4fc60aacae88fbe","6662009ae78f21dd82fcd179","6662038fe4bde838531ff44b","null","","null","","","","","","","","./tasks/HMM-beads/Images/BlackBeadChoiceCorrect.png","","","","","","","","","",""
"image-keyboard-response","55","189419","0.0-3.0-4.0-1.0-0.14","63dc047be4fc60aacae88fbe","6662009ae78f21dd82fcd179","6662038fe4bde838531ff44b","283","","f","","","","","","","","./tasks/HMM-beads/Images/NewTrialBC.png","practice","0","14","0","0","0","0","true","",""
"image-keyboard-response","56","189735","0.0-3.0-4.0-1.0-1.14","63dc047be4fc60aacae88fbe","6662009ae78f21dd82fcd179","6662038fe4bde838531ff44b","null","","null","","","","","","","","./tasks/HMM-beads/Images/BlackBeadChoice.png","","","","","","","","","",""
"image-keyboard-response","57","190241","0.0-3.0-4.0-1.0-2.14","63dc047be4fc60aacae88fbe","6662009ae78f21dd82fcd179","6662038fe4bde838531ff44b","null","","null","","","","","","","","./tasks/HMM-beads/Images/BlackBeadChoiceCorrect.png","","","","","","","","","",""
"image-keyboard-response","58","190259","0.0-3.0-4.0-1.0-0.15","63dc047be4fc60aacae88fbe","6662009ae78f21dd82fcd179","6662038fe4bde838531ff44b","17","","f","","","","","","","","./tasks/HMM-beads/Images/NewTrialBC.png","practice","0","15","0","0","0","0","true","",""
"image-keyboard-response","59","190571","0.0-3.0-4.0-1.0-1.15","63dc047be4fc60aacae88fbe","6662009ae78f21dd82fcd179","6662038fe4bde838531ff44b","null","","null","","","","","","","","./tasks/HMM-beads/Images/BlackBeadChoice.png","","","","","","","","","",""
"image-keyboard-response","60","191086","0.0-3.0-4.0-1.0-2.15","63dc047be4fc60aacae88fbe","6662009ae78f21dd82fcd179","6662038fe4bde838531ff44b","null","","null","","","","","","","","./tasks/HMM-beads/Images/BlackBeadChoiceCorrect.png","","","","","","","","","",""
"image-keyboard-response","61","191677","0.0-3.0-4.0-1.0-0.16","63dc047be4fc60aacae88fbe","6662009ae78f21dd82fcd179","6662038fe4bde838531ff44b","589","","f","","","","","","","","./tasks/HMM-beads/Images/NewTrialBC.png","practice","0","16","0","0","0","0","true","",""
"image-keyboard-response","62","191993","0.0-3.0-4.0-1.0-1.16","63dc047be4fc60aacae88fbe","6662009ae78f21dd82fcd179","6662038fe4bde838531ff44b","null","","null","","","","","","","","./tasks/HMM-beads/Images/BlackBeadChoice.png","","","","","","","","","",""
"image-keyboard-response","63","192507","0.0-3.0-4.0-1.0-2.16","63dc047be4fc60aacae88fbe","6662009ae78f21dd82fcd179","6662038fe4bde838531ff44b","null","","null","","","","","","","","./tasks/HMM-beads/Images/BlackBeadChoiceCorrect.png","","","","","","","","","",""
"image-keyboard-response","64","193305","0.0-3.0-4.0-1.0-0.17","63dc047be4fc60aacae88fbe","6662009ae78f21dd82fcd179","6662038fe4bde838531ff44b","796","","j","","","","","","","","./tasks/HMM-beads/Images/NewTrialBC.png","practice","0","17","0","0","0","1","false","",""
"image-keyboard-response","65","193617","0.0-3.0-4.0-1.0-1.17","63dc047be4fc60aacae88fbe","6662009ae78f21dd82fcd179","6662038fe4bde838531ff44b","null","","null","","","","","","","","./tasks/HMM-beads/Images/WhiteBeadChoice.png","","","","","","","","","",""
"image-keyboard-response","66","194122","0.0-3.0-4.0-1.0-2.17","63dc047be4fc60aacae88fbe","6662009ae78f21dd82fcd179","6662038fe4bde838531ff44b","null","","null","","","","","","","","./tasks/HMM-beads/Images/WhiteBeadChoiceWrong.png","","","","","","","","","",""
"image-keyboard-response","67","195010","0.0-3.0-4.0-1.0-0.18","63dc047be4fc60aacae88fbe","6662009ae78f21dd82fcd179","6662038fe4bde838531ff44b","887","","f","","","","","","","","./tasks/HMM-beads/Images/NewTrialBC.png","practice","0","18","0","1","0","0","false","",""
"image-keyboard-response","68","195323","0.0-3.0-4.0-1.0-1.18","63dc047be4fc60aacae88fbe","6662009ae78f21dd82fcd179","6662038fe4bde838531ff44b","null","","null","","","","","","","","./tasks/HMM-beads/Images/BlackBeadChoice.png","","","","","","","","","",""
"image-keyboard-response","69","195837","0.0-3.0-4.0-1.0-2.18","63dc047be4fc60aacae88fbe","6662009ae78f21dd82fcd179","6662038fe4bde838531ff44b","null","","null","","","","","","","","./tasks/HMM-beads/Images/BlackBeadChoiceWrong.png","","","","","","","","","",""
"image-keyboard-response","70","196486","0.0-3.0-4.0-1.0-0.19","63dc047be4fc60aacae88fbe","6662009ae78f21dd82fcd179","6662038fe4bde838531ff44b","648","","f","","","","","","","","./tasks/HMM-beads/Images/NewTrialWC.png","practice","0","19","0","0","1","0","true","",""
"image-keyboard-response","71","196803","0.0-3.0-4.0-1.0-1.19","63dc047be4fc60aacae88fbe","6662009ae78f21dd82fcd179","6662038fe4bde838531ff44b","null","","null","","","","","","","","./tasks/HMM-beads/Images/BlackBeadChoice.png","","","","","","","","","",""
"image-keyboard-response","72","197304","0.0-3.0-4.0-1.0-2.19","63dc047be4fc60aacae88fbe","6662009ae78f21dd82fcd179","6662038fe4bde838531ff44b","null","","null","","","","","","","","./tasks/HMM-beads/Images/BlackBeadChoiceCorrect.png","","","","","","","","","",""
"image-keyboard-response","73","197757","0.0-3.0-4.0-1.0-0.20","63dc047be4fc60aacae88fbe","6662009ae78f21dd82fcd179","6662038fe4bde838531ff44b","452","","f","","","","","","","","./tasks/HMM-beads/Images/NewTrialBC.png","practice","0","20","0","0","0","0","true","",""
"image-keyboard-response","74","198072","0.0-3.0-4.0-1.0-1.20","63dc047be4fc60aacae88fbe","6662009ae78f21dd82fcd179","6662038fe4bde838531ff44b","null","","null","","","","","","","","./tasks/HMM-beads/Images/BlackBeadChoice.png","","","","","","","","","",""
"image-keyboard-response","75","198585","0.0-3.0-4.0-1.0-2.20","63dc047be4fc60aacae88fbe","6662009ae78f21dd82fcd179","6662038fe4bde838531ff44b","null","","null","","","","","","","","./tasks/HMM-beads/Images/BlackBeadChoiceCorrect.png","","","","","","","","","",""
"image-keyboard-response","76","198882","0.0-3.0-4.0-1.0-0.21","63dc047be4fc60aacae88fbe","6662009ae78f21dd82fcd179","6662038fe4bde838531ff44b","296","","f","","","","","","","","./tasks/HMM-beads/Images/NewTrialBC.png","practice","0","21","0","1","0","0","false","",""
"image-keyboard-response","77","199183","0.0-3.0-4.0-1.0-1.21","63dc047be4fc60aacae88fbe","6662009ae78f21dd82fcd179","6662038fe4bde838531ff44b","null","","null","","","","","","","","./tasks/HMM-beads/Images/BlackBeadChoice.png","","","","","","","","","",""
"image-keyboard-response","78","199691","0.0-3.0-4.0-1.0-2.21","63dc047be4fc60aacae88fbe","6662009ae78f21dd82fcd179","6662038fe4bde838531ff44b","null","","null","","","","","","","","./tasks/HMM-beads/Images/BlackBeadChoiceWrong.png","","","","","","","","","",""
"image-keyboard-response","79","200724","0.0-3.0-4.0-1.0-0.22","63dc047be4fc60aacae88fbe","6662009ae78f21dd82fcd179","6662038fe4bde838531ff44b","1028","","f","","","","","","","","./tasks/HMM-beads/Images/NewTrialWC.png","practice","0","22","1","1","1","0","false","",""
"image-keyboard-response","80","201036","0.0-3.0-4.0-1.0-1.22","63dc047be4fc60aacae88fbe","6662009ae78f21dd82fcd179","6662038fe4bde838531ff44b","null","","null","","","","","","","","./tasks/HMM-beads/Images/BlackBeadChoice.png","","","","","","","","","",""
"image-keyboard-response","81","201540","0.0-3.0-4.0-1.0-2.22","63dc047be4fc60aacae88fbe","6662009ae78f21dd82fcd179","6662038fe4bde838531ff44b","null","","null","","","","","","","","./tasks/HMM-beads/Images/BlackBeadChoiceWrong.png","","","","","","","","","",""
"image-keyboard-response","82","201851","0.0-3.0-4.0-1.0-0.23","63dc047be4fc60aacae88fbe","6662009ae78f21dd82fcd179","6662038fe4bde838531ff44b","310","","f","","","","","","","","./tasks/HMM-beads/Images/NewTrialWC.png","practice","0","23","1","0","1","0","true","",""
"image-keyboard-response","83","202158","0.0-3.0-4.0-1.0-1.23","63dc047be4fc60aacae88fbe","6662009ae78f21dd82fcd179","6662038fe4bde838531ff44b","null","","null","","","","","","","","./tasks/HMM-beads/Images/BlackBeadChoice.png","","","","","","","","","",""
"image-keyboard-response","84","202668","0.0-3.0-4.0-1.0-2.23","63dc047be4fc60aacae88fbe","6662009ae78f21dd82fcd179","6662038fe4bde838531ff44b","null","","null","","","","","","","","./tasks/HMM-beads/Images/BlackBeadChoiceCorrect.png","","","","","","","","","",""
"image-keyboard-response","85","203072","0.0-3.0-4.0-1.0-0.24","63dc047be4fc60aacae88fbe","6662009ae78f21dd82fcd179","6662038fe4bde838531ff44b","403","","f","","","","","","","","./tasks/HMM-beads/Images/NewTrialBC.png","practice","0","24","1","1","0","0","false","",""
"image-keyboard-response","86","203374","0.0-3.0-4.0-1.0-1.24","63dc047be4fc60aacae88fbe","6662009ae78f21dd82fcd179","6662038fe4bde838531ff44b","null","","null","","","","","","","","./tasks/HMM-beads/Images/BlackBeadChoice.png","","","","","","","","","",""
"image-keyboard-response","87","203890","0.0-3.0-4.0-1.0-2.24","63dc047be4fc60aacae88fbe","6662009ae78f21dd82fcd179","6662038fe4bde838531ff44b","null","","null","","","","","","","","./tasks/HMM-beads/Images/BlackBeadChoiceWrong.png","","","","","","","","","",""
"image-keyboard-response","88","204307","0.0-3.0-4.0-1.0-0.25","63dc047be4fc60aacae88fbe","6662009ae78f21dd82fcd179","6662038fe4bde838531ff44b","416","","j","","","","","","","","./tasks/HMM-beads/Images/NewTrialWC.png","practice","0","25","1","1","1","1","true","",""
"image-keyboard-response","89","204619","0.0-3.0-4.0-1.0-1.25","63dc047be4fc60aacae88fbe","6662009ae78f21dd82fcd179","6662038fe4bde838531ff44b","null","","null","","","","","","","","./tasks/HMM-beads/Images/WhiteBeadChoice.png","","","","","","","","","",""
"image-keyboard-response","90","205121","0.0-3.0-4.0-1.0-2.25","63dc047be4fc60aacae88fbe","6662009ae78f21dd82fcd179","6662038fe4bde838531ff44b","null","","null","","","","","","","","./tasks/HMM-beads/Images/WhiteBeadChoiceCorrect.png","","","","","","","","","",""
"image-keyboard-response","91","205442","0.0-3.0-4.0-1.0-0.26","63dc047be4fc60aacae88fbe","6662009ae78f21dd82fcd179","6662038fe4bde838531ff44b","320","","j","","","","","","","","./tasks/HMM-beads/Images/NewTrialWC.png","practice","0","26","1","1","1","1","true","",""
"image-keyboard-response","92","205750","0.0-3.0-4.0-1.0-1.26","63dc047be4fc60aacae88fbe","6662009ae78f21dd82fcd179","6662038fe4bde838531ff44b","null","","null","","","","","","","","./tasks/HMM-beads/Images/WhiteBeadChoice.png","","","","","","","","","",""
"image-keyboard-response","93","206253","0.0-3.0-4.0-1.0-2.26","63dc047be4fc60aacae88fbe","6662009ae78f21dd82fcd179","6662038fe4bde838531ff44b","null","","null","","","","","","","","./tasks/HMM-beads/Images/WhiteBeadChoiceCorrect.png","","","","","","","","","",""
"image-keyboard-response","94","206564","0.0-3.0-4.0-1.0-0.27","63dc047be4fc60aacae88fbe","6662009ae78f21dd82fcd179","6662038fe4bde838531ff44b","310","","j","","","","","","","","./tasks/HMM-beads/Images/NewTrialWC.png","practice","0","27","1","1","1","1","true","",""
"image-keyboard-response","95","206870","0.0-3.0-4.0-1.0-1.27","63dc047be4fc60aacae88fbe","6662009ae78f21dd82fcd179","6662038fe4bde838531ff44b","null","","null","","","","","","","","./tasks/HMM-beads/Images/WhiteBeadChoice.png","","","","","","","","","",""
"image-keyboard-response","96","207372","0.0-3.0-4.0-1.0-2.27","63dc047be4fc60aacae88fbe","6662009ae78f21dd82fcd179","6662038fe4bde838531ff44b","null","","null","","","","","","","","./tasks/HMM-beads/Images/WhiteBeadChoiceCorrect.png","","","","","","","","","",""
"image-keyboard-response","97","207729","0.0-3.0-4.0-1.0-0.28","63dc047be4fc60aacae88fbe","6662009ae78f21dd82fcd179","6662038fe4bde838531ff44b","356","","j","","","","","","","","./tasks/HMM-beads/Images/NewTrialWC.png","practice","0","28","1","0","1","1","false","",""
"image-keyboard-response","98","208039","0.0-3.0-4.0-1.0-1.28","63dc047be4fc60aacae88fbe","6662009ae78f21dd82fcd179","6662038fe4bde838531ff44b","null","","null","","","","","","","","./tasks/HMM-beads/Images/WhiteBeadChoice.png","","","","","","","","","",""
"image-keyboard-response","99","208542","0.0-3.0-4.0-1.0-2.28","63dc047be4fc60aacae88fbe","6662009ae78f21dd82fcd179","6662038fe4bde838531ff44b","null","","null","","","","","","","","./tasks/HMM-beads/Images/WhiteBeadChoiceWrong.png","","","","","","","","","",""
"image-keyboard-response","100","208643","0.0-3.0-4.0-1.0-0.29","63dc047be4fc60aacae88fbe","6662009ae78f21dd82fcd179","6662038fe4bde838531ff44b","100","","f","","","","","","","","./tasks/HMM-beads/Images/NewTrialBC.png","practice","0","29","1","1","0","0","false","",""
"image-keyboard-response","101","208952","0.0-3.0-4.0-1.0-1.29","63dc047be4fc60aacae88fbe","6662009ae78f21dd82fcd179","6662038fe4bde838531ff44b","null","","null","","","","","","","","./tasks/HMM-beads/Images/BlackBeadChoice.png","","","","","","","","","",""
"image-keyboard-response","102","209464","0.0-3.0-4.0-1.0-2.29","63dc047be4fc60aacae88fbe","6662009ae78f21dd82fcd179","6662038fe4bde838531ff44b","null","","null","","","","","","","","./tasks/HMM-beads/Images/BlackBeadChoiceWrong.png","","","","","","","","","",""
"image-keyboard-response","103","209549","0.0-3.0-4.0-1.0-0.30","63dc047be4fc60aacae88fbe","6662009ae78f21dd82fcd179","6662038fe4bde838531ff44b","84","","j","","","","","","","","./tasks/HMM-beads/Images/NewTrialWC.png","practice","0","30","1","0","1","1","false","",""
"image-keyboard-response","104","209852","0.0-3.0-4.0-1.0-1.30","63dc047be4fc60aacae88fbe","6662009ae78f21dd82fcd179","6662038fe4bde838531ff44b","null","","null","","","","","","","","./tasks/HMM-beads/Images/WhiteBeadChoice.png","","","","","","","","","",""
"image-keyboard-response","105","210361","0.0-3.0-4.0-1.0-2.30","63dc047be4fc60aacae88fbe","6662009ae78f21dd82fcd179","6662038fe4bde838531ff44b","null","","null","","","","","","","","./tasks/HMM-beads/Images/WhiteBeadChoiceWrong.png","","","","","","","","","",""
"image-keyboard-response","106","210872","0.0-3.0-4.0-1.0-0.31","63dc047be4fc60aacae88fbe","6662009ae78f21dd82fcd179","6662038fe4bde838531ff44b","509","","j","","","","","","","","./tasks/HMM-beads/Images/NewTrialBC.png","practice","0","31","1","1","0","1","true","",""
"image-keyboard-response","107","211187","0.0-3.0-4.0-1.0-1.31","63dc047be4fc60aacae88fbe","6662009ae78f21dd82fcd179","6662038fe4bde838531ff44b","null","","null","","","","","","","","./tasks/HMM-beads/Images/WhiteBeadChoice.png","","","","","","","","","",""
"image-keyboard-response","108","211700","0.0-3.0-4.0-1.0-2.31","63dc047be4fc60aacae88fbe","6662009ae78f21dd82fcd179","6662038fe4bde838531ff44b","null","","null","","","","","","","","./tasks/HMM-beads/Images/WhiteBeadChoiceCorrect.png","","","","","","","","","",""
"image-keyboard-response","109","211819","0.0-3.0-4.0-1.0-0.32","63dc047be4fc60aacae88fbe","6662009ae78f21dd82fcd179","6662038fe4bde838531ff44b","117","","j","","","","","","","","./tasks/HMM-beads/Images/NewTrialWC.png","practice","0","32","1","1","1","1","true","",""
"image-keyboard-response","110","212121","0.0-3.0-4.0-1.0-1.32","63dc047be4fc60aacae88fbe","6662009ae78f21dd82fcd179","6662038fe4bde838531ff44b","null","","null","","","","","","","","./tasks/HMM-beads/Images/WhiteBeadChoice.png","","","","","","","","","",""
"image-keyboard-response","111","212638","0.0-3.0-4.0-1.0-2.32","63dc047be4fc60aacae88fbe","6662009ae78f21dd82fcd179","6662038fe4bde838531ff44b","null","","null","","","","","","","","./tasks/HMM-beads/Images/WhiteBeadChoiceCorrect.png","","","","","","","","","",""
"image-keyboard-response","112","212729","0.0-3.0-4.0-1.0-0.33","63dc047be4fc60aacae88fbe","6662009ae78f21dd82fcd179","6662038fe4bde838531ff44b","90","","j","","","","","","","","./tasks/HMM-beads/Images/NewTrialWC.png","practice","0","33","1","1","1","1","true","",""
"image-keyboard-response","113","213035","0.0-3.0-4.0-1.0-1.33","63dc047be4fc60aacae88fbe","6662009ae78f21dd82fcd179","6662038fe4bde838531ff44b","null","","null","","","","","","","","./tasks/HMM-beads/Images/WhiteBeadChoice.png","","","","","","","","","",""
"image-keyboard-response","114","213538","0.0-3.0-4.0-1.0-2.33","63dc047be4fc60aacae88fbe","6662009ae78f21dd82fcd179","6662038fe4bde838531ff44b","null","","null","","","","","","","","./tasks/HMM-beads/Images/WhiteBeadChoiceCorrect.png","","","","","","","","","",""
"image-keyboard-response","115","213627","0.0-3.0-4.0-1.0-0.34","63dc047be4fc60aacae88fbe","6662009ae78f21dd82fcd179","6662038fe4bde838531ff44b","88","","j","","","","","","","","./tasks/HMM-beads/Images/NewTrialWC.png","practice","0","34","1","1","1","1","true","",""
"image-keyboard-response","116","213928","0.0-3.0-4.0-1.0-1.34","63dc047be4fc60aacae88fbe","6662009ae78f21dd82fcd179","6662038fe4bde838531ff44b","null","","null","","","","","","","","./tasks/HMM-beads/Images/WhiteBeadChoice.png","","","","","","","","","",""
"image-keyboard-response","117","214438","0.0-3.0-4.0-1.0-2.34","63dc047be4fc60aacae88fbe","6662009ae78f21dd82fcd179","6662038fe4bde838531ff44b","null","","null","","","","","","","","./tasks/HMM-beads/Images/WhiteBeadChoiceCorrect.png","","","","","","","","","",""
"image-keyboard-response","118","214546","0.0-3.0-4.0-1.0-0.35","63dc047be4fc60aacae88fbe","6662009ae78f21dd82fcd179","6662038fe4bde838531ff44b","103","","j","","","","","","","","./tasks/HMM-beads/Images/NewTrialWC.png","practice","0","35","1","1","1","1","true","",""
"image-keyboard-response","119","214851","0.0-3.0-4.0-1.0-1.35","63dc047be4fc60aacae88fbe","6662009ae78f21dd82fcd179","6662038fe4bde838531ff44b","null","","null","","","","","","","","./tasks/HMM-beads/Images/WhiteBeadChoice.png","","","","","","","","","",""
"image-keyboard-response","120","215368","0.0-3.0-4.0-1.0-2.35","63dc047be4fc60aacae88fbe","6662009ae78f21dd82fcd179","6662038fe4bde838531ff44b","null","","null","","","","","","","","./tasks/HMM-beads/Images/WhiteBeadChoiceCorrect.png","","","","","","","","","",""
"image-keyboard-response","121","215433","0.0-3.0-4.0-1.0-0.36","63dc047be4fc60aacae88fbe","6662009ae78f21dd82fcd179","6662038fe4bde838531ff44b","64","","j","","","","","","","","./tasks/HMM-beads/Images/NewTrialWC.png","practice","0","36","1","0","1","1","false","",""
"image-keyboard-response","122","215735","0.0-3.0-4.0-1.0-1.36","63dc047be4fc60aacae88fbe","6662009ae78f21dd82fcd179","6662038fe4bde838531ff44b","null","","null","","","","","","","","./tasks/HMM-beads/Images/WhiteBeadChoice.png","","","","","","","","","",""
"image-keyboard-response","123","216249","0.0-3.0-4.0-1.0-2.36","63dc047be4fc60aacae88fbe","6662009ae78f21dd82fcd179","6662038fe4bde838531ff44b","null","","null","","","","","","","","./tasks/HMM-beads/Images/WhiteBeadChoiceWrong.png","","","","","","","","","",""
"image-keyboard-response","124","216276","0.0-3.0-4.0-1.0-0.37","63dc047be4fc60aacae88fbe","6662009ae78f21dd82fcd179","6662038fe4bde838531ff44b","25","","f","","","","","","","","./tasks/HMM-beads/Images/NewTrialBC.png","practice","0","37","1","1","0","0","false","",""
"image-keyboard-response","125","216589","0.0-3.0-4.0-1.0-1.37","63dc047be4fc60aacae88fbe","6662009ae78f21dd82fcd179","6662038fe4bde838531ff44b","null","","null","","","","","","","","./tasks/HMM-beads/Images/BlackBeadChoice.png","","","","","","","","","",""
"image-keyboard-response","126","217099","0.0-3.0-4.0-1.0-2.37","63dc047be4fc60aacae88fbe","6662009ae78f21dd82fcd179","6662038fe4bde838531ff44b","null","","null","","","","","","","","./tasks/HMM-beads/Images/BlackBeadChoiceWrong.png","","","","","","","","","",""
"image-keyboard-response","127","217490","0.0-3.0-4.0-1.0-0.38","63dc047be4fc60aacae88fbe","6662009ae78f21dd82fcd179","6662038fe4bde838531ff44b","390","","j","","","","","","","","./tasks/HMM-beads/Images/NewTrialWC.png","practice","0","38","1","1","1","1","true","",""
"image-keyboard-response","128","217795","0.0-3.0-4.0-1.0-1.38","63dc047be4fc60aacae88fbe","6662009ae78f21dd82fcd179","6662038fe4bde838531ff44b","null","","null","","","","","","","","./tasks/HMM-beads/Images/WhiteBeadChoice.png","","","","","","","","","",""
"image-keyboard-response","129","218300","0.0-3.0-4.0-1.0-2.38","63dc047be4fc60aacae88fbe","6662009ae78f21dd82fcd179","6662038fe4bde838531ff44b","null","","null","","","","","","","","./tasks/HMM-beads/Images/WhiteBeadChoiceCorrect.png","","","","","","","","","",""
"image-keyboard-response","130","218658","0.0-3.0-4.0-1.0-0.39","63dc047be4fc60aacae88fbe","6662009ae78f21dd82fcd179","6662038fe4bde838531ff44b","356","","j","","","","","","","","./tasks/HMM-beads/Images/NewTrialWC.png","practice","0","39","1","1","1","1","true","",""
"image-keyboard-response","131","218974","0.0-3.0-4.0-1.0-1.39","63dc047be4fc60aacae88fbe","6662009ae78f21dd82fcd179","6662038fe4bde838531ff44b","null","","null","","","","","","","","./tasks/HMM-beads/Images/WhiteBeadChoice.png","","","","","","","","","",""
"image-keyboard-response","132","219484","0.0-3.0-4.0-1.0-2.39","63dc047be4fc60aacae88fbe","6662009ae78f21dd82fcd179","6662038fe4bde838531ff44b","null","","null","","","","","","","","./tasks/HMM-beads/Images/WhiteBeadChoiceCorrect.png","","","","","","","","","",""
"html-keyboard-response","133","222074","0.0-3.0-4.0-2.0","63dc047be4fc60aacae88fbe","6662009ae78f21dd82fcd179","6662038fe4bde838531ff44b","2589",""," ","","","","","","","","","","","","","","","","","",""
"instructions","134","233904","0.0-3.0-5.0","63dc047be4fc60aacae88fbe","6662009ae78f21dd82fcd179","6662038fe4bde838531ff44b","11830","","","","[{""page_index"":0,""viewing_time"":9528},{""page_index"":1,""viewing_time"":2302}]","","","","","","","","","","","","","","","",""
"html-keyboard-response","135","237718","0.0-3.0-6.0-0.0","63dc047be4fc60aacae88fbe","6662009ae78f21dd82fcd179","6662038fe4bde838531ff44b","3813",""," ","","","","","","","","<div align=center>In this block, there will be a <b>1% chance</b> that the jar on the next trial will be different from the jar on the current trial.<br><br></div>","","","","","","","","","",""
"image-keyboard-response","136","238703","0.0-3.0-6.0-1.0-0.0","63dc047be4fc60aacae88fbe","6662009ae78f21dd82fcd179","6662038fe4bde838531ff44b","984","","f","","","","","","","","./tasks/HMM-beads/Images/NoChoice.png","lowH","1","0","1","0","9","0","true","",""
"image-keyboard-response","137","239006","0.0-3.0-6.0-1.0-1.0","63dc047be4fc60aacae88fbe","6662009ae78f21dd82fcd179","6662038fe4bde838531ff44b","null","","null","","","","","","","","./tasks/HMM-beads/Images/BlackBeadChoice.png","","","","","","","","","",""
"image-keyboard-response","138","239508","0.0-3.0-6.0-1.0-2.0","63dc047be4fc60aacae88fbe","6662009ae78f21dd82fcd179","6662038fe4bde838531ff44b","null","","null","","","","","","","","./tasks/HMM-beads/Images/BlackBeadChoiceCorrect.png","","","","","","","","","",""
"image-keyboard-response","139","239950","0.0-3.0-6.0-1.0-0.1","63dc047be4fc60aacae88fbe","6662009ae78f21dd82fcd179","6662038fe4bde838531ff44b","441","","f","","","","","","","","./tasks/HMM-beads/Images/NewTrialBC.png","lowH","1","1","1","1","0","0","false","",""
"image-keyboard-response","140","240251","0.0-3.0-6.0-1.0-1.1","63dc047be4fc60aacae88fbe","6662009ae78f21dd82fcd179","6662038fe4bde838531ff44b","null","","null","","","","","","","","./tasks/HMM-beads/Images/BlackBeadChoice.png","","","","","","","","","",""
"image-keyboard-response","141","240767","0.0-3.0-6.0-1.0-2.1","63dc047be4fc60aacae88fbe","6662009ae78f21dd82fcd179","6662038fe4bde838531ff44b","null","","null","","","","","","","","./tasks/HMM-beads/Images/BlackBeadChoiceWrong.png","","","","","","","","","",""
"image-keyboard-response","142","241178","0.0-3.0-6.0-1.0-0.2","63dc047be4fc60aacae88fbe","6662009ae78f21dd82fcd179","6662038fe4bde838531ff44b","410","","f","","","","","","","","./tasks/HMM-beads/Images/NewTrialWC.png","lowH","1","2","1","1","1","0","false","",""
"image-keyboard-response","143","241482","0.0-3.0-6.0-1.0-1.2","63dc047be4fc60aacae88fbe","6662009ae78f21dd82fcd179","6662038fe4bde838531ff44b","null","","null","","","","","","","","./tasks/HMM-beads/Images/BlackBeadChoice.png","","","","","","","","","",""
"image-keyboard-response","144","241988","0.0-3.0-6.0-1.0-2.2","63dc047be4fc60aacae88fbe","6662009ae78f21dd82fcd179","6662038fe4bde838531ff44b","null","","null","","","","","","","","./tasks/HMM-beads/Images/BlackBeadChoiceWrong.png","","","","","","","","","",""
"image-keyboard-response","145","242428","0.0-3.0-6.0-1.0-0.3","63dc047be4fc60aacae88fbe","6662009ae78f21dd82fcd179","6662038fe4bde838531ff44b","440","","j","","","","","","","","./tasks/HMM-beads/Images/NewTrialWC.png","lowH","1","3","1","1","1","1","true","",""
"image-keyboard-response","146","242739","0.0-3.0-6.0-1.0-1.3","63dc047be4fc60aacae88fbe","6662009ae78f21dd82fcd179","6662038fe4bde838531ff44b","null","","null","","","","","","","","./tasks/HMM-beads/Images/WhiteBeadChoice.png","","","","","","","","","",""
"image-keyboard-response","147","243257","0.0-3.0-6.0-1.0-2.3","63dc047be4fc60aacae88fbe","6662009ae78f21dd82fcd179","6662038fe4bde838531ff44b","null","","null","","","","","","","","./tasks/HMM-beads/Images/WhiteBeadChoiceCorrect.png","","","","","","","","","",""
"image-keyboard-response","148","243647","0.0-3.0-6.0-1.0-0.4","63dc047be4fc60aacae88fbe","6662009ae78f21dd82fcd179","6662038fe4bde838531ff44b","389","","j","","","","","","","","./tasks/HMM-beads/Images/NewTrialWC.png","lowH","1","4","1","1","1","1","true","",""
"image-keyboard-response","149","243952","0.0-3.0-6.0-1.0-1.4","63dc047be4fc60aacae88fbe","6662009ae78f21dd82fcd179","6662038fe4bde838531ff44b","null","","null","","","","","","","","./tasks/HMM-beads/Images/WhiteBeadChoice.png","","","","","","","","","",""
"image-keyboard-response","150","244455","0.0-3.0-6.0-1.0-2.4","63dc047be4fc60aacae88fbe","6662009ae78f21dd82fcd179","6662038fe4bde838531ff44b","null","","null","","","","","","","","./tasks/HMM-beads/Images/WhiteBeadChoiceCorrect.png","","","","","","","","","",""
"image-keyboard-response","151","244859","0.0-3.0-6.0-1.0-0.5","63dc047be4fc60aacae88fbe","6662009ae78f21dd82fcd179","6662038fe4bde838531ff44b","403","","j","","","","","","","","./tasks/HMM-beads/Images/NewTrialWC.png","lowH","1","5","1","1","1","1","true","",""
"image-keyboard-response","152","245172","0.0-3.0-6.0-1.0-1.5","63dc047be4fc60aacae88fbe","6662009ae78f21dd82fcd179","6662038fe4bde838531ff44b","null","","null","","","","","","","","./tasks/HMM-beads/Images/WhiteBeadChoice.png","","","","","","","","","",""
"image-keyboard-response","153","245688","0.0-3.0-6.0-1.0-2.5","63dc047be4fc60aacae88fbe","6662009ae78f21dd82fcd179","6662038fe4bde838531ff44b","null","","null","","","","","","","","./tasks/HMM-beads/Images/WhiteBeadChoiceCorrect.png","","","","","","","","","",""
"image-keyboard-response","154","246024","0.0-3.0-6.0-1.0-0.6","63dc047be4fc60aacae88fbe","6662009ae78f21dd82fcd179","6662038fe4bde838531ff44b","335","","j","","","","","","","","./tasks/HMM-beads/Images/NewTrialWC.png","lowH","1","6","1","0","1","1","false","",""
"image-keyboard-response","155","246329","0.0-3.0-6.0-1.0-1.6","63dc047be4fc60aacae88fbe","6662009ae78f21dd82fcd179","6662038fe4bde838531ff44b","null","","null","","","","","","","","./tasks/HMM-beads/Images/WhiteBeadChoice.png","","","","","","","","","",""
"image-keyboard-response","156","246835","0.0-3.0-6.0-1.0-2.6","63dc047be4fc60aacae88fbe","6662009ae78f21dd82fcd179","6662038fe4bde838531ff44b","null","","null","","","","","","","","./tasks/HMM-beads/Images/WhiteBeadChoiceWrong.png","","","","","","","","","",""
"image-keyboard-response","157","247282","0.0-3.0-6.0-1.0-0.7","63dc047be4fc60aacae88fbe","6662009ae78f21dd82fcd179","6662038fe4bde838531ff44b","446","","j","","","","","","","","./tasks/HMM-beads/Images/NewTrialBC.png","lowH","1","7","1","1","0","1","true","",""
"image-keyboard-response","158","247591","0.0-3.0-6.0-1.0-1.7","63dc047be4fc60aacae88fbe","6662009ae78f21dd82fcd179","6662038fe4bde838531ff44b","null","","null","","","","","","","","./tasks/HMM-beads/Images/WhiteBeadChoice.png","","","","","","","","","",""
"image-keyboard-response","159","248104","0.0-3.0-6.0-1.0-2.7","63dc047be4fc60aacae88fbe","6662009ae78f21dd82fcd179","6662038fe4bde838531ff44b","null","","null","","","","","","","","./tasks/HMM-beads/Images/WhiteBeadChoiceCorrect.png","","","","","","","","","",""
"image-keyboard-response","160","248363","0.0-3.0-6.0-1.0-0.8","63dc047be4fc60aacae88fbe","6662009ae78f21dd82fcd179","6662038fe4bde838531ff44b","254","","j","","","","","","","","./tasks/HMM-beads/Images/NewTrialWC.png","lowH","1","8","1","1","1","1","true","",""
"image-keyboard-response","161","248665","0.0-3.0-6.0-1.0-1.8","63dc047be4fc60aacae88fbe","6662009ae78f21dd82fcd179","6662038fe4bde838531ff44b","null","","null","","","","","","","","./tasks/HMM-beads/Images/WhiteBeadChoice.png","","","","","","","","","",""
"image-keyboard-response","162","249171","0.0-3.0-6.0-1.0-2.8","63dc047be4fc60aacae88fbe","6662009ae78f21dd82fcd179","6662038fe4bde838531ff44b","null","","null","","","","","","","","./tasks/HMM-beads/Images/WhiteBeadChoiceCorrect.png","","","","","","","","","",""
"image-keyboard-response","163","249185","0.0-3.0-6.0-1.0-0.9","63dc047be4fc60aacae88fbe","6662009ae78f21dd82fcd179","6662038fe4bde838531ff44b","13","","j","","","","","","","","./tasks/HMM-beads/Images/NewTrialWC.png","lowH","1","9","1","1","1","1","true","",""
"image-keyboard-response","164","249499","0.0-3.0-6.0-1.0-1.9","63dc047be4fc60aacae88fbe","6662009ae78f21dd82fcd179","6662038fe4bde838531ff44b","null","","null","","","","","","","","./tasks/HMM-beads/Images/WhiteBeadChoice.png","","","","","","","","","",""
"image-keyboard-response","165","250010","0.0-3.0-6.0-1.0-2.9","63dc047be4fc60aacae88fbe","6662009ae78f21dd82fcd179","6662038fe4bde838531ff44b","null","","null","","","","","","","","./tasks/HMM-beads/Images/WhiteBeadChoiceCorrect.png","","","","","","","","","",""
"image-keyboard-response","166","250535","0.0-3.0-6.0-1.0-0.10","63dc047be4fc60aacae88fbe","6662009ae78f21dd82fcd179","6662038fe4bde838531ff44b","524","","j","","","","","","","","./tasks/HMM-beads/Images/NewTrialWC.png","lowH","1","10","1","1","1","1","true","",""
"image-keyboard-response","167","250849","0.0-3.0-6.0-1.0-1.10","63dc047be4fc60aacae88fbe","6662009ae78f21dd82fcd179","6662038fe4bde838531ff44b","null","","null","","","","","","","","./tasks/HMM-beads/Images/WhiteBeadChoice.png","","","","","","","","","",""
"image-keyboard-response","168","251355","0.0-3.0-6.0-1.0-2.10","63dc047be4fc60aacae88fbe","6662009ae78f21dd82fcd179","6662038fe4bde838531ff44b","null","","null","","","","","","","","./tasks/HMM-beads/Images/WhiteBeadChoiceCorrect.png","","","","","","","","","",""
"image-keyboard-response","169","251699","0.0-3.0-6.0-1.0-0.11","63dc047be4fc60aacae88fbe","6662009ae78f21dd82fcd179","6662038fe4bde838531ff44b","343","","j","","","","","","","","./tasks/HMM-beads/Images/NewTrialWC.png","lowH","1","11","1","1","1","1","true","",""
"image-keyboard-response","170","252007","0.0-3.0-6.0-1.0-1.11","63dc047be4fc60aacae88fbe","6662009ae78f21dd82fcd179","6662038fe4bde838531ff44b","null","","null","","","","","","","","./tasks/HMM-beads/Images/WhiteBeadChoice.png","","","","","","","","","",""
"image-keyboard-response","171","252513","0.0-3.0-6.0-1.0-2.11","63dc047be4fc60aacae88fbe","6662009ae78f21dd82fcd179","6662038fe4bde838531ff44b","null","","null","","","","","","","","./tasks/HMM-beads/Images/WhiteBeadChoiceCorrect.png","","","","","","","","","",""
"image-keyboard-response","172","252727","0.0-3.0-6.0-1.0-0.12","63dc047be4fc60aacae88fbe","6662009ae78f21dd82fcd179","6662038fe4bde838531ff44b","214","","j","","","","","","","","./tasks/HMM-beads/Images/NewTrialWC.png","lowH","1","12","1","1","1","1","true","",""
"image-keyboard-response","173","253037","0.0-3.0-6.0-1.0-1.12","63dc047be4fc60aacae88fbe","6662009ae78f21dd82fcd179","6662038fe4bde838531ff44b","null","","null","","","","","","","","./tasks/HMM-beads/Images/WhiteBeadChoice.png","","","","","","","","","",""
"image-keyboard-response","174","253548","0.0-3.0-6.0-1.0-2.12","63dc047be4fc60aacae88fbe","6662009ae78f21dd82fcd179","6662038fe4bde838531ff44b","null","","null","","","","","","","","./tasks/HMM-beads/Images/WhiteBeadChoiceCorrect.png","","","","","","","","","",""
"image-keyboard-response","175","253910","0.0-3.0-6.0-1.0-0.13","63dc047be4fc60aacae88fbe","6662009ae78f21dd82fcd179","6662038fe4bde838531ff44b","360","","f","","","","","","","","./tasks/HMM-beads/Images/NewTrialWC.png","lowH","1","13","1","0","1","0","true","",""
"image-keyboard-response","176","254214","0.0-3.0-6.0-1.0-1.13","63dc047be4fc60aacae88fbe","6662009ae78f21dd82fcd179","6662038fe4bde838531ff44b","null","","null","","","","","","","","./tasks/HMM-beads/Images/BlackBeadChoice.png","","","","","","","","","",""
"image-keyboard-response","177","254728","0.0-3.0-6.0-1.0-2.13","63dc047be4fc60aacae88fbe","6662009ae78f21dd82fcd179","6662038fe4bde838531ff44b","null","","null","","","","","","","","./tasks/HMM-beads/Images/BlackBeadChoiceCorrect.png","","","","","","","","","",""
"image-keyboard-response","178","255052","0.0-3.0-6.0-1.0-0.14","63dc047be4fc60aacae88fbe","6662009ae78f21dd82fcd179","6662038fe4bde838531ff44b","323","","f","","","","","","","","./tasks/HMM-beads/Images/NewTrialBC.png","lowH","1","14","1","0","0","0","true","",""
"image-keyboard-response","179","255357","0.0-3.0-6.0-1.0-1.14","63dc047be4fc60aacae88fbe","6662009ae78f21dd82fcd179","6662038fe4bde838531ff44b","null","","null","","","","","","","","./tasks/HMM-beads/Images/BlackBeadChoice.png","","","","","","","","","",""
"image-keyboard-response","180","255859","0.0-3.0-6.0-1.0-2.14","63dc047be4fc60aacae88fbe","6662009ae78f21dd82fcd179","6662038fe4bde838531ff44b","null","","null","","","","","","","","./tasks/HMM-beads/Images/BlackBeadChoiceCorrect.png","","","","","","","","","",""
"image-keyboard-response","181","256211","0.0-3.0-6.0-1.0-0.15","63dc047be4fc60aacae88fbe","6662009ae78f21dd82fcd179","6662038fe4bde838531ff44b","351","","f","","","","","","","","./tasks/HMM-beads/Images/NewTrialBC.png","lowH","1","15","1","1","0","0","false","",""
"image-keyboard-response","182","256519","0.0-3.0-6.0-1.0-1.15","63dc047be4fc60aacae88fbe","6662009ae78f21dd82fcd179","6662038fe4bde838531ff44b","null","","null","","","","","","","","./tasks/HMM-beads/Images/BlackBeadChoice.png","","","","","","","","","",""
"image-keyboard-response","183","257028","0.0-3.0-6.0-1.0-2.15","63dc047be4fc60aacae88fbe","6662009ae78f21dd82fcd179","6662038fe4bde838531ff44b","null","","null","","","","","","","","./tasks/HMM-beads/Images/BlackBeadChoiceWrong.png","","","","","","","","","",""
"image-keyboard-response","184","257380","0.0-3.0-6.0-1.0-0.16","63dc047be4fc60aacae88fbe","6662009ae78f21dd82fcd179","6662038fe4bde838531ff44b","351","","f","","","","","","","","./tasks/HMM-beads/Images/NewTrialWC.png","lowH","1","16","1","1","1","0","false","",""
"image-keyboard-response","185","257693","0.0-3.0-6.0-1.0-1.16","63dc047be4fc60aacae88fbe","6662009ae78f21dd82fcd179","6662038fe4bde838531ff44b","null","","null","","","","","","","","./tasks/HMM-beads/Images/BlackBeadChoice.png","","","","","","","","","",""
"image-keyboard-response","186","258202","0.0-3.0-6.0-1.0-2.16","63dc047be4fc60aacae88fbe","6662009ae78f21dd82fcd179","6662038fe4bde838531ff44b","null","","null","","","","","","","","./tasks/HMM-beads/Images/BlackBeadChoiceWrong.png","","","","","","","","","",""
"image-keyboard-response","187","258543","0.0-3.0-6.0-1.0-0.17","63dc047be4fc60aacae88fbe","6662009ae78f21dd82fcd179","6662038fe4bde838531ff44b","340","","j","","","","","","","","./tasks/HMM-beads/Images/NewTrialWC.png","lowH","1","17","1","1","1","1","true","",""
"image-keyboard-response","188","258854","0.0-3.0-6.0-1.0-1.17","63dc047be4fc60aacae88fbe","6662009ae78f21dd82fcd179","6662038fe4bde838531ff44b","null","","null","","","","","","","","./tasks/HMM-beads/Images/WhiteBeadChoice.png","","","","","","","","","",""
"image-keyboard-response","189","259357","0.0-3.0-6.0-1.0-2.17","63dc047be4fc60aacae88fbe","6662009ae78f21dd82fcd179","6662038fe4bde838531ff44b","null","","null","","","","","","","","./tasks/HMM-beads/Images/WhiteBeadChoiceCorrect.png","","","","","","","","","",""
"image-keyboard-response","190","259709","0.0-3.0-6.0-1.0-0.18","63dc047be4fc60aacae88fbe","6662009ae78f21dd82fcd179","6662038fe4bde838531ff44b","351","","j","","","","","","","","./tasks/HMM-beads/Images/NewTrialWC.png","lowH","1","18","1","1","1","1","true","",""
"image-keyboard-response","191","260025","0.0-3.0-6.0-1.0-1.18","63dc047be4fc60aacae88fbe","6662009ae78f21dd82fcd179","6662038fe4bde838531ff44b","null","","null","","","","","","","","./tasks/HMM-beads/Images/WhiteBeadChoice.png","","","","","","","","","",""
"image-keyboard-response","192","260535","0.0-3.0-6.0-1.0-2.18","63dc047be4fc60aacae88fbe","6662009ae78f21dd82fcd179","6662038fe4bde838531ff44b","null","","null","","","","","","","","./tasks/HMM-beads/Images/WhiteBeadChoiceCorrect.png","","","","","","","","","",""
"image-keyboard-response","193","260569","0.0-3.0-6.0-1.0-0.19","63dc047be4fc60aacae88fbe","6662009ae78f21dd82fcd179","6662038fe4bde838531ff44b","33","","j","","","","","","","","./tasks/HMM-beads/Images/NewTrialWC.png","lowH","1","19","1","1","1","1","true","",""
"image-keyboard-response","194","260880","0.0-3.0-6.0-1.0-1.19","63dc047be4fc60aacae88fbe","6662009ae78f21dd82fcd179","6662038fe4bde838531ff44b","null","","null","","","","","","","","./tasks/HMM-beads/Images/WhiteBeadChoice.png","","","","","","","","","",""
"image-keyboard-response","195","261397","0.0-3.0-6.0-1.0-2.19","63dc047be4fc60aacae88fbe","6662009ae78f21dd82fcd179","6662038fe4bde838531ff44b","null","","null","","","","","","","","./tasks/HMM-beads/Images/WhiteBeadChoiceCorrect.png","","","","","","","","","",""
"image-keyboard-response","196","261849","0.0-3.0-6.0-1.0-0.20","63dc047be4fc60aacae88fbe","6662009ae78f21dd82fcd179","6662038fe4bde838531ff44b","452","","j","","","","","","","","./tasks/HMM-beads/Images/NewTrialWC.png","lowH","1","20","1","1","1","1","true","",""
"image-keyboard-response","197","262161","0.0-3.0-6.0-1.0-1.20","63dc047be4fc60aacae88fbe","6662009ae78f21dd82fcd179","6662038fe4bde838531ff44b","null","","null","","","","","","","","./tasks/HMM-beads/Images/WhiteBeadChoice.png","","","","","","","","","",""
"image-keyboard-response","198","262671","0.0-3.0-6.0-1.0-2.20","63dc047be4fc60aacae88fbe","6662009ae78f21dd82fcd179","6662038fe4bde838531ff44b","null","","null","","","","","","","","./tasks/HMM-beads/Images/WhiteBeadChoiceCorrect.png","","","","","","","","","",""
"image-keyboard-response","199","263133","0.0-3.0-6.0-1.0-0.21","63dc047be4fc60aacae88fbe","6662009ae78f21dd82fcd179","6662038fe4bde838531ff44b","460","","j","","","","","","","","./tasks/HMM-beads/Images/NewTrialWC.png","lowH","1","21","1","1","1","1","true","",""
"image-keyboard-response","200","263438","0.0-3.0-6.0-1.0-1.21","63dc047be4fc60aacae88fbe","6662009ae78f21dd82fcd179","6662038fe4bde838531ff44b","null","","null","","","","","","","","./tasks/HMM-beads/Images/WhiteBeadChoice.png","","","","","","","","","",""
"image-keyboard-response","201","263951","0.0-3.0-6.0-1.0-2.21","63dc047be4fc60aacae88fbe","6662009ae78f21dd82fcd179","6662038fe4bde838531ff44b","null","","null","","","","","","","","./tasks/HMM-beads/Images/WhiteBeadChoiceCorrect.png","","","","","","","","","",""
"image-keyboard-response","202","264018","0.0-3.0-6.0-1.0-0.22","63dc047be4fc60aacae88fbe","6662009ae78f21dd82fcd179","6662038fe4bde838531ff44b","66","","j","","","","","","","","./tasks/HMM-beads/Images/NewTrialWC.png","lowH","1","22","1","1","1","1","true","",""
"image-keyboard-response","203","264323","0.0-3.0-6.0-1.0-1.22","63dc047be4fc60aacae88fbe","6662009ae78f21dd82fcd179","6662038fe4bde838531ff44b","null","","null","","","","","","","","./tasks/HMM-beads/Images/WhiteBeadChoice.png","","","","","","","","","",""
"image-keyboard-response","204","264840","0.0-3.0-6.0-1.0-2.22","63dc047be4fc60aacae88fbe","6662009ae78f21dd82fcd179","6662038fe4bde838531ff44b","null","","null","","","","","","","","./tasks/HMM-beads/Images/WhiteBeadChoiceCorrect.png","","","","","","","","","",""
"image-keyboard-response","205","265294","0.0-3.0-6.0-1.0-0.23","63dc047be4fc60aacae88fbe","6662009ae78f21dd82fcd179","6662038fe4bde838531ff44b","453","","j","","","","","","","","./tasks/HMM-beads/Images/NewTrialWC.png","lowH","1","23","1","1","1","1","true","",""
"image-keyboard-response","206","265599","0.0-3.0-6.0-1.0-1.23","63dc047be4fc60aacae88fbe","6662009ae78f21dd82fcd179","6662038fe4bde838531ff44b","null","","null","","","","","","","","./tasks/HMM-beads/Images/WhiteBeadChoice.png","","","","","","","","","",""
"image-keyboard-response","207","266111","0.0-3.0-6.0-1.0-2.23","63dc047be4fc60aacae88fbe","6662009ae78f21dd82fcd179","6662038fe4bde838531ff44b","null","","null","","","","","","","","./tasks/HMM-beads/Images/WhiteBeadChoiceCorrect.png","","","","","","","","","",""
"image-keyboard-response","208","266349","0.0-3.0-6.0-1.0-0.24","63dc047be4fc60aacae88fbe","6662009ae78f21dd82fcd179","6662038fe4bde838531ff44b","236","","f","","","","","","","","./tasks/HMM-beads/Images/NewTrialWC.png","lowH","1","24","1","0","1","0","true","",""
"image-keyboard-response","209","266664","0.0-3.0-6.0-1.0-1.24","63dc047be4fc60aacae88fbe","6662009ae78f21dd82fcd179","6662038fe4bde838531ff44b","null","","null","","","","","","","","./tasks/HMM-beads/Images/BlackBeadChoice.png","","","","","","","","","",""
"image-keyboard-response","210","267173","0.0-3.0-6.0-1.0-2.24","63dc047be4fc60aacae88fbe","6662009ae78f21dd82fcd179","6662038fe4bde838531ff44b","null","","null","","","","","","","","./tasks/HMM-beads/Images/BlackBeadChoiceCorrect.png","","","","","","","","","",""
"image-keyboard-response","211","267832","0.0-3.0-6.0-1.0-0.25","63dc047be4fc60aacae88fbe","6662009ae78f21dd82fcd179","6662038fe4bde838531ff44b","657","","j","","","","","","","","./tasks/HMM-beads/Images/NewTrialBC.png","lowH","1","25","1","1","0","1","true","",""
"image-keyboard-response","212","268144","0.0-3.0-6.0-1.0-1.25","63dc047be4fc60aacae88fbe","6662009ae78f21dd82fcd179","6662038fe4bde838531ff44b","null","","null","","","","","","","","./tasks/HMM-beads/Images/WhiteBeadChoice.png","","","","","","","","","",""
"image-keyboard-response","213","268647","0.0-3.0-6.0-1.0-2.25","63dc047be4fc60aacae88fbe","6662009ae78f21dd82fcd179","6662038fe4bde838531ff44b","null","","null","","","","","","","","./tasks/HMM-beads/Images/WhiteBeadChoiceCorrect.png","","","","","","","","","",""
"image-keyboard-response","214","268801","0.0-3.0-6.0-1.0-0.26","63dc047be4fc60aacae88fbe","6662009ae78f21dd82fcd179","6662038fe4bde838531ff44b","152","","j","","","","","","","","./tasks/HMM-beads/Images/NewTrialWC.png","lowH","1","26","1","0","1","1","false","",""
"image-keyboard-response","215","269106","0.0-3.0-6.0-1.0-1.26","63dc047be4fc60aacae88fbe","6662009ae78f21dd82fcd179","6662038fe4bde838531ff44b","null","","null","","","","","","","","./tasks/HMM-beads/Images/WhiteBeadChoice.png","","","","","","","","","",""
"image-keyboard-response","216","269612","0.0-3.0-6.0-1.0-2.26","63dc047be4fc60aacae88fbe","6662009ae78f21dd82fcd179","6662038fe4bde838531ff44b","null","","null","","","","","","","","./tasks/HMM-beads/Images/WhiteBeadChoiceWrong.png","","","","","","","","","",""
"image-keyboard-response","217","269977","0.0-3.0-6.0-1.0-0.27","63dc047be4fc60aacae88fbe","6662009ae78f21dd82fcd179","6662038fe4bde838531ff44b","359","","j","","","","","","","","./tasks/HMM-beads/Images/NewTrialBC.png","lowH","1","27","1","1","0","1","true","",""
"image-keyboard-response","218","270288","0.0-3.0-6.0-1.0-1.27","63dc047be4fc60aacae88fbe","6662009ae78f21dd82fcd179","6662038fe4bde838531ff44b","null","","null","","","","","","","","./tasks/HMM-beads/Images/WhiteBeadChoice.png","","","","","","","","","",""
"image-keyboard-response","219","270805","0.0-3.0-6.0-1.0-2.27","63dc047be4fc60aacae88fbe","6662009ae78f21dd82fcd179","6662038fe4bde838531ff44b","null","","null","","","","","","","","./tasks/HMM-beads/Images/WhiteBeadChoiceCorrect.png","","","","","","","","","",""
"image-keyboard-response","220","270900","0.0-3.0-6.0-1.0-0.28","63dc047be4fc60aacae88fbe","6662009ae78f21dd82fcd179","6662038fe4bde838531ff44b","94","","j","","","","","","","","./tasks/HMM-beads/Images/NewTrialWC.png","lowH","1","28","1","1","1","1","true","",""
"image-keyboard-response","221","271216","0.0-3.0-6.0-1.0-1.28","63dc047be4fc60aacae88fbe","6662009ae78f21dd82fcd179","6662038fe4bde838531ff44b","null","","null","","","","","","","","./tasks/HMM-beads/Images/WhiteBeadChoice.png","","","","","","","","","",""
"image-keyboard-response","222","271719","0.0-3.0-6.0-1.0-2.28","63dc047be4fc60aacae88fbe","6662009ae78f21dd82fcd179","6662038fe4bde838531ff44b","null","","null","","","","","","","","./tasks/HMM-beads/Images/WhiteBeadChoiceCorrect.png","","","","","","","","","",""
"image-keyboard-response","223","271734","0.0-3.0-6.0-1.0-0.29","63dc047be4fc60aacae88fbe","6662009ae78f21dd82fcd179","6662038fe4bde838531ff44b","14","","j","","","","","","","","./tasks/HMM-beads/Images/NewTrialWC.png","lowH","1","29","1","1","1","1","true","",""
"image-keyboard-response","224","272047","0.0-3.0-6.0-1.0-1.29","63dc047be4fc60aacae88fbe","6662009ae78f21dd82fcd179","6662038fe4bde838531ff44b","null","","null","","","","","","","","./tasks/HMM-beads/Images/WhiteBeadChoice.png","","","","","","","","","",""
"image-keyboard-response","225","272554","0.0-3.0-6.0-1.0-2.29","63dc047be4fc60aacae88fbe","6662009ae78f21dd82fcd179","6662038fe4bde838531ff44b","null","","null","","","","","","","","./tasks/HMM-beads/Images/WhiteBeadChoiceCorrect.png","","","","","","","","","",""
"image-keyboard-response","226","272948","0.0-3.0-6.0-1.0-0.30","63dc047be4fc60aacae88fbe","6662009ae78f21dd82fcd179","6662038fe4bde838531ff44b","392","","j","","","","","","","","./tasks/HMM-beads/Images/NewTrialWC.png","lowH","1","30","1","1","1","1","true","",""
"image-keyboard-response","227","273263","0.0-3.0-6.0-1.0-1.30","63dc047be4fc60aacae88fbe","6662009ae78f21dd82fcd179","6662038fe4bde838531ff44b","null","","null","","","","","","","","./tasks/HMM-beads/Images/WhiteBeadChoice.png","","","","","","","","","",""
"image-keyboard-response","228","273772","0.0-3.0-6.0-1.0-2.30","63dc047be4fc60aacae88fbe","6662009ae78f21dd82fcd179","6662038fe4bde838531ff44b","null","","null","","","","","","","","./tasks/HMM-beads/Images/WhiteBeadChoiceCorrect.png","","","","","","","","","",""
"image-keyboard-response","229","274100","0.0-3.0-6.0-1.0-0.31","63dc047be4fc60aacae88fbe","6662009ae78f21dd82fcd179","6662038fe4bde838531ff44b","326","","j","","","","","","","","./tasks/HMM-beads/Images/NewTrialWC.png","lowH","1","31","1","1","1","1","true","",""
"image-keyboard-response","230","274419","0.0-3.0-6.0-1.0-1.31","63dc047be4fc60aacae88fbe","6662009ae78f21dd82fcd179","6662038fe4bde838531ff44b","null","","null","","","","","","","","./tasks/HMM-beads/Images/WhiteBeadChoice.png","","","","","","","","","",""
"image-keyboard-response","231","274929","0.0-3.0-6.0-1.0-2.31","63dc047be4fc60aacae88fbe","6662009ae78f21dd82fcd179","6662038fe4bde838531ff44b","null","","null","","","","","","","","./tasks/HMM-beads/Images/WhiteBeadChoiceCorrect.png","","","","","","","","","",""
"image-keyboard-response","232","275353","0.0-3.0-6.0-1.0-0.32","63dc047be4fc60aacae88fbe","6662009ae78f21dd82fcd179","6662038fe4bde838531ff44b","423","","j","","","","","","","","./tasks/HMM-beads/Images/NewTrialWC.png","lowH","1","32","1","1","1","1","true","",""
"image-keyboard-response","233","275656","0.0-3.0-6.0-1.0-1.32","63dc047be4fc60aacae88fbe","6662009ae78f21dd82fcd179","6662038fe4bde838531ff44b","null","","null","","","","","","","","./tasks/HMM-beads/Images/WhiteBeadChoice.png","","","","","","","","","",""
"image-keyboard-response","234","276163","0.0-3.0-6.0-1.0-2.32","63dc047be4fc60aacae88fbe","6662009ae78f21dd82fcd179","6662038fe4bde838531ff44b","null","","null","","","","","","","","./tasks/HMM-beads/Images/WhiteBeadChoiceCorrect.png","","","","","","","","","",""
"image-keyboard-response","235","276392","0.0-3.0-6.0-1.0-0.33","63dc047be4fc60aacae88fbe","6662009ae78f21dd82fcd179","6662038fe4bde838531ff44b","228","","f","","","","","","","","./tasks/HMM-beads/Images/NewTrialWC.png","lowH","1","33","1","1","1","0","false","",""
"image-keyboard-response","236","276704","0.0-3.0-6.0-1.0-1.33","63dc047be4fc60aacae88fbe","6662009ae78f21dd82fcd179","6662038fe4bde838531ff44b","null","","null","","","","","","","","./tasks/HMM-beads/Images/BlackBeadChoice.png","","","","","","","","","",""
"image-keyboard-response","237","277217","0.0-3.0-6.0-1.0-2.33","63dc047be4fc60aacae88fbe","6662009ae78f21dd82fcd179","6662038fe4bde838531ff44b","null","","null","","","","","","","","./tasks/HMM-beads/Images/BlackBeadChoiceWrong.png","","","","","","","","","",""
"image-keyboard-response","238","277556","0.0-3.0-6.0-1.0-0.34","63dc047be4fc60aacae88fbe","6662009ae78f21dd82fcd179","6662038fe4bde838531ff44b","337","","f","","","","","","","","./tasks/HMM-beads/Images/NewTrialWC.png","lowH","1","34","1","1","1","0","false","",""
"image-keyboard-response","239","277862","0.0-3.0-6.0-1.0-1.34","63dc047be4fc60aacae88fbe","6662009ae78f21dd82fcd179","6662038fe4bde838531ff44b","null","","null","","","","","","","","./tasks/HMM-beads/Images/BlackBeadChoice.png","","","","","","","","","",""
"image-keyboard-response","240","278364","0.0-3.0-6.0-1.0-2.34","63dc047be4fc60aacae88fbe","6662009ae78f21dd82fcd179","6662038fe4bde838531ff44b","null","","null","","","","","","","","./tasks/HMM-beads/Images/BlackBeadChoiceWrong.png","","","","","","","","","",""
"image-keyboard-response","241","278401","0.0-3.0-6.0-1.0-0.35","63dc047be4fc60aacae88fbe","6662009ae78f21dd82fcd179","6662038fe4bde838531ff44b","36","","j","","","","","","","","./tasks/HMM-beads/Images/NewTrialWC.png","lowH","1","35","1","1","1","1","true","",""
"image-keyboard-response","242","278712","0.0-3.0-6.0-1.0-1.35","63dc047be4fc60aacae88fbe","6662009ae78f21dd82fcd179","6662038fe4bde838531ff44b","null","","null","","","","","","","","./tasks/HMM-beads/Images/WhiteBeadChoice.png","","","","","","","","","",""
"image-keyboard-response","243","279232","0.0-3.0-6.0-1.0-2.35","63dc047be4fc60aacae88fbe","6662009ae78f21dd82fcd179","6662038fe4bde838531ff44b","null","","null","","","","","","","","./tasks/HMM-beads/Images/WhiteBeadChoiceCorrect.png","","","","","","","","","",""
"image-keyboard-response","244","279579","0.0-3.0-6.0-1.0-0.36","63dc047be4fc60aacae88fbe","6662009ae78f21dd82fcd179","6662038fe4bde838531ff44b","346","","j","","","","","","","","./tasks/HMM-beads/Images/NewTrialWC.png","lowH","1","36","1","1","1","1","true","",""
"image-keyboard-response","245","279890","0.0-3.0-6.0-1.0-1.36","63dc047be4fc60aacae88fbe","6662009ae78f21dd82fcd179","6662038fe4bde838531ff44b","null","","null","","","","","","","","./tasks/HMM-beads/Images/WhiteBeadChoice.png","","","","","","","","","",""
"image-keyboard-response","246","280401","0.0-3.0-6.0-1.0-2.36","63dc047be4fc60aacae88fbe","6662009ae78f21dd82fcd179","6662038fe4bde838531ff44b","null","","null","","","","","","","","./tasks/HMM-beads/Images/WhiteBeadChoiceCorrect.png","","","","","","","","","",""
"image-keyboard-response","247","280751","0.0-3.0-6.0-1.0-0.37","63dc047be4fc60aacae88fbe","6662009ae78f21dd82fcd179","6662038fe4bde838531ff44b","350","","j","","","","","","","","./tasks/HMM-beads/Images/NewTrialWC.png","lowH","1","37","1","1","1","1","true","",""
"image-keyboard-response","248","281056","0.0-3.0-6.0-1.0-1.37","63dc047be4fc60aacae88fbe","6662009ae78f21dd82fcd179","6662038fe4bde838531ff44b","null","","null","","","","","","","","./tasks/HMM-beads/Images/WhiteBeadChoice.png","","","","","","","","","",""
"image-keyboard-response","249","281561","0.0-3.0-6.0-1.0-2.37","63dc047be4fc60aacae88fbe","6662009ae78f21dd82fcd179","6662038fe4bde838531ff44b","null","","null","","","","","","","","./tasks/HMM-beads/Images/WhiteBeadChoiceCorrect.png","","","","","","","","","",""
"image-keyboard-response","250","281931","0.0-3.0-6.0-1.0-0.38","63dc047be4fc60aacae88fbe","6662009ae78f21dd82fcd179","6662038fe4bde838531ff44b","369","","j","","","","","","","","./tasks/HMM-beads/Images/NewTrialWC.png","lowH","1","38","1","1","1","1","true","",""
"image-keyboard-response","251","282242","0.0-3.0-6.0-1.0-1.38","63dc047be4fc60aacae88fbe","6662009ae78f21dd82fcd179","6662038fe4bde838531ff44b","null","","null","","","","","","","","./tasks/HMM-beads/Images/WhiteBeadChoice.png","","","","","","","","","",""
"image-keyboard-response","252","282745","0.0-3.0-6.0-1.0-2.38","63dc047be4fc60aacae88fbe","6662009ae78f21dd82fcd179","6662038fe4bde838531ff44b","null","","null","","","","","","","","./tasks/HMM-beads/Images/WhiteBeadChoiceCorrect.png","","","","","","","","","",""
"image-keyboard-response","253","282818","0.0-3.0-6.0-1.0-0.39","63dc047be4fc60aacae88fbe","6662009ae78f21dd82fcd179","6662038fe4bde838531ff44b","71","","j","","","","","","","","./tasks/HMM-beads/Images/NewTrialWC.png","lowH","1","39","1","1","1","1","true","",""
"image-keyboard-response","254","283128","0.0-3.0-6.0-1.0-1.39","63dc047be4fc60aacae88fbe","6662009ae78f21dd82fcd179","6662038fe4bde838531ff44b","null","","null","","","","","","","","./tasks/HMM-beads/Images/WhiteBeadChoice.png","","","","","","","","","",""
"image-keyboard-response","255","283636","0.0-3.0-6.0-1.0-2.39","63dc047be4fc60aacae88fbe","6662009ae78f21dd82fcd179","6662038fe4bde838531ff44b","null","","null","","","","","","","","./tasks/HMM-beads/Images/WhiteBeadChoiceCorrect.png","","","","","","","","","",""
"image-keyboard-response","256","284028","0.0-3.0-6.0-1.0-0.40","63dc047be4fc60aacae88fbe","6662009ae78f21dd82fcd179","6662038fe4bde838531ff44b","387","","j","","","","","","","","./tasks/HMM-beads/Images/NewTrialWC.png","lowH","1","40","1","1","1","1","true","",""
"image-keyboard-response","257","284330","0.0-3.0-6.0-1.0-1.40","63dc047be4fc60aacae88fbe","6662009ae78f21dd82fcd179","6662038fe4bde838531ff44b","null","","null","","","","","","","","./tasks/HMM-beads/Images/WhiteBeadChoice.png","","","","","","","","","",""
"image-keyboard-response","258","284845","0.0-3.0-6.0-1.0-2.40","63dc047be4fc60aacae88fbe","6662009ae78f21dd82fcd179","6662038fe4bde838531ff44b","null","","null","","","","","","","","./tasks/HMM-beads/Images/WhiteBeadChoiceCorrect.png","","","","","","","","","",""
"image-keyboard-response","259","285054","0.0-3.0-6.0-1.0-0.41","63dc047be4fc60aacae88fbe","6662009ae78f21dd82fcd179","6662038fe4bde838531ff44b","208","","j","","","","","","","","./tasks/HMM-beads/Images/NewTrialWC.png","lowH","1","41","1","1","1","1","true","",""
"image-keyboard-response","260","285359","0.0-3.0-6.0-1.0-1.41","63dc047be4fc60aacae88fbe","6662009ae78f21dd82fcd179","6662038fe4bde838531ff44b","null","","null","","","","","","","","./tasks/HMM-beads/Images/WhiteBeadChoice.png","","","","","","","","","",""
"image-keyboard-response","261","285868","0.0-3.0-6.0-1.0-2.41","63dc047be4fc60aacae88fbe","6662009ae78f21dd82fcd179","6662038fe4bde838531ff44b","null","","null","","","","","","","","./tasks/HMM-beads/Images/WhiteBeadChoiceCorrect.png","","","","","","","","","",""
"image-keyboard-response","262","285973","0.0-3.0-6.0-1.0-0.42","63dc047be4fc60aacae88fbe","6662009ae78f21dd82fcd179","6662038fe4bde838531ff44b","104","","j","","","","","","","","./tasks/HMM-beads/Images/NewTrialWC.png","lowH","1","42","1","1","1","1","true","",""
"image-keyboard-response","263","286289","0.0-3.0-6.0-1.0-1.42","63dc047be4fc60aacae88fbe","6662009ae78f21dd82fcd179","6662038fe4bde838531ff44b","null","","null","","","","","","","","./tasks/HMM-beads/Images/WhiteBeadChoice.png","","","","","","","","","",""
"image-keyboard-response","264","286794","0.0-3.0-6.0-1.0-2.42","63dc047be4fc60aacae88fbe","6662009ae78f21dd82fcd179","6662038fe4bde838531ff44b","null","","null","","","","","","","","./tasks/HMM-beads/Images/WhiteBeadChoiceCorrect.png","","","","","","","","","",""
"image-keyboard-response","265","286952","0.0-3.0-6.0-1.0-0.43","63dc047be4fc60aacae88fbe","6662009ae78f21dd82fcd179","6662038fe4bde838531ff44b","156","","j","","","","","","","","./tasks/HMM-beads/Images/NewTrialWC.png","lowH","1","43","1","1","1","1","true","",""
"image-keyboard-response","266","287264","0.0-3.0-6.0-1.0-1.43","63dc047be4fc60aacae88fbe","6662009ae78f21dd82fcd179","6662038fe4bde838531ff44b","null","","null","","","","","","","","./tasks/HMM-beads/Images/WhiteBeadChoice.png","","","","","","","","","",""
"image-keyboard-response","267","287775","0.0-3.0-6.0-1.0-2.43","63dc047be4fc60aacae88fbe","6662009ae78f21dd82fcd179","6662038fe4bde838531ff44b","null","","null","","","","","","","","./tasks/HMM-beads/Images/WhiteBeadChoiceCorrect.png","","","","","","","","","",""
"image-keyboard-response","268","288205","0.0-3.0-6.0-1.0-0.44","63dc047be4fc60aacae88fbe","6662009ae78f21dd82fcd179","6662038fe4bde838531ff44b","428","","j","","","","","","","","./tasks/HMM-beads/Images/NewTrialWC.png","lowH","1","44","1","1","1","1","true","",""
"image-keyboard-response","269","288516","0.0-3.0-6.0-1.0-1.44","63dc047be4fc60aacae88fbe","6662009ae78f21dd82fcd179","6662038fe4bde838531ff44b","null","","null","","","","","","","","./tasks/HMM-beads/Images/WhiteBeadChoice.png","","","","","","","","","",""
"image-keyboard-response","270","289018","0.0-3.0-6.0-1.0-2.44","63dc047be4fc60aacae88fbe","6662009ae78f21dd82fcd179","6662038fe4bde838531ff44b","null","","null","","","","","","","","./tasks/HMM-beads/Images/WhiteBeadChoiceCorrect.png","","","","","","","","","",""
"image-keyboard-response","271","289133","0.0-3.0-6.0-1.0-0.45","63dc047be4fc60aacae88fbe","6662009ae78f21dd82fcd179","6662038fe4bde838531ff44b","114","","f","","","","","","","","./tasks/HMM-beads/Images/NewTrialWC.png","lowH","1","45","1","1","1","0","false","",""
"image-keyboard-response","272","289444","0.0-3.0-6.0-1.0-1.45","63dc047be4fc60aacae88fbe","6662009ae78f21dd82fcd179","6662038fe4bde838531ff44b","null","","null","","","","","","","","./tasks/HMM-beads/Images/BlackBeadChoice.png","","","","","","","","","",""
"image-keyboard-response","273","289946","0.0-3.0-6.0-1.0-2.45","63dc047be4fc60aacae88fbe","6662009ae78f21dd82fcd179","6662038fe4bde838531ff44b","null","","null","","","","","","","","./tasks/HMM-beads/Images/BlackBeadChoiceWrong.png","","","","","","","","","",""
"image-keyboard-response","274","289968","0.0-3.0-6.0-1.0-0.46","63dc047be4fc60aacae88fbe","6662009ae78f21dd82fcd179","6662038fe4bde838531ff44b","22","","j","","","","","","","","./tasks/HMM-beads/Images/NewTrialWC.png","lowH","1","46","1","1","1","1","true","",""
"image-keyboard-response","275","290283","0.0-3.0-6.0-1.0-1.46","63dc047be4fc60aacae88fbe","6662009ae78f21dd82fcd179","6662038fe4bde838531ff44b","null","","null","","","","","","","","./tasks/HMM-beads/Images/WhiteBeadChoice.png","","","","","","","","","",""
"image-keyboard-response","276","290792","0.0-3.0-6.0-1.0-2.46","63dc047be4fc60aacae88fbe","6662009ae78f21dd82fcd179","6662038fe4bde838531ff44b","null","","null","","","","","","","","./tasks/HMM-beads/Images/WhiteBeadChoiceCorrect.png","","","","","","","","","",""
"image-keyboard-response","277","291131","0.0-3.0-6.0-1.0-0.47","63dc047be4fc60aacae88fbe","6662009ae78f21dd82fcd179","6662038fe4bde838531ff44b","338","","j","","","","","","","","./tasks/HMM-beads/Images/NewTrialWC.png","lowH","1","47","1","0","1","1","false","",""
"image-keyboard-response","278","291442","0.0-3.0-6.0-1.0-1.47","63dc047be4fc60aacae88fbe","6662009ae78f21dd82fcd179","6662038fe4bde838531ff44b","null","","null","","","","","","","","./tasks/HMM-beads/Images/WhiteBeadChoice.png","","","","","","","","","",""
"image-keyboard-response","279","291944","0.0-3.0-6.0-1.0-2.47","63dc047be4fc60aacae88fbe","6662009ae78f21dd82fcd179","6662038fe4bde838531ff44b","null","","null","","","","","","","","./tasks/HMM-beads/Images/WhiteBeadChoiceWrong.png","","","","","","","","","",""
"image-keyboard-response","280","292252","0.0-3.0-6.0-1.0-0.48","63dc047be4fc60aacae88fbe","6662009ae78f21dd82fcd179","6662038fe4bde838531ff44b","307","","j","","","","","","","","./tasks/HMM-beads/Images/NewTrialBC.png","lowH","1","48","1","0","0","1","false","",""
"image-keyboard-response","281","292565","0.0-3.0-6.0-1.0-1.48","63dc047be4fc60aacae88fbe","6662009ae78f21dd82fcd179","6662038fe4bde838531ff44b","null","","null","","","","","","","","./tasks/HMM-beads/Images/WhiteBeadChoice.png","","","","","","","","","",""
"image-keyboard-response","282","293071","0.0-3.0-6.0-1.0-2.48","63dc047be4fc60aacae88fbe","6662009ae78f21dd82fcd179","6662038fe4bde838531ff44b","null","","null","","","","","","","","./tasks/HMM-beads/Images/WhiteBeadChoiceWrong.png","","","","","","","","","",""
"image-keyboard-response","283","293364","0.0-3.0-6.0-1.0-0.49","63dc047be4fc60aacae88fbe","6662009ae78f21dd82fcd179","6662038fe4bde838531ff44b","291","","f","","","","","","","","./tasks/HMM-beads/Images/NewTrialBC.png","lowH","1","49","1","0","0","0","true","",""
"image-keyboard-response","284","293673","0.0-3.0-6.0-1.0-1.49","63dc047be4fc60aacae88fbe","6662009ae78f21dd82fcd179","6662038fe4bde838531ff44b","null","","null","","","","","","","","./tasks/HMM-beads/Images/BlackBeadChoice.png","","","","","","","","","",""
"image-keyboard-response","285","294190","0.0-3.0-6.0-1.0-2.49","63dc047be4fc60aacae88fbe","6662009ae78f21dd82fcd179","6662038fe4bde838531ff44b","null","","null","","","","","","","","./tasks/HMM-beads/Images/BlackBeadChoiceCorrect.png","","","","","","","","","",""
"image-keyboard-response","286","294396","0.0-3.0-6.0-1.0-0.50","63dc047be4fc60aacae88fbe","6662009ae78f21dd82fcd179","6662038fe4bde838531ff44b","205","","f","","","","","","","","./tasks/HMM-beads/Images/NewTrialBC.png","lowH","1","50","1","1","0","0","false","",""
"image-keyboard-response","287","294701","0.0-3.0-6.0-1.0-1.50","63dc047be4fc60aacae88fbe","6662009ae78f21dd82fcd179","6662038fe4bde838531ff44b","null","","null","","","","","","","","./tasks/HMM-beads/Images/BlackBeadChoice.png","","","","","","","","","",""
"image-keyboard-response","288","295216","0.0-3.0-6.0-1.0-2.50","63dc047be4fc60aacae88fbe","6662009ae78f21dd82fcd179","6662038fe4bde838531ff44b","null","","null","","","","","","","","./tasks/HMM-beads/Images/BlackBeadChoiceWrong.png","","","","","","","","","",""
"image-keyboard-response","289","295516","0.0-3.0-6.0-1.0-0.51","63dc047be4fc60aacae88fbe","6662009ae78f21dd82fcd179","6662038fe4bde838531ff44b","299","","f","","","","","","","","./tasks/HMM-beads/Images/NewTrialWC.png","lowH","1","51","1","1","1","0","false","",""
"image-keyboard-response","290","295821","0.0-3.0-6.0-1.0-1.51","63dc047be4fc60aacae88fbe","6662009ae78f21dd82fcd179","6662038fe4bde838531ff44b","null","","null","","","","","","","","./tasks/HMM-beads/Images/BlackBeadChoice.png","","","","","","","","","",""
"image-keyboard-response","291","296338","0.0-3.0-6.0-1.0-2.51","63dc047be4fc60aacae88fbe","6662009ae78f21dd82fcd179","6662038fe4bde838531ff44b","null","","null","","","","","","","","./tasks/HMM-beads/Images/BlackBeadChoiceWrong.png","","","","","","","","","",""
"image-keyboard-response","292","296573","0.0-3.0-6.0-1.0-0.52","63dc047be4fc60aacae88fbe","6662009ae78f21dd82fcd179","6662038fe4bde838531ff44b","234","","j","","","","","","","","./tasks/HMM-beads/Images/NewTrialWC.png","lowH","1","52","1","1","1","1","true","",""
"image-keyboard-response","293","296888","0.0-3.0-6.0-1.0-1.52","63dc047be4fc60aacae88fbe","6662009ae78f21dd82fcd179","6662038fe4bde838531ff44b","null","","null","","","","","","","","./tasks/HMM-beads/Images/WhiteBeadChoice.png","","","","","","","","","",""
"image-keyboard-response","294","297391","0.0-3.0-6.0-1.0-2.52","63dc047be4fc60aacae88fbe","6662009ae78f21dd82fcd179","6662038fe4bde838531ff44b","null","","null","","","","","","","","./tasks/HMM-beads/Images/WhiteBeadChoiceCorrect.png","","","","","","","","","",""
"image-keyboard-response","295","297815","0.0-3.0-6.0-1.0-0.53","63dc047be4fc60aacae88fbe","6662009ae78f21dd82fcd179","6662038fe4bde838531ff44b","420","","j","","","","","","","","./tasks/HMM-beads/Images/NewTrialWC.png","lowH","1","53","1","1","1","1","true","",""
"image-keyboard-response","296","298123","0.0-3.0-6.0-1.0-1.53","63dc047be4fc60aacae88fbe","6662009ae78f21dd82fcd179","6662038fe4bde838531ff44b","null","","null","","","","","","","","./tasks/HMM-beads/Images/WhiteBeadChoice.png","","","","","","","","","",""
"image-keyboard-response","297","298628","0.0-3.0-6.0-1.0-2.53","63dc047be4fc60aacae88fbe","6662009ae78f21dd82fcd179","6662038fe4bde838531ff44b","null","","null","","","","","","","","./tasks/HMM-beads/Images/WhiteBeadChoiceCorrect.png","","","","","","","","","",""
"image-keyboard-response","298","298975","0.0-3.0-6.0-1.0-0.54","63dc047be4fc60aacae88fbe","6662009ae78f21dd82fcd179","6662038fe4bde838531ff44b","346","","j","","","","","","","","./tasks/HMM-beads/Images/NewTrialWC.png","lowH","1","54","1","1","1","1","true","",""
"image-keyboard-response","299","299285","0.0-3.0-6.0-1.0-1.54","63dc047be4fc60aacae88fbe","6662009ae78f21dd82fcd179","6662038fe4bde838531ff44b","null","","null","","","","","","","","./tasks/HMM-beads/Images/WhiteBeadChoice.png","","","","","","","","","",""
"image-keyboard-response","300","299787","0.0-3.0-6.0-1.0-2.54","63dc047be4fc60aacae88fbe","6662009ae78f21dd82fcd179","6662038fe4bde838531ff44b","null","","null","","","","","","","","./tasks/HMM-beads/Images/WhiteBeadChoiceCorrect.png","","","","","","","","","",""
"image-keyboard-response","301","299997","0.0-3.0-6.0-1.0-0.55","63dc047be4fc60aacae88fbe","6662009ae78f21dd82fcd179","6662038fe4bde838531ff44b","209","","j","","","","","","","","./tasks/HMM-beads/Images/NewTrialWC.png","lowH","1","55","1","1","1","1","true","",""
"image-keyboard-response","302","300305","0.0-3.0-6.0-1.0-1.55","63dc047be4fc60aacae88fbe","6662009ae78f21dd82fcd179","6662038fe4bde838531ff44b","null","","null","","","","","","","","./tasks/HMM-beads/Images/WhiteBeadChoice.png","","","","","","","","","",""
"image-keyboard-response","303","300810","0.0-3.0-6.0-1.0-2.55","63dc047be4fc60aacae88fbe","6662009ae78f21dd82fcd179","6662038fe4bde838531ff44b","null","","null","","","","","","","","./tasks/HMM-beads/Images/WhiteBeadChoiceCorrect.png","","","","","","","","","",""
"image-keyboard-response","304","301094","0.0-3.0-6.0-1.0-0.56","63dc047be4fc60aacae88fbe","6662009ae78f21dd82fcd179","6662038fe4bde838531ff44b","283","","j","","","","","","","","./tasks/HMM-beads/Images/NewTrialWC.png","lowH","1","56","1","1","1","1","true","",""
"image-keyboard-response","305","301407","0.0-3.0-6.0-1.0-1.56","63dc047be4fc60aacae88fbe","6662009ae78f21dd82fcd179","6662038fe4bde838531ff44b","null","","null","","","","","","","","./tasks/HMM-beads/Images/WhiteBeadChoice.png","","","","","","","","","",""
"image-keyboard-response","306","301916","0.0-3.0-6.0-1.0-2.56","63dc047be4fc60aacae88fbe","6662009ae78f21dd82fcd179","6662038fe4bde838531ff44b","null","","null","","","","","","","","./tasks/HMM-beads/Images/WhiteBeadChoiceCorrect.png","","","","","","","","","",""
"image-keyboard-response","307","302187","0.0-3.0-6.0-1.0-0.57","63dc047be4fc60aacae88fbe","6662009ae78f21dd82fcd179","6662038fe4bde838531ff44b","271","","j","","","","","","","","./tasks/HMM-beads/Images/NewTrialWC.png","lowH","1","57","1","1","1","1","true","",""
"image-keyboard-response","308","302501","0.0-3.0-6.0-1.0-1.57","63dc047be4fc60aacae88fbe","6662009ae78f21dd82fcd179","6662038fe4bde838531ff44b","null","","null","","","","","","","","./tasks/HMM-beads/Images/WhiteBeadChoice.png","","","","","","","","","",""
"image-keyboard-response","309","303006","0.0-3.0-6.0-1.0-2.57","63dc047be4fc60aacae88fbe","6662009ae78f21dd82fcd179","6662038fe4bde838531ff44b","null","","null","","","","","","","","./tasks/HMM-beads/Images/WhiteBeadChoiceCorrect.png","","","","","","","","","",""
"image-keyboard-response","310","303266","0.0-3.0-6.0-1.0-0.58","63dc047be4fc60aacae88fbe","6662009ae78f21dd82fcd179","6662038fe4bde838531ff44b","259","","j","","","","","","","","./tasks/HMM-beads/Images/NewTrialWC.png","lowH","1","58","1","1","1","1","true","",""
"image-keyboard-response","311","303568","0.0-3.0-6.0-1.0-1.58","63dc047be4fc60aacae88fbe","6662009ae78f21dd82fcd179","6662038fe4bde838531ff44b","null","","null","","","","","","","","./tasks/HMM-beads/Images/WhiteBeadChoice.png","","","","","","","","","",""
"image-keyboard-response","312","304070","0.0-3.0-6.0-1.0-2.58","63dc047be4fc60aacae88fbe","6662009ae78f21dd82fcd179","6662038fe4bde838531ff44b","null","","null","","","","","","","","./tasks/HMM-beads/Images/WhiteBeadChoiceCorrect.png","","","","","","","","","",""
"image-keyboard-response","313","304304","0.0-3.0-6.0-1.0-0.59","63dc047be4fc60aacae88fbe","6662009ae78f21dd82fcd179","6662038fe4bde838531ff44b","233","","j","","","","","","","","./tasks/HMM-beads/Images/NewTrialWC.png","lowH","1","59","1","0","1","1","false","",""
"image-keyboard-response","314","304606","0.0-3.0-6.0-1.0-1.59","63dc047be4fc60aacae88fbe","6662009ae78f21dd82fcd179","6662038fe4bde838531ff44b","null","","null","","","","","","","","./tasks/HMM-beads/Images/WhiteBeadChoice.png","","","","","","","","","",""
"image-keyboard-response","315","305110","0.0-3.0-6.0-1.0-2.59","63dc047be4fc60aacae88fbe","6662009ae78f21dd82fcd179","6662038fe4bde838531ff44b","null","","null","","","","","","","","./tasks/HMM-beads/Images/WhiteBeadChoiceWrong.png","","","","","","","","","",""
"image-keyboard-response","316","305375","0.0-3.0-6.0-1.0-0.60","63dc047be4fc60aacae88fbe","6662009ae78f21dd82fcd179","6662038fe4bde838531ff44b","264","","j","","","","","","","","./tasks/HMM-beads/Images/NewTrialBC.png","lowH","1","60","1","1","0","1","true","",""
"image-keyboard-response","317","305691","0.0-3.0-6.0-1.0-1.60","63dc047be4fc60aacae88fbe","6662009ae78f21dd82fcd179","6662038fe4bde838531ff44b","null","","null","","","","","","","","./tasks/HMM-beads/Images/WhiteBeadChoice.png","","","","","","","","","",""
"image-keyboard-response","318","306196","0.0-3.0-6.0-1.0-2.60","63dc047be4fc60aacae88fbe","6662009ae78f21dd82fcd179","6662038fe4bde838531ff44b","null","","null","","","","","","","","./tasks/HMM-beads/Images/WhiteBeadChoiceCorrect.png","","","","","","","","","",""
"image-keyboard-response","319","306393","0.0-3.0-6.0-1.0-0.61","63dc047be4fc60aacae88fbe","6662009ae78f21dd82fcd179","6662038fe4bde838531ff44b","196","","j","","","","","","","","./tasks/HMM-beads/Images/NewTrialWC.png","lowH","1","61","1","1","1","1","true","",""
"image-keyboard-response","320","306708","0.0-3.0-6.0-1.0-1.61","63dc047be4fc60aacae88fbe","6662009ae78f21dd82fcd179","6662038fe4bde838531ff44b","null","","null","","","","","","","","./tasks/HMM-beads/Images/WhiteBeadChoice.png","","","","","","","","","",""
"image-keyboard-response","321","307219","0.0-3.0-6.0-1.0-2.61","63dc047be4fc60aacae88fbe","6662009ae78f21dd82fcd179","6662038fe4bde838531ff44b","null","","null","","","","","","","","./tasks/HMM-beads/Images/WhiteBeadChoiceCorrect.png","","","","","","","","","",""
"image-keyboard-response","322","307447","0.0-3.0-6.0-1.0-0.62","63dc047be4fc60aacae88fbe","6662009ae78f21dd82fcd179","6662038fe4bde838531ff44b","227","","j","","","","","","","","./tasks/HMM-beads/Images/NewTrialWC.png","lowH","1","62","1","0","1","1","false","",""
"image-keyboard-response","323","307751","0.0-3.0-6.0-1.0-1.62","63dc047be4fc60aacae88fbe","6662009ae78f21dd82fcd179","6662038fe4bde838531ff44b","null","","null","","","","","","","","./tasks/HMM-beads/Images/WhiteBeadChoice.png","","","","","","","","","",""
"image-keyboard-response","324","308253","0.0-3.0-6.0-1.0-2.62","63dc047be4fc60aacae88fbe","6662009ae78f21dd82fcd179","6662038fe4bde838531ff44b","null","","null","","","","","","","","./tasks/HMM-beads/Images/WhiteBeadChoiceWrong.png","","","","","","","","","",""
"image-keyboard-response","325","308384","0.0-3.0-6.0-1.0-0.63","63dc047be4fc60aacae88fbe","6662009ae78f21dd82fcd179","6662038fe4bde838531ff44b","130","","j","","","","","","","","./tasks/HMM-beads/Images/NewTrialBC.png","lowH","1","63","1","1","0","1","true","",""
"image-keyboard-response","326","308688","0.0-3.0-6.0-1.0-1.63","63dc047be4fc60aacae88fbe","6662009ae78f21dd82fcd179","6662038fe4bde838531ff44b","null","","null","","","","","","","","./tasks/HMM-beads/Images/WhiteBeadChoice.png","","","","","","","","","",""
"image-keyboard-response","327","309195","0.0-3.0-6.0-1.0-2.63","63dc047be4fc60aacae88fbe","6662009ae78f21dd82fcd179","6662038fe4bde838531ff44b","null","","null","","","","","","","","./tasks/HMM-beads/Images/WhiteBeadChoiceCorrect.png","","","","","","","","","",""
"image-keyboard-response","328","309310","0.0-3.0-6.0-1.0-0.64","63dc047be4fc60aacae88fbe","6662009ae78f21dd82fcd179","6662038fe4bde838531ff44b","114","","j","","","","","","","","./tasks/HMM-beads/Images/NewTrialWC.png","lowH","1","64","1","1","1","1","true","",""
"image-keyboard-response","329","309617","0.0-3.0-6.0-1.0-1.64","63dc047be4fc60aacae88fbe","6662009ae78f21dd82fcd179","6662038fe4bde838531ff44b","null","","null","","","","","","","","./tasks/HMM-beads/Images/WhiteBeadChoice.png","","","","","","","","","",""
"image-keyboard-response","330","310120","0.0-3.0-6.0-1.0-2.64","63dc047be4fc60aacae88fbe","6662009ae78f21dd82fcd179","6662038fe4bde838531ff44b","null","","null","","","","","","","","./tasks/HMM-beads/Images/WhiteBeadChoiceCorrect.png","","","","","","","","","",""
"image-keyboard-response","331","310302","0.0-3.0-6.0-1.0-0.65","63dc047be4fc60aacae88fbe","6662009ae78f21dd82fcd179","6662038fe4bde838531ff44b","181","","j","","","","","","","","./tasks/HMM-beads/Images/NewTrialWC.png","lowH","1","65","1","1","1","1","true","",""
"image-keyboard-response","332","310618","0.0-3.0-6.0-1.0-1.65","63dc047be4fc60aacae88fbe","6662009ae78f21dd82fcd179","6662038fe4bde838531ff44b","null","","null","","","","","","","","./tasks/HMM-beads/Images/WhiteBeadChoice.png","","","","","","","","","",""
"image-keyboard-response","333","311120","0.0-3.0-6.0-1.0-2.65","63dc047be4fc60aacae88fbe","6662009ae78f21dd82fcd179","6662038fe4bde838531ff44b","null","","null","","","","","","","","./tasks/HMM-beads/Images/WhiteBeadChoiceCorrect.png","","","","","","","","","",""
"image-keyboard-response","334","311136","0.0-3.0-6.0-1.0-0.66","63dc047be4fc60aacae88fbe","6662009ae78f21dd82fcd179","6662038fe4bde838531ff44b","11","","j","","","","","","","","./tasks/HMM-beads/Images/NewTrialWC.png","lowH","1","66","1","1","1","1","true","",""
"image-keyboard-response","335","311445","0.0-3.0-6.0-1.0-1.66","63dc047be4fc60aacae88fbe","6662009ae78f21dd82fcd179","6662038fe4bde838531ff44b","null","","null","","","","","","","","./tasks/HMM-beads/Images/WhiteBeadChoice.png","","","","","","","","","",""
"image-keyboard-response","336","311948","0.0-3.0-6.0-1.0-2.66","63dc047be4fc60aacae88fbe","6662009ae78f21dd82fcd179","6662038fe4bde838531ff44b","null","","null","","","","","","","","./tasks/HMM-beads/Images/WhiteBeadChoiceCorrect.png","","","","","","","","","",""
"image-keyboard-response","337","312172","0.0-3.0-6.0-1.0-0.67","63dc047be4fc60aacae88fbe","6662009ae78f21dd82fcd179","6662038fe4bde838531ff44b","223","","j","","","","","","","","./tasks/HMM-beads/Images/NewTrialWC.png","lowH","1","67","1","0","1","1","false","",""
"image-keyboard-response","338","312478","0.0-3.0-6.0-1.0-1.67","63dc047be4fc60aacae88fbe","6662009ae78f21dd82fcd179","6662038fe4bde838531ff44b","null","","null","","","","","","","","./tasks/HMM-beads/Images/WhiteBeadChoice.png","","","","","","","","","",""
"image-keyboard-response","339","312992","0.0-3.0-6.0-1.0-2.67","63dc047be4fc60aacae88fbe","6662009ae78f21dd82fcd179","6662038fe4bde838531ff44b","null","","null","","","","","","","","./tasks/HMM-beads/Images/WhiteBeadChoiceWrong.png","","","","","","","","","",""
"image-keyboard-response","340","313184","0.0-3.0-6.0-1.0-0.68","63dc047be4fc60aacae88fbe","6662009ae78f21dd82fcd179","6662038fe4bde838531ff44b","191","","j","","","","","","","","./tasks/HMM-beads/Images/NewTrialBC.png","lowH","1","68","1","1","0","1","true","",""
"image-keyboard-response","341","313500","0.0-3.0-6.0-1.0-1.68","63dc047be4fc60aacae88fbe","6662009ae78f21dd82fcd179","6662038fe4bde838531ff44b","null","","null","","","","","","","","./tasks/HMM-beads/Images/WhiteBeadChoice.png","","","","","","","","","",""
"image-keyboard-response","342","314002","0.0-3.0-6.0-1.0-2.68","63dc047be4fc60aacae88fbe","6662009ae78f21dd82fcd179","6662038fe4bde838531ff44b","null","","null","","","","","","","","./tasks/HMM-beads/Images/WhiteBeadChoiceCorrect.png","","","","","","","","","",""
"image-keyboard-response","343","314037","0.0-3.0-6.0-1.0-0.69","63dc047be4fc60aacae88fbe","6662009ae78f21dd82fcd179","6662038fe4bde838531ff44b","35","","j","","","","","","","","./tasks/HMM-beads/Images/NewTrialWC.png","lowH","1","69","0","1","1","1","true","",""
"image-keyboard-response","344","314350","0.0-3.0-6.0-1.0-1.69","63dc047be4fc60aacae88fbe","6662009ae78f21dd82fcd179","6662038fe4bde838531ff44b","null","","null","","","","","","","","./tasks/HMM-beads/Images/WhiteBeadChoice.png","","","","","","","","","",""
"image-keyboard-response","345","314852","0.0-3.0-6.0-1.0-2.69","63dc047be4fc60aacae88fbe","6662009ae78f21dd82fcd179","6662038fe4bde838531ff44b","null","","null","","","","","","","","./tasks/HMM-beads/Images/WhiteBeadChoiceCorrect.png","","","","","","","","","",""
"image-keyboard-response","346","315201","0.0-3.0-6.0-1.0-0.70","63dc047be4fc60aacae88fbe","6662009ae78f21dd82fcd179","6662038fe4bde838531ff44b","348","","j","","","","","","","","./tasks/HMM-beads/Images/NewTrialWC.png","lowH","1","70","0","1","1","1","true","",""
"image-keyboard-response","347","315511","0.0-3.0-6.0-1.0-1.70","63dc047be4fc60aacae88fbe","6662009ae78f21dd82fcd179","6662038fe4bde838531ff44b","null","","null","","","","","","","","./tasks/HMM-beads/Images/WhiteBeadChoice.png","","","","","","","","","",""
"image-keyboard-response","348","316021","0.0-3.0-6.0-1.0-2.70","63dc047be4fc60aacae88fbe","6662009ae78f21dd82fcd179","6662038fe4bde838531ff44b","null","","null","","","","","","","","./tasks/HMM-beads/Images/WhiteBeadChoiceCorrect.png","","","","","","","","","",""
"image-keyboard-response","349","316464","0.0-3.0-6.0-1.0-0.71","63dc047be4fc60aacae88fbe","6662009ae78f21dd82fcd179","6662038fe4bde838531ff44b","442","","j","","","","","","","","./tasks/HMM-beads/Images/NewTrialWC.png","lowH","1","71","0","0","1","1","false","",""
"image-keyboard-response","350","316777","0.0-3.0-6.0-1.0-1.71","63dc047be4fc60aacae88fbe","6662009ae78f21dd82fcd179","6662038fe4bde838531ff44b","null","","null","","","","","","","","./tasks/HMM-beads/Images/WhiteBeadChoice.png","","","","","","","","","",""
"image-keyboard-response","351","317286","0.0-3.0-6.0-1.0-2.71","63dc047be4fc60aacae88fbe","6662009ae78f21dd82fcd179","6662038fe4bde838531ff44b","null","","null","","","","","","","","./tasks/HMM-beads/Images/WhiteBeadChoiceWrong.png","","","","","","","","","",""
"image-keyboard-response","352","317567","0.0-3.0-6.0-1.0-0.72","63dc047be4fc60aacae88fbe","6662009ae78f21dd82fcd179","6662038fe4bde838531ff44b","280","","j","","","","","","","","./tasks/HMM-beads/Images/NewTrialBC.png","lowH","1","72","0","0","0","1","false","",""
"image-keyboard-response","353","317878","0.0-3.0-6.0-1.0-1.72","63dc047be4fc60aacae88fbe","6662009ae78f21dd82fcd179","6662038fe4bde838531ff44b","null","","null","","","","","","","","./tasks/HMM-beads/Images/WhiteBeadChoice.png","","","","","","","","","",""
"image-keyboard-response","354","318386","0.0-3.0-6.0-1.0-2.72","63dc047be4fc60aacae88fbe","6662009ae78f21dd82fcd179","6662038fe4bde838531ff44b","null","","null","","","","","","","","./tasks/HMM-beads/Images/WhiteBeadChoiceWrong.png","","","","","","","","","",""
"image-keyboard-response","355","318442","0.0-3.0-6.0-1.0-0.73","63dc047be4fc60aacae88fbe","6662009ae78f21dd82fcd179","6662038fe4bde838531ff44b","55","","f","","","","","","","","./tasks/HMM-beads/Images/NewTrialBC.png","lowH","1","73","0","1","0","0","false","",""
"image-keyboard-response","356","318748","0.0-3.0-6.0-1.0-1.73","63dc047be4fc60aacae88fbe","6662009ae78f21dd82fcd179","6662038fe4bde838531ff44b","null","","null","","","","","","","","./tasks/HMM-beads/Images/BlackBeadChoice.png","","","","","","","","","",""
"image-keyboard-response","357","319253","0.0-3.0-6.0-1.0-2.73","63dc047be4fc60aacae88fbe","6662009ae78f21dd82fcd179","6662038fe4bde838531ff44b","null","","null","","","","","","","","./tasks/HMM-beads/Images/BlackBeadChoiceWrong.png","","","","","","","","","",""
"image-keyboard-response","358","319712","0.0-3.0-6.0-1.0-0.74","63dc047be4fc60aacae88fbe","6662009ae78f21dd82fcd179","6662038fe4bde838531ff44b","458","","f","","","","","","","","./tasks/HMM-beads/Images/NewTrialWC.png","lowH","1","74","0","0","1","0","true","",""
"image-keyboard-response","359","320018","0.0-3.0-6.0-1.0-1.74","63dc047be4fc60aacae88fbe","6662009ae78f21dd82fcd179","6662038fe4bde838531ff44b","null","","null","","","","","","","","./tasks/HMM-beads/Images/BlackBeadChoice.png","","","","","","","","","",""
"image-keyboard-response","360","320525","0.0-3.0-6.0-1.0-2.74","63dc047be4fc60aacae88fbe","6662009ae78f21dd82fcd179","6662038fe4bde838531ff44b","null","","null","","","","","","","","./tasks/HMM-beads/Images/BlackBeadChoiceCorrect.png","","","","","","","","","",""
"image-keyboard-response","361","320893","0.0-3.0-6.0-1.0-0.75","63dc047be4fc60aacae88fbe","6662009ae78f21dd82fcd179","6662038fe4bde838531ff44b","367","","f","","","","","","","","./tasks/HMM-beads/Images/NewTrialBC.png","lowH","1","75","0","1","0","0","false","",""
"image-keyboard-response","362","321206","0.0-3.0-6.0-1.0-1.75","63dc047be4fc60aacae88fbe","6662009ae78f21dd82fcd179","6662038fe4bde838531ff44b","null","","null","","","","","","","","./tasks/HMM-beads/Images/BlackBeadChoice.png","","","","","","","","","",""
"image-keyboard-response","363","321717","0.0-3.0-6.0-1.0-2.75","63dc047be4fc60aacae88fbe","6662009ae78f21dd82fcd179","6662038fe4bde838531ff44b","null","","null","","","","","","","","./tasks/HMM-beads/Images/BlackBeadChoiceWrong.png","","","","","","","","","",""
"image-keyboard-response","364","322040","0.0-3.0-6.0-1.0-0.76","63dc047be4fc60aacae88fbe","6662009ae78f21dd82fcd179","6662038fe4bde838531ff44b","322","","f","","","","","","","","./tasks/HMM-beads/Images/NewTrialWC.png","lowH","1","76","0","1","1","0","false","",""
"image-keyboard-response","365","322345","0.0-3.0-6.0-1.0-1.76","63dc047be4fc60aacae88fbe","6662009ae78f21dd82fcd179","6662038fe4bde838531ff44b","null","","null","","","","","","","","./tasks/HMM-beads/Images/BlackBeadChoice.png","","","","","","","","","",""
"image-keyboard-response","366","322853","0.0-3.0-6.0-1.0-2.76","63dc047be4fc60aacae88fbe","6662009ae78f21dd82fcd179","6662038fe4bde838531ff44b","null","","null","","","","","","","","./tasks/HMM-beads/Images/BlackBeadChoiceWrong.png","","","","","","","","","",""
"image-keyboard-response","367","323291","0.0-3.0-6.0-1.0-0.77","63dc047be4fc60aacae88fbe","6662009ae78f21dd82fcd179","6662038fe4bde838531ff44b","437","","j","","","","","","","","./tasks/HMM-beads/Images/NewTrialWC.png","lowH","1","77","0","0","1","1","false","",""
"image-keyboard-response","368","323597","0.0-3.0-6.0-1.0-1.77","63dc047be4fc60aacae88fbe","6662009ae78f21dd82fcd179","6662038fe4bde838531ff44b","null","","null","","","","","","","","./tasks/HMM-beads/Images/WhiteBeadChoice.png","","","","","","","","","",""
"image-keyboard-response","369","324101","0.0-3.0-6.0-1.0-2.77","63dc047be4fc60aacae88fbe","6662009ae78f21dd82fcd179","6662038fe4bde838531ff44b","null","","null","","","","","","","","./tasks/HMM-beads/Images/WhiteBeadChoiceWrong.png","","","","","","","","","",""
"image-keyboard-response","370","324156","0.0-3.0-6.0-1.0-0.78","63dc047be4fc60aacae88fbe","6662009ae78f21dd82fcd179","6662038fe4bde838531ff44b","54","","f","","","","","","","","./tasks/HMM-beads/Images/NewTrialBC.png","lowH","1","78","0","0","0","0","true","",""
"image-keyboard-response","371","324470","0.0-3.0-6.0-1.0-1.78","63dc047be4fc60aacae88fbe","6662009ae78f21dd82fcd179","6662038fe4bde838531ff44b","null","","null","","","","","","","","./tasks/HMM-beads/Images/BlackBeadChoice.png","","","","","","","","","",""
"image-keyboard-response","372","324972","0.0-3.0-6.0-1.0-2.78","63dc047be4fc60aacae88fbe","6662009ae78f21dd82fcd179","6662038fe4bde838531ff44b","null","","null","","","","","","","","./tasks/HMM-beads/Images/BlackBeadChoiceCorrect.png","","","","","","","","","",""
"image-keyboard-response","373","325304","0.0-3.0-6.0-1.0-0.79","63dc047be4fc60aacae88fbe","6662009ae78f21dd82fcd179","6662038fe4bde838531ff44b","327","","f","","","","","","","","./tasks/HMM-beads/Images/NewTrialBC.png","lowH","1","79","0","0","0","0","true","",""
"image-keyboard-response","374","325617","0.0-3.0-6.0-1.0-1.79","63dc047be4fc60aacae88fbe","6662009ae78f21dd82fcd179","6662038fe4bde838531ff44b","null","","null","","","","","","","","./tasks/HMM-beads/Images/BlackBeadChoice.png","","","","","","","","","",""
