"trial_type","trial_index","time_elapsed","internal_node_id","subject_id","study_id","session_id","rt","url","response","question_order","view_history","success","timeout","failed_images","failed_audio","failed_video","stimulus","block","block_rep","trial_number","jar","bead","previous_bead","choice","correct","lowH_score","total_bonus"
"pavlovia","0","1333","0.0-0.0","6637136b0d2876a595d78394","6662009ae78f21dd82fcd179","66620a399474f26fc8eabb9b","","","","","","","","","","","","","","","","","","","","",""
"external-html","1","111722","0.0-1.0-0.0","6637136b0d2876a595d78394","6662009ae78f21dd82fcd179","66620a399474f26fc8eabb9b","110239","new_consent.html","","","","","","","","","","","","","","","","","","",""
"survey-multi-choice","2","121959","0.0-1.0-1.0","6637136b0d2876a595d78394","6662009ae78f21dd82fcd179","66620a399474f26fc8eabb9b","10234","","{""Q0"":""Female"",""Q1"":""White""}","[0,1]","","","","","","","","","","","","","","","","",""
"survey-text","3","127136","0.0-1.0-2.0","6637136b0d2876a595d78394","6662009ae78f21dd82fcd179","66620a399474f26fc8eabb9b","5173","","{""Q0"":""35""}","","","","","","","","","","","","","","","","","",""
"instructions","4","129950","0.0-2.0","6637136b0d2876a595d78394","6662009ae78f21dd82fcd179","66620a399474f26fc8eabb9b","2703","","","","[{""page_index"":0,""viewing_time"":2703}]","","","","","","","","","","","","","","","",""
"preload","5","131104","0.0-3.0-0.0","6637136b0d2876a595d78394","6662009ae78f21dd82fcd179","66620a399474f26fc8eabb9b","","","","","","true","false","[]","[]","[]","","","","","","","","","","",""
"instructions","6","386511","0.0-3.0-1.0","6637136b0d2876a595d78394","6662009ae78f21dd82fcd179","66620a399474f26fc8eabb9b","255408","","","","[{""page_index"":0,""viewing_time"":20900},{""page_index"":1,""viewing_time"":16850},{""page_index"":2,""viewing_time"":13922},{""page_index"":3,""viewing_time"":3688},{""page_index"":2,""viewing_time"":718},{""page_index"":3,""viewing_time"":860},{""page_index"":2,""viewing_time"":578},{""page_index"":3,""viewing_time"":1320},{""page_index"":2,""viewing_time"":751},{""page_index"":3,""viewing_time"":6414},{""page_index"":4,""viewing_time"":20692},{""page_index"":5,""viewing_time"":70312},{""page_index"":6,""viewing_time"":9319},{""page_index"":7,""viewing_time"":16930},{""page_index"":8,""viewing_time"":7681},{""page_index"":9,""viewing_time"":19519},{""page_index"":8,""viewing_time"":9573},{""page_index"":9,""viewing_time"":5850},{""page_index"":8,""viewing_time"":2498},{""page_index"":7,""viewing_time"":7770},{""page_index"":8,""viewing_time"":2038},{""page_index"":9,""viewing_time"":1023},{""page_index"":10,""viewing_time"":10344},{""page_index"":11,""viewing_time"":5858}]","","","","","","","","","","","","","","","",""
"html-button-response","7","391481","0.0-3.0-2.0-0.0-0.0","6637136b0d2876a595d78394","6662009ae78f21dd82fcd179","66620a399474f26fc8eabb9b","4969","","1","","","","","","","","<div align=center>Your goal is to predict…?<br><br></div>","","","","","","","","","",""
"html-button-response","8","401527","0.0-3.0-2.0-1.0-0.0","6637136b0d2876a595d78394","6662009ae78f21dd82fcd179","66620a399474f26fc8eabb9b","7716","","2","","","","","","","","<div align=center>In the jar with mostly white beads, there are ___% white beads and ___% black beads?<br><br></div>","","","","","","","","","",""
"html-button-response","9","415701","0.0-3.0-2.0-2.0-0.0","6637136b0d2876a595d78394","6662009ae78f21dd82fcd179","66620a399474f26fc8eabb9b","12953","","0","","","","","","","","<div align=center>When there is a 1% probability that the jars will switch, the next bead will most likely be drawn from the…<br><br></div>","","","","","","","","","",""
"html-button-response","10","432550","0.0-3.0-2.0-3.0-0.0","6637136b0d2876a595d78394","6662009ae78f21dd82fcd179","66620a399474f26fc8eabb9b","5655","","1","","","","","","","","<div align=center>When there is a 99% probability that the jars will switch, the next bead will most likely be drawn from the…<br><br></div>","","","","","","","","","",""
"instructions","11","452729","0.0-3.0-3.0","6637136b0d2876a595d78394","6662009ae78f21dd82fcd179","66620a399474f26fc8eabb9b","17561","","","","[{""page_index"":0,""viewing_time"":17561}]","","","","","","","","","","","","","","","",""
"html-keyboard-response","12","470436","0.0-3.0-4.0-0.0","6637136b0d2876a595d78394","6662009ae78f21dd82fcd179","66620a399474f26fc8eabb9b","17706",""," ","","","","","","","","<div align=center>In this practice block, there will be a <b>1% chance</b> that the jar on the next trial will be different from the jar on the current trial.<br><br></div>","","","","","","","","","",""
"image-keyboard-response","13","478227","0.0-3.0-4.0-1.0-0.0","6637136b0d2876a595d78394","6662009ae78f21dd82fcd179","66620a399474f26fc8eabb9b","7788","","f","","","","","","","","./tasks/HMM-beads/Images/NoChoice.png","practice","0","0","0","0","9","0","true","",""
"image-keyboard-response","14","478536","0.0-3.0-4.0-1.0-1.0","6637136b0d2876a595d78394","6662009ae78f21dd82fcd179","66620a399474f26fc8eabb9b","null","","null","","","","","","","","./tasks/HMM-beads/Images/BlackBeadChoice.png","","","","","","","","","",""
"image-keyboard-response","15","479048","0.0-3.0-4.0-1.0-2.0","6637136b0d2876a595d78394","6662009ae78f21dd82fcd179","66620a399474f26fc8eabb9b","null","","null","","","","","","","","./tasks/HMM-beads/Images/BlackBeadChoiceCorrect.png","","","","","","","","","",""
"image-keyboard-response","16","488319","0.0-3.0-4.0-1.0-0.1","6637136b0d2876a595d78394","6662009ae78f21dd82fcd179","66620a399474f26fc8eabb9b","9269","","f","","","","","","","","./tasks/HMM-beads/Images/NewTrialBC.png","practice","0","1","0","0","0","0","true","",""
"image-keyboard-response","17","488626","0.0-3.0-4.0-1.0-1.1","6637136b0d2876a595d78394","6662009ae78f21dd82fcd179","66620a399474f26fc8eabb9b","null","","null","","","","","","","","./tasks/HMM-beads/Images/BlackBeadChoice.png","","","","","","","","","",""
"image-keyboard-response","18","489138","0.0-3.0-4.0-1.0-2.1","6637136b0d2876a595d78394","6662009ae78f21dd82fcd179","66620a399474f26fc8eabb9b","null","","null","","","","","","","","./tasks/HMM-beads/Images/BlackBeadChoiceCorrect.png","","","","","","","","","",""
"image-keyboard-response","19","499836","0.0-3.0-4.0-1.0-0.2","6637136b0d2876a595d78394","6662009ae78f21dd82fcd179","66620a399474f26fc8eabb9b","10696","","f","","","","","","","","./tasks/HMM-beads/Images/NewTrialBC.png","practice","0","2","0","1","0","0","false","",""
"image-keyboard-response","20","500141","0.0-3.0-4.0-1.0-1.2","6637136b0d2876a595d78394","6662009ae78f21dd82fcd179","66620a399474f26fc8eabb9b","null","","null","","","","","","","","./tasks/HMM-beads/Images/BlackBeadChoice.png","","","","","","","","","",""
"image-keyboard-response","21","500651","0.0-3.0-4.0-1.0-2.2","6637136b0d2876a595d78394","6662009ae78f21dd82fcd179","66620a399474f26fc8eabb9b","null","","null","","","","","","","","./tasks/HMM-beads/Images/BlackBeadChoiceWrong.png","","","","","","","","","",""
"image-keyboard-response","22","510346","0.0-3.0-4.0-1.0-0.3","6637136b0d2876a595d78394","6662009ae78f21dd82fcd179","66620a399474f26fc8eabb9b","9693","","f","","","","","","","","./tasks/HMM-beads/Images/NewTrialWC.png","practice","0","3","0","0","1","0","true","",""
"image-keyboard-response","23","510660","0.0-3.0-4.0-1.0-1.3","6637136b0d2876a595d78394","6662009ae78f21dd82fcd179","66620a399474f26fc8eabb9b","null","","null","","","","","","","","./tasks/HMM-beads/Images/BlackBeadChoice.png","","","","","","","","","",""
"image-keyboard-response","24","511172","0.0-3.0-4.0-1.0-2.3","6637136b0d2876a595d78394","6662009ae78f21dd82fcd179","66620a399474f26fc8eabb9b","null","","null","","","","","","","","./tasks/HMM-beads/Images/BlackBeadChoiceCorrect.png","","","","","","","","","",""
"image-keyboard-response","25","513004","0.0-3.0-4.0-1.0-0.4","6637136b0d2876a595d78394","6662009ae78f21dd82fcd179","66620a399474f26fc8eabb9b","1831","","f","","","","","","","","./tasks/HMM-beads/Images/NewTrialBC.png","practice","0","4","0","0","0","0","true","",""
"image-keyboard-response","26","513316","0.0-3.0-4.0-1.0-1.4","6637136b0d2876a595d78394","6662009ae78f21dd82fcd179","66620a399474f26fc8eabb9b","null","","null","","","","","","","","./tasks/HMM-beads/Images/BlackBeadChoice.png","","","","","","","","","",""
"image-keyboard-response","27","513828","0.0-3.0-4.0-1.0-2.4","6637136b0d2876a595d78394","6662009ae78f21dd82fcd179","66620a399474f26fc8eabb9b","null","","null","","","","","","","","./tasks/HMM-beads/Images/BlackBeadChoiceCorrect.png","","","","","","","","","",""
"image-keyboard-response","28","516354","0.0-3.0-4.0-1.0-0.5","6637136b0d2876a595d78394","6662009ae78f21dd82fcd179","66620a399474f26fc8eabb9b","2524","","f","","","","","","","","./tasks/HMM-beads/Images/NewTrialBC.png","practice","0","5","0","1","0","0","false","",""
"image-keyboard-response","29","516665","0.0-3.0-4.0-1.0-1.5","6637136b0d2876a595d78394","6662009ae78f21dd82fcd179","66620a399474f26fc8eabb9b","null","","null","","","","","","","","./tasks/HMM-beads/Images/BlackBeadChoice.png","","","","","","","","","",""
"image-keyboard-response","30","517176","0.0-3.0-4.0-1.0-2.5","6637136b0d2876a595d78394","6662009ae78f21dd82fcd179","66620a399474f26fc8eabb9b","null","","null","","","","","","","","./tasks/HMM-beads/Images/BlackBeadChoiceWrong.png","","","","","","","","","",""
"image-keyboard-response","31","519083","0.0-3.0-4.0-1.0-0.6","6637136b0d2876a595d78394","6662009ae78f21dd82fcd179","66620a399474f26fc8eabb9b","1906","","j","","","","","","","","./tasks/HMM-beads/Images/NewTrialWC.png","practice","0","6","0","0","1","1","false","",""
"image-keyboard-response","32","519393","0.0-3.0-4.0-1.0-1.6","6637136b0d2876a595d78394","6662009ae78f21dd82fcd179","66620a399474f26fc8eabb9b","null","","null","","","","","","","","./tasks/HMM-beads/Images/WhiteBeadChoice.png","","","","","","","","","",""
"image-keyboard-response","33","519900","0.0-3.0-4.0-1.0-2.6","6637136b0d2876a595d78394","6662009ae78f21dd82fcd179","66620a399474f26fc8eabb9b","null","","null","","","","","","","","./tasks/HMM-beads/Images/WhiteBeadChoiceWrong.png","","","","","","","","","",""
"image-keyboard-response","34","527010","0.0-3.0-4.0-1.0-0.7","6637136b0d2876a595d78394","6662009ae78f21dd82fcd179","66620a399474f26fc8eabb9b","7109","","f","","","","","","","","./tasks/HMM-beads/Images/NewTrialBC.png","practice","0","7","0","0","0","0","true","",""
"image-keyboard-response","35","527312","0.0-3.0-4.0-1.0-1.7","6637136b0d2876a595d78394","6662009ae78f21dd82fcd179","66620a399474f26fc8eabb9b","null","","null","","","","","","","","./tasks/HMM-beads/Images/BlackBeadChoice.png","","","","","","","","","",""
"image-keyboard-response","36","527821","0.0-3.0-4.0-1.0-2.7","6637136b0d2876a595d78394","6662009ae78f21dd82fcd179","66620a399474f26fc8eabb9b","null","","null","","","","","","","","./tasks/HMM-beads/Images/BlackBeadChoiceCorrect.png","","","","","","","","","",""
"image-keyboard-response","37","530990","0.0-3.0-4.0-1.0-0.8","6637136b0d2876a595d78394","6662009ae78f21dd82fcd179","66620a399474f26fc8eabb9b","3167","","f","","","","","","","","./tasks/HMM-beads/Images/NewTrialBC.png","practice","0","8","0","0","0","0","true","",""
"image-keyboard-response","38","531294","0.0-3.0-4.0-1.0-1.8","6637136b0d2876a595d78394","6662009ae78f21dd82fcd179","66620a399474f26fc8eabb9b","null","","null","","","","","","","","./tasks/HMM-beads/Images/BlackBeadChoice.png","","","","","","","","","",""
"image-keyboard-response","39","531801","0.0-3.0-4.0-1.0-2.8","6637136b0d2876a595d78394","6662009ae78f21dd82fcd179","66620a399474f26fc8eabb9b","null","","null","","","","","","","","./tasks/HMM-beads/Images/BlackBeadChoiceCorrect.png","","","","","","","","","",""
"image-keyboard-response","40","532290","0.0-3.0-4.0-1.0-0.9","6637136b0d2876a595d78394","6662009ae78f21dd82fcd179","66620a399474f26fc8eabb9b","488","","j","","","","","","","","./tasks/HMM-beads/Images/NewTrialBC.png","practice","0","9","0","1","0","1","true","",""
"image-keyboard-response","41","532608","0.0-3.0-4.0-1.0-1.9","6637136b0d2876a595d78394","6662009ae78f21dd82fcd179","66620a399474f26fc8eabb9b","null","","null","","","","","","","","./tasks/HMM-beads/Images/WhiteBeadChoice.png","","","","","","","","","",""
"image-keyboard-response","42","533117","0.0-3.0-4.0-1.0-2.9","6637136b0d2876a595d78394","6662009ae78f21dd82fcd179","66620a399474f26fc8eabb9b","null","","null","","","","","","","","./tasks/HMM-beads/Images/WhiteBeadChoiceCorrect.png","","","","","","","","","",""
"image-keyboard-response","43","534996","0.0-3.0-4.0-1.0-0.10","6637136b0d2876a595d78394","6662009ae78f21dd82fcd179","66620a399474f26fc8eabb9b","1878","","f","","","","","","","","./tasks/HMM-beads/Images/NewTrialWC.png","practice","0","10","0","0","1","0","true","",""
"image-keyboard-response","44","535306","0.0-3.0-4.0-1.0-1.10","6637136b0d2876a595d78394","6662009ae78f21dd82fcd179","66620a399474f26fc8eabb9b","null","","null","","","","","","","","./tasks/HMM-beads/Images/BlackBeadChoice.png","","","","","","","","","",""
"image-keyboard-response","45","535817","0.0-3.0-4.0-1.0-2.10","6637136b0d2876a595d78394","6662009ae78f21dd82fcd179","66620a399474f26fc8eabb9b","null","","null","","","","","","","","./tasks/HMM-beads/Images/BlackBeadChoiceCorrect.png","","","","","","","","","",""
"image-keyboard-response","46","537111","0.0-3.0-4.0-1.0-0.11","6637136b0d2876a595d78394","6662009ae78f21dd82fcd179","66620a399474f26fc8eabb9b","1293","","f","","","","","","","","./tasks/HMM-beads/Images/NewTrialBC.png","practice","0","11","0","1","0","0","false","",""
"image-keyboard-response","47","537418","0.0-3.0-4.0-1.0-1.11","6637136b0d2876a595d78394","6662009ae78f21dd82fcd179","66620a399474f26fc8eabb9b","null","","null","","","","","","","","./tasks/HMM-beads/Images/BlackBeadChoice.png","","","","","","","","","",""
"image-keyboard-response","48","537926","0.0-3.0-4.0-1.0-2.11","6637136b0d2876a595d78394","6662009ae78f21dd82fcd179","66620a399474f26fc8eabb9b","null","","null","","","","","","","","./tasks/HMM-beads/Images/BlackBeadChoiceWrong.png","","","","","","","","","",""
"image-keyboard-response","49","538977","0.0-3.0-4.0-1.0-0.12","6637136b0d2876a595d78394","6662009ae78f21dd82fcd179","66620a399474f26fc8eabb9b","1049","","f","","","","","","","","./tasks/HMM-beads/Images/NewTrialWC.png","practice","0","12","0","0","1","0","true","",""
"image-keyboard-response","50","539293","0.0-3.0-4.0-1.0-1.12","6637136b0d2876a595d78394","6662009ae78f21dd82fcd179","66620a399474f26fc8eabb9b","null","","null","","","","","","","","./tasks/HMM-beads/Images/BlackBeadChoice.png","","","","","","","","","",""
"image-keyboard-response","51","539802","0.0-3.0-4.0-1.0-2.12","6637136b0d2876a595d78394","6662009ae78f21dd82fcd179","66620a399474f26fc8eabb9b","null","","null","","","","","","","","./tasks/HMM-beads/Images/BlackBeadChoiceCorrect.png","","","","","","","","","",""
"image-keyboard-response","52","541733","0.0-3.0-4.0-1.0-0.13","6637136b0d2876a595d78394","6662009ae78f21dd82fcd179","66620a399474f26fc8eabb9b","1930","","f","","","","","","","","./tasks/HMM-beads/Images/NewTrialBC.png","practice","0","13","0","0","0","0","true","",""
"image-keyboard-response","53","542042","0.0-3.0-4.0-1.0-1.13","6637136b0d2876a595d78394","6662009ae78f21dd82fcd179","66620a399474f26fc8eabb9b","null","","null","","","","","","","","./tasks/HMM-beads/Images/BlackBeadChoice.png","","","","","","","","","",""
"image-keyboard-response","54","542552","0.0-3.0-4.0-1.0-2.13","6637136b0d2876a595d78394","6662009ae78f21dd82fcd179","66620a399474f26fc8eabb9b","null","","null","","","","","","","","./tasks/HMM-beads/Images/BlackBeadChoiceCorrect.png","","","","","","","","","",""
"image-keyboard-response","55","543662","0.0-3.0-4.0-1.0-0.14","6637136b0d2876a595d78394","6662009ae78f21dd82fcd179","66620a399474f26fc8eabb9b","1108","","f","","","","","","","","./tasks/HMM-beads/Images/NewTrialBC.png","practice","0","14","0","0","0","0","true","",""
"image-keyboard-response","56","543972","0.0-3.0-4.0-1.0-1.14","6637136b0d2876a595d78394","6662009ae78f21dd82fcd179","66620a399474f26fc8eabb9b","null","","null","","","","","","","","./tasks/HMM-beads/Images/BlackBeadChoice.png","","","","","","","","","",""
"image-keyboard-response","57","544481","0.0-3.0-4.0-1.0-2.14","6637136b0d2876a595d78394","6662009ae78f21dd82fcd179","66620a399474f26fc8eabb9b","null","","null","","","","","","","","./tasks/HMM-beads/Images/BlackBeadChoiceCorrect.png","","","","","","","","","",""
"image-keyboard-response","58","545081","0.0-3.0-4.0-1.0-0.15","6637136b0d2876a595d78394","6662009ae78f21dd82fcd179","66620a399474f26fc8eabb9b","599","","j","","","","","","","","./tasks/HMM-beads/Images/NewTrialBC.png","practice","0","15","0","0","0","1","false","",""
"image-keyboard-response","59","545391","0.0-3.0-4.0-1.0-1.15","6637136b0d2876a595d78394","6662009ae78f21dd82fcd179","66620a399474f26fc8eabb9b","null","","null","","","","","","","","./tasks/HMM-beads/Images/WhiteBeadChoice.png","","","","","","","","","",""
"image-keyboard-response","60","545902","0.0-3.0-4.0-1.0-2.15","6637136b0d2876a595d78394","6662009ae78f21dd82fcd179","66620a399474f26fc8eabb9b","null","","null","","","","","","","","./tasks/HMM-beads/Images/WhiteBeadChoiceWrong.png","","","","","","","","","",""
"image-keyboard-response","61","546530","0.0-3.0-4.0-1.0-0.16","6637136b0d2876a595d78394","6662009ae78f21dd82fcd179","66620a399474f26fc8eabb9b","626","","f","","","","","","","","./tasks/HMM-beads/Images/NewTrialBC.png","practice","0","16","0","0","0","0","true","",""
"image-keyboard-response","62","546832","0.0-3.0-4.0-1.0-1.16","6637136b0d2876a595d78394","6662009ae78f21dd82fcd179","66620a399474f26fc8eabb9b","null","","null","","","","","","","","./tasks/HMM-beads/Images/BlackBeadChoice.png","","","","","","","","","",""
"image-keyboard-response","63","547342","0.0-3.0-4.0-1.0-2.16","6637136b0d2876a595d78394","6662009ae78f21dd82fcd179","66620a399474f26fc8eabb9b","null","","null","","","","","","","","./tasks/HMM-beads/Images/BlackBeadChoiceCorrect.png","","","","","","","","","",""
"image-keyboard-response","64","547771","0.0-3.0-4.0-1.0-0.17","6637136b0d2876a595d78394","6662009ae78f21dd82fcd179","66620a399474f26fc8eabb9b","427","","j","","","","","","","","./tasks/HMM-beads/Images/NewTrialBC.png","practice","0","17","0","0","0","1","false","",""
"image-keyboard-response","65","548087","0.0-3.0-4.0-1.0-1.17","6637136b0d2876a595d78394","6662009ae78f21dd82fcd179","66620a399474f26fc8eabb9b","null","","null","","","","","","","","./tasks/HMM-beads/Images/WhiteBeadChoice.png","","","","","","","","","",""
"image-keyboard-response","66","548600","0.0-3.0-4.0-1.0-2.17","6637136b0d2876a595d78394","6662009ae78f21dd82fcd179","66620a399474f26fc8eabb9b","null","","null","","","","","","","","./tasks/HMM-beads/Images/WhiteBeadChoiceWrong.png","","","","","","","","","",""
"image-keyboard-response","67","549345","0.0-3.0-4.0-1.0-0.18","6637136b0d2876a595d78394","6662009ae78f21dd82fcd179","66620a399474f26fc8eabb9b","744","","j","","","","","","","","./tasks/HMM-beads/Images/NewTrialBC.png","practice","0","18","0","1","0","1","true","",""
"image-keyboard-response","68","549648","0.0-3.0-4.0-1.0-1.18","6637136b0d2876a595d78394","6662009ae78f21dd82fcd179","66620a399474f26fc8eabb9b","null","","null","","","","","","","","./tasks/HMM-beads/Images/WhiteBeadChoice.png","","","","","","","","","",""
"image-keyboard-response","69","550157","0.0-3.0-4.0-1.0-2.18","6637136b0d2876a595d78394","6662009ae78f21dd82fcd179","66620a399474f26fc8eabb9b","null","","null","","","","","","","","./tasks/HMM-beads/Images/WhiteBeadChoiceCorrect.png","","","","","","","","","",""
"image-keyboard-response","70","550601","0.0-3.0-4.0-1.0-0.19","6637136b0d2876a595d78394","6662009ae78f21dd82fcd179","66620a399474f26fc8eabb9b","442","","f","","","","","","","","./tasks/HMM-beads/Images/NewTrialWC.png","practice","0","19","0","0","1","0","true","",""
"image-keyboard-response","71","550914","0.0-3.0-4.0-1.0-1.19","6637136b0d2876a595d78394","6662009ae78f21dd82fcd179","66620a399474f26fc8eabb9b","null","","null","","","","","","","","./tasks/HMM-beads/Images/BlackBeadChoice.png","","","","","","","","","",""
"image-keyboard-response","72","551426","0.0-3.0-4.0-1.0-2.19","6637136b0d2876a595d78394","6662009ae78f21dd82fcd179","66620a399474f26fc8eabb9b","null","","null","","","","","","","","./tasks/HMM-beads/Images/BlackBeadChoiceCorrect.png","","","","","","","","","",""
"image-keyboard-response","73","551757","0.0-3.0-4.0-1.0-0.20","6637136b0d2876a595d78394","6662009ae78f21dd82fcd179","66620a399474f26fc8eabb9b","331","","f","","","","","","","","./tasks/HMM-beads/Images/NewTrialBC.png","practice","0","20","0","0","0","0","true","",""
"image-keyboard-response","74","552074","0.0-3.0-4.0-1.0-1.20","6637136b0d2876a595d78394","6662009ae78f21dd82fcd179","66620a399474f26fc8eabb9b","null","","null","","","","","","","","./tasks/HMM-beads/Images/BlackBeadChoice.png","","","","","","","","","",""
"image-keyboard-response","75","552584","0.0-3.0-4.0-1.0-2.20","6637136b0d2876a595d78394","6662009ae78f21dd82fcd179","66620a399474f26fc8eabb9b","null","","null","","","","","","","","./tasks/HMM-beads/Images/BlackBeadChoiceCorrect.png","","","","","","","","","",""
"image-keyboard-response","76","552870","0.0-3.0-4.0-1.0-0.21","6637136b0d2876a595d78394","6662009ae78f21dd82fcd179","66620a399474f26fc8eabb9b","284","","f","","","","","","","","./tasks/HMM-beads/Images/NewTrialBC.png","practice","0","21","0","1","0","0","false","",""
"image-keyboard-response","77","553174","0.0-3.0-4.0-1.0-1.21","6637136b0d2876a595d78394","6662009ae78f21dd82fcd179","66620a399474f26fc8eabb9b","null","","null","","","","","","","","./tasks/HMM-beads/Images/BlackBeadChoice.png","","","","","","","","","",""
"image-keyboard-response","78","553687","0.0-3.0-4.0-1.0-2.21","6637136b0d2876a595d78394","6662009ae78f21dd82fcd179","66620a399474f26fc8eabb9b","null","","null","","","","","","","","./tasks/HMM-beads/Images/BlackBeadChoiceWrong.png","","","","","","","","","",""
"image-keyboard-response","79","554730","0.0-3.0-4.0-1.0-0.22","6637136b0d2876a595d78394","6662009ae78f21dd82fcd179","66620a399474f26fc8eabb9b","1042","","f","","","","","","","","./tasks/HMM-beads/Images/NewTrialWC.png","practice","0","22","1","1","1","0","false","",""
"image-keyboard-response","80","555035","0.0-3.0-4.0-1.0-1.22","6637136b0d2876a595d78394","6662009ae78f21dd82fcd179","66620a399474f26fc8eabb9b","null","","null","","","","","","","","./tasks/HMM-beads/Images/BlackBeadChoice.png","","","","","","","","","",""
"image-keyboard-response","81","555544","0.0-3.0-4.0-1.0-2.22","6637136b0d2876a595d78394","6662009ae78f21dd82fcd179","66620a399474f26fc8eabb9b","null","","null","","","","","","","","./tasks/HMM-beads/Images/BlackBeadChoiceWrong.png","","","","","","","","","",""
"image-keyboard-response","82","558674","0.0-3.0-4.0-1.0-0.23","6637136b0d2876a595d78394","6662009ae78f21dd82fcd179","66620a399474f26fc8eabb9b","3128","","f","","","","","","","","./tasks/HMM-beads/Images/NewTrialWC.png","practice","0","23","1","0","1","0","true","",""
"image-keyboard-response","83","558988","0.0-3.0-4.0-1.0-1.23","6637136b0d2876a595d78394","6662009ae78f21dd82fcd179","66620a399474f26fc8eabb9b","null","","null","","","","","","","","./tasks/HMM-beads/Images/BlackBeadChoice.png","","","","","","","","","",""
"image-keyboard-response","84","559499","0.0-3.0-4.0-1.0-2.23","6637136b0d2876a595d78394","6662009ae78f21dd82fcd179","66620a399474f26fc8eabb9b","null","","null","","","","","","","","./tasks/HMM-beads/Images/BlackBeadChoiceCorrect.png","","","","","","","","","",""
"image-keyboard-response","85","560627","0.0-3.0-4.0-1.0-0.24","6637136b0d2876a595d78394","6662009ae78f21dd82fcd179","66620a399474f26fc8eabb9b","1128","","f","","","","","","","","./tasks/HMM-beads/Images/NewTrialBC.png","practice","0","24","1","1","0","0","false","",""
"image-keyboard-response","86","560935","0.0-3.0-4.0-1.0-1.24","6637136b0d2876a595d78394","6662009ae78f21dd82fcd179","66620a399474f26fc8eabb9b","null","","null","","","","","","","","./tasks/HMM-beads/Images/BlackBeadChoice.png","","","","","","","","","",""
"image-keyboard-response","87","561444","0.0-3.0-4.0-1.0-2.24","6637136b0d2876a595d78394","6662009ae78f21dd82fcd179","66620a399474f26fc8eabb9b","null","","null","","","","","","","","./tasks/HMM-beads/Images/BlackBeadChoiceWrong.png","","","","","","","","","",""
"image-keyboard-response","88","563384","0.0-3.0-4.0-1.0-0.25","6637136b0d2876a595d78394","6662009ae78f21dd82fcd179","66620a399474f26fc8eabb9b","1938","","f","","","","","","","","./tasks/HMM-beads/Images/NewTrialWC.png","practice","0","25","1","1","1","0","false","",""
"image-keyboard-response","89","563692","0.0-3.0-4.0-1.0-1.25","6637136b0d2876a595d78394","6662009ae78f21dd82fcd179","66620a399474f26fc8eabb9b","null","","null","","","","","","","","./tasks/HMM-beads/Images/BlackBeadChoice.png","","","","","","","","","",""
"image-keyboard-response","90","564204","0.0-3.0-4.0-1.0-2.25","6637136b0d2876a595d78394","6662009ae78f21dd82fcd179","66620a399474f26fc8eabb9b","null","","null","","","","","","","","./tasks/HMM-beads/Images/BlackBeadChoiceWrong.png","","","","","","","","","",""
"image-keyboard-response","91","565326","0.0-3.0-4.0-1.0-0.26","6637136b0d2876a595d78394","6662009ae78f21dd82fcd179","66620a399474f26fc8eabb9b","1120","","j","","","","","","","","./tasks/HMM-beads/Images/NewTrialWC.png","practice","0","26","1","1","1","1","true","",""
"image-keyboard-response","92","565641","0.0-3.0-4.0-1.0-1.26","6637136b0d2876a595d78394","6662009ae78f21dd82fcd179","66620a399474f26fc8eabb9b","null","","null","","","","","","","","./tasks/HMM-beads/Images/WhiteBeadChoice.png","","","","","","","","","",""
"image-keyboard-response","93","566148","0.0-3.0-4.0-1.0-2.26","6637136b0d2876a595d78394","6662009ae78f21dd82fcd179","66620a399474f26fc8eabb9b","null","","null","","","","","","","","./tasks/HMM-beads/Images/WhiteBeadChoiceCorrect.png","","","","","","","","","",""
"image-keyboard-response","94","566649","0.0-3.0-4.0-1.0-0.27","6637136b0d2876a595d78394","6662009ae78f21dd82fcd179","66620a399474f26fc8eabb9b","500","","j","","","","","","","","./tasks/HMM-beads/Images/NewTrialWC.png","practice","0","27","1","1","1","1","true","",""
"image-keyboard-response","95","566963","0.0-3.0-4.0-1.0-1.27","6637136b0d2876a595d78394","6662009ae78f21dd82fcd179","66620a399474f26fc8eabb9b","null","","null","","","","","","","","./tasks/HMM-beads/Images/WhiteBeadChoice.png","","","","","","","","","",""
"image-keyboard-response","96","567466","0.0-3.0-4.0-1.0-2.27","6637136b0d2876a595d78394","6662009ae78f21dd82fcd179","66620a399474f26fc8eabb9b","null","","null","","","","","","","","./tasks/HMM-beads/Images/WhiteBeadChoiceCorrect.png","","","","","","","","","",""
"image-keyboard-response","97","570477","0.0-3.0-4.0-1.0-0.28","6637136b0d2876a595d78394","6662009ae78f21dd82fcd179","66620a399474f26fc8eabb9b","3010","","j","","","","","","","","./tasks/HMM-beads/Images/NewTrialWC.png","practice","0","28","1","0","1","1","false","",""
"image-keyboard-response","98","570783","0.0-3.0-4.0-1.0-1.28","6637136b0d2876a595d78394","6662009ae78f21dd82fcd179","66620a399474f26fc8eabb9b","null","","null","","","","","","","","./tasks/HMM-beads/Images/WhiteBeadChoice.png","","","","","","","","","",""
"image-keyboard-response","99","571291","0.0-3.0-4.0-1.0-2.28","6637136b0d2876a595d78394","6662009ae78f21dd82fcd179","66620a399474f26fc8eabb9b","null","","null","","","","","","","","./tasks/HMM-beads/Images/WhiteBeadChoiceWrong.png","","","","","","","","","",""
"image-keyboard-response","100","571854","0.0-3.0-4.0-1.0-0.29","6637136b0d2876a595d78394","6662009ae78f21dd82fcd179","66620a399474f26fc8eabb9b","562","","f","","","","","","","","./tasks/HMM-beads/Images/NewTrialBC.png","practice","0","29","1","1","0","0","false","",""
"image-keyboard-response","101","572161","0.0-3.0-4.0-1.0-1.29","6637136b0d2876a595d78394","6662009ae78f21dd82fcd179","66620a399474f26fc8eabb9b","null","","null","","","","","","","","./tasks/HMM-beads/Images/BlackBeadChoice.png","","","","","","","","","",""
"image-keyboard-response","102","572671","0.0-3.0-4.0-1.0-2.29","6637136b0d2876a595d78394","6662009ae78f21dd82fcd179","66620a399474f26fc8eabb9b","null","","null","","","","","","","","./tasks/HMM-beads/Images/BlackBeadChoiceWrong.png","","","","","","","","","",""
"image-keyboard-response","103","574536","0.0-3.0-4.0-1.0-0.30","6637136b0d2876a595d78394","6662009ae78f21dd82fcd179","66620a399474f26fc8eabb9b","1863","","f","","","","","","","","./tasks/HMM-beads/Images/NewTrialWC.png","practice","0","30","1","0","1","0","true","",""
"image-keyboard-response","104","574844","0.0-3.0-4.0-1.0-1.30","6637136b0d2876a595d78394","6662009ae78f21dd82fcd179","66620a399474f26fc8eabb9b","null","","null","","","","","","","","./tasks/HMM-beads/Images/BlackBeadChoice.png","","","","","","","","","",""
"image-keyboard-response","105","575355","0.0-3.0-4.0-1.0-2.30","6637136b0d2876a595d78394","6662009ae78f21dd82fcd179","66620a399474f26fc8eabb9b","null","","null","","","","","","","","./tasks/HMM-beads/Images/BlackBeadChoiceCorrect.png","","","","","","","","","",""
"image-keyboard-response","106","577913","0.0-3.0-4.0-1.0-0.31","6637136b0d2876a595d78394","6662009ae78f21dd82fcd179","66620a399474f26fc8eabb9b","2556","","j","","","","","","","","./tasks/HMM-beads/Images/NewTrialBC.png","practice","0","31","1","1","0","1","true","",""
"image-keyboard-response","107","578230","0.0-3.0-4.0-1.0-1.31","6637136b0d2876a595d78394","6662009ae78f21dd82fcd179","66620a399474f26fc8eabb9b","null","","null","","","","","","","","./tasks/HMM-beads/Images/WhiteBeadChoice.png","","","","","","","","","",""
"image-keyboard-response","108","578737","0.0-3.0-4.0-1.0-2.31","6637136b0d2876a595d78394","6662009ae78f21dd82fcd179","66620a399474f26fc8eabb9b","null","","null","","","","","","","","./tasks/HMM-beads/Images/WhiteBeadChoiceCorrect.png","","","","","","","","","",""
"image-keyboard-response","109","584156","0.0-3.0-4.0-1.0-0.32","6637136b0d2876a595d78394","6662009ae78f21dd82fcd179","66620a399474f26fc8eabb9b","5418","","j","","","","","","","","./tasks/HMM-beads/Images/NewTrialWC.png","practice","0","32","1","1","1","1","true","",""
"image-keyboard-response","110","584462","0.0-3.0-4.0-1.0-1.32","6637136b0d2876a595d78394","6662009ae78f21dd82fcd179","66620a399474f26fc8eabb9b","null","","null","","","","","","","","./tasks/HMM-beads/Images/WhiteBeadChoice.png","","","","","","","","","",""
"image-keyboard-response","111","584971","0.0-3.0-4.0-1.0-2.32","6637136b0d2876a595d78394","6662009ae78f21dd82fcd179","66620a399474f26fc8eabb9b","null","","null","","","","","","","","./tasks/HMM-beads/Images/WhiteBeadChoiceCorrect.png","","","","","","","","","",""
"image-keyboard-response","112","586850","0.0-3.0-4.0-1.0-0.33","6637136b0d2876a595d78394","6662009ae78f21dd82fcd179","66620a399474f26fc8eabb9b","1878","","f","","","","","","","","./tasks/HMM-beads/Images/NewTrialWC.png","practice","0","33","1","1","1","0","false","",""
"image-keyboard-response","113","587164","0.0-3.0-4.0-1.0-1.33","6637136b0d2876a595d78394","6662009ae78f21dd82fcd179","66620a399474f26fc8eabb9b","null","","null","","","","","","","","./tasks/HMM-beads/Images/BlackBeadChoice.png","","","","","","","","","",""
"image-keyboard-response","114","587673","0.0-3.0-4.0-1.0-2.33","6637136b0d2876a595d78394","6662009ae78f21dd82fcd179","66620a399474f26fc8eabb9b","null","","null","","","","","","","","./tasks/HMM-beads/Images/BlackBeadChoiceWrong.png","","","","","","","","","",""
"image-keyboard-response","115","590195","0.0-3.0-4.0-1.0-0.34","6637136b0d2876a595d78394","6662009ae78f21dd82fcd179","66620a399474f26fc8eabb9b","2521","","j","","","","","","","","./tasks/HMM-beads/Images/NewTrialWC.png","practice","0","34","1","1","1","1","true","",""
"image-keyboard-response","116","590510","0.0-3.0-4.0-1.0-1.34","6637136b0d2876a595d78394","6662009ae78f21dd82fcd179","66620a399474f26fc8eabb9b","null","","null","","","","","","","","./tasks/HMM-beads/Images/WhiteBeadChoice.png","","","","","","","","","",""
"image-keyboard-response","117","591020","0.0-3.0-4.0-1.0-2.34","6637136b0d2876a595d78394","6662009ae78f21dd82fcd179","66620a399474f26fc8eabb9b","null","","null","","","","","","","","./tasks/HMM-beads/Images/WhiteBeadChoiceCorrect.png","","","","","","","","","",""
"image-keyboard-response","118","592943","0.0-3.0-4.0-1.0-0.35","6637136b0d2876a595d78394","6662009ae78f21dd82fcd179","66620a399474f26fc8eabb9b","1921","","f","","","","","","","","./tasks/HMM-beads/Images/NewTrialWC.png","practice","0","35","1","1","1","0","false","",""
"image-keyboard-response","119","593253","0.0-3.0-4.0-1.0-1.35","6637136b0d2876a595d78394","6662009ae78f21dd82fcd179","66620a399474f26fc8eabb9b","null","","null","","","","","","","","./tasks/HMM-beads/Images/BlackBeadChoice.png","","","","","","","","","",""
"image-keyboard-response","120","593763","0.0-3.0-4.0-1.0-2.35","6637136b0d2876a595d78394","6662009ae78f21dd82fcd179","66620a399474f26fc8eabb9b","null","","null","","","","","","","","./tasks/HMM-beads/Images/BlackBeadChoiceWrong.png","","","","","","","","","",""
"image-keyboard-response","121","594796","0.0-3.0-4.0-1.0-0.36","6637136b0d2876a595d78394","6662009ae78f21dd82fcd179","66620a399474f26fc8eabb9b","1031","","f","","","","","","","","./tasks/HMM-beads/Images/NewTrialWC.png","practice","0","36","1","0","1","0","true","",""
"image-keyboard-response","122","595104","0.0-3.0-4.0-1.0-1.36","6637136b0d2876a595d78394","6662009ae78f21dd82fcd179","66620a399474f26fc8eabb9b","null","","null","","","","","","","","./tasks/HMM-beads/Images/BlackBeadChoice.png","","","","","","","","","",""
"image-keyboard-response","123","595618","0.0-3.0-4.0-1.0-2.36","6637136b0d2876a595d78394","6662009ae78f21dd82fcd179","66620a399474f26fc8eabb9b","null","","null","","","","","","","","./tasks/HMM-beads/Images/BlackBeadChoiceCorrect.png","","","","","","","","","",""
"image-keyboard-response","124","596167","0.0-3.0-4.0-1.0-0.37","6637136b0d2876a595d78394","6662009ae78f21dd82fcd179","66620a399474f26fc8eabb9b","549","","j","","","","","","","","./tasks/HMM-beads/Images/NewTrialBC.png","practice","0","37","1","1","0","1","true","",""
"image-keyboard-response","125","596482","0.0-3.0-4.0-1.0-1.37","6637136b0d2876a595d78394","6662009ae78f21dd82fcd179","66620a399474f26fc8eabb9b","null","","null","","","","","","","","./tasks/HMM-beads/Images/WhiteBeadChoice.png","","","","","","","","","",""
"image-keyboard-response","126","596990","0.0-3.0-4.0-1.0-2.37","6637136b0d2876a595d78394","6662009ae78f21dd82fcd179","66620a399474f26fc8eabb9b","null","","null","","","","","","","","./tasks/HMM-beads/Images/WhiteBeadChoiceCorrect.png","","","","","","","","","",""
"image-keyboard-response","127","597267","0.0-3.0-4.0-1.0-0.38","6637136b0d2876a595d78394","6662009ae78f21dd82fcd179","66620a399474f26fc8eabb9b","277","","j","","","","","","","","./tasks/HMM-beads/Images/NewTrialWC.png","practice","0","38","1","1","1","1","true","",""
"image-keyboard-response","128","597576","0.0-3.0-4.0-1.0-1.38","6637136b0d2876a595d78394","6662009ae78f21dd82fcd179","66620a399474f26fc8eabb9b","null","","null","","","","","","","","./tasks/HMM-beads/Images/WhiteBeadChoice.png","","","","","","","","","",""
"image-keyboard-response","129","598087","0.0-3.0-4.0-1.0-2.38","6637136b0d2876a595d78394","6662009ae78f21dd82fcd179","66620a399474f26fc8eabb9b","null","","null","","","","","","","","./tasks/HMM-beads/Images/WhiteBeadChoiceCorrect.png","","","","","","","","","",""
"image-keyboard-response","130","598445","0.0-3.0-4.0-1.0-0.39","6637136b0d2876a595d78394","6662009ae78f21dd82fcd179","66620a399474f26fc8eabb9b","356","","j","","","","","","","","./tasks/HMM-beads/Images/NewTrialWC.png","practice","0","39","1","1","1","1","true","",""
"image-keyboard-response","131","598750","0.0-3.0-4.0-1.0-1.39","6637136b0d2876a595d78394","6662009ae78f21dd82fcd179","66620a399474f26fc8eabb9b","null","","null","","","","","","","","./tasks/HMM-beads/Images/WhiteBeadChoice.png","","","","","","","","","",""
"image-keyboard-response","132","599263","0.0-3.0-4.0-1.0-2.39","6637136b0d2876a595d78394","6662009ae78f21dd82fcd179","66620a399474f26fc8eabb9b","null","","null","","","","","","","","./tasks/HMM-beads/Images/WhiteBeadChoiceCorrect.png","","","","","","","","","",""
"html-keyboard-response","133","606420","0.0-3.0-4.0-2.0","6637136b0d2876a595d78394","6662009ae78f21dd82fcd179","66620a399474f26fc8eabb9b","7155",""," ","","","","","","","","","","","","","","","","","",""
"instructions","134","647085","0.0-3.0-5.0","6637136b0d2876a595d78394","6662009ae78f21dd82fcd179","66620a399474f26fc8eabb9b","40663","","","","[{""page_index"":0,""viewing_time"":18156},{""page_index"":1,""viewing_time"":22508}]","","","","","","","","","","","","","","","",""
"html-keyboard-response","135","650982","0.0-3.0-6.0-0.0","6637136b0d2876a595d78394","6662009ae78f21dd82fcd179","66620a399474f26fc8eabb9b","3897",""," ","","","","","","","","<div align=center>In this block, there will be a <b>1% chance</b> that the jar on the next trial will be different from the jar on the current trial.<br><br></div>","","","","","","","","","",""
"image-keyboard-response","136","658798","0.0-3.0-6.0-1.0-0.0","6637136b0d2876a595d78394","6662009ae78f21dd82fcd179","66620a399474f26fc8eabb9b","7815","","j","","","","","","","","./tasks/HMM-beads/Images/NoChoice.png","lowH","1","0","1","0","9","1","false","",""
"image-keyboard-response","137","659108","0.0-3.0-6.0-1.0-1.0","6637136b0d2876a595d78394","6662009ae78f21dd82fcd179","66620a399474f26fc8eabb9b","null","","null","","","","","","","","./tasks/HMM-beads/Images/WhiteBeadChoice.png","","","","","","","","","",""
"image-keyboard-response","138","659617","0.0-3.0-6.0-1.0-2.0","6637136b0d2876a595d78394","6662009ae78f21dd82fcd179","66620a399474f26fc8eabb9b","null","","null","","","","","","","","./tasks/HMM-beads/Images/WhiteBeadChoiceWrong.png","","","","","","","","","",""
"image-keyboard-response","139","677487","0.0-3.0-6.0-1.0-0.1","6637136b0d2876a595d78394","6662009ae78f21dd82fcd179","66620a399474f26fc8eabb9b","17868","","f","","","","","","","","./tasks/HMM-beads/Images/NewTrialBC.png","lowH","1","1","1","1","0","0","false","",""
"image-keyboard-response","140","677804","0.0-3.0-6.0-1.0-1.1","6637136b0d2876a595d78394","6662009ae78f21dd82fcd179","66620a399474f26fc8eabb9b","null","","null","","","","","","","","./tasks/HMM-beads/Images/BlackBeadChoice.png","","","","","","","","","",""
"image-keyboard-response","141","678313","0.0-3.0-6.0-1.0-2.1","6637136b0d2876a595d78394","6662009ae78f21dd82fcd179","66620a399474f26fc8eabb9b","null","","null","","","","","","","","./tasks/HMM-beads/Images/BlackBeadChoiceWrong.png","","","","","","","","","",""
"image-keyboard-response","142","679693","0.0-3.0-6.0-1.0-0.2","6637136b0d2876a595d78394","6662009ae78f21dd82fcd179","66620a399474f26fc8eabb9b","1379","","f","","","","","","","","./tasks/HMM-beads/Images/NewTrialWC.png","lowH","1","2","1","1","1","0","false","",""
"image-keyboard-response","143","680006","0.0-3.0-6.0-1.0-1.2","6637136b0d2876a595d78394","6662009ae78f21dd82fcd179","66620a399474f26fc8eabb9b","null","","null","","","","","","","","./tasks/HMM-beads/Images/BlackBeadChoice.png","","","","","","","","","",""
"image-keyboard-response","144","680516","0.0-3.0-6.0-1.0-2.2","6637136b0d2876a595d78394","6662009ae78f21dd82fcd179","66620a399474f26fc8eabb9b","null","","null","","","","","","","","./tasks/HMM-beads/Images/BlackBeadChoiceWrong.png","","","","","","","","","",""
"image-keyboard-response","145","682893","0.0-3.0-6.0-1.0-0.3","6637136b0d2876a595d78394","6662009ae78f21dd82fcd179","66620a399474f26fc8eabb9b","2376","","j","","","","","","","","./tasks/HMM-beads/Images/NewTrialWC.png","lowH","1","3","1","1","1","1","true","",""
"image-keyboard-response","146","683198","0.0-3.0-6.0-1.0-1.3","6637136b0d2876a595d78394","6662009ae78f21dd82fcd179","66620a399474f26fc8eabb9b","null","","null","","","","","","","","./tasks/HMM-beads/Images/WhiteBeadChoice.png","","","","","","","","","",""
"image-keyboard-response","147","683706","0.0-3.0-6.0-1.0-2.3","6637136b0d2876a595d78394","6662009ae78f21dd82fcd179","66620a399474f26fc8eabb9b","null","","null","","","","","","","","./tasks/HMM-beads/Images/WhiteBeadChoiceCorrect.png","","","","","","","","","",""
"image-keyboard-response","148","686907","0.0-3.0-6.0-1.0-0.4","6637136b0d2876a595d78394","6662009ae78f21dd82fcd179","66620a399474f26fc8eabb9b","3200","","j","","","","","","","","./tasks/HMM-beads/Images/NewTrialWC.png","lowH","1","4","1","1","1","1","true","",""
"image-keyboard-response","149","687214","0.0-3.0-6.0-1.0-1.4","6637136b0d2876a595d78394","6662009ae78f21dd82fcd179","66620a399474f26fc8eabb9b","null","","null","","","","","","","","./tasks/HMM-beads/Images/WhiteBeadChoice.png","","","","","","","","","",""
"image-keyboard-response","150","687722","0.0-3.0-6.0-1.0-2.4","6637136b0d2876a595d78394","6662009ae78f21dd82fcd179","66620a399474f26fc8eabb9b","null","","null","","","","","","","","./tasks/HMM-beads/Images/WhiteBeadChoiceCorrect.png","","","","","","","","","",""
"image-keyboard-response","151","691576","0.0-3.0-6.0-1.0-0.5","6637136b0d2876a595d78394","6662009ae78f21dd82fcd179","66620a399474f26fc8eabb9b","3851","","f","","","","","","","","./tasks/HMM-beads/Images/NewTrialWC.png","lowH","1","5","1","1","1","0","false","",""
"image-keyboard-response","152","691890","0.0-3.0-6.0-1.0-1.5","6637136b0d2876a595d78394","6662009ae78f21dd82fcd179","66620a399474f26fc8eabb9b","null","","null","","","","","","","","./tasks/HMM-beads/Images/BlackBeadChoice.png","","","","","","","","","",""
"image-keyboard-response","153","692399","0.0-3.0-6.0-1.0-2.5","6637136b0d2876a595d78394","6662009ae78f21dd82fcd179","66620a399474f26fc8eabb9b","null","","null","","","","","","","","./tasks/HMM-beads/Images/BlackBeadChoiceWrong.png","","","","","","","","","",""
"image-keyboard-response","154","694557","0.0-3.0-6.0-1.0-0.6","6637136b0d2876a595d78394","6662009ae78f21dd82fcd179","66620a399474f26fc8eabb9b","2157","","f","","","","","","","","./tasks/HMM-beads/Images/NewTrialWC.png","lowH","1","6","1","0","1","0","true","",""
"image-keyboard-response","155","694871","0.0-3.0-6.0-1.0-1.6","6637136b0d2876a595d78394","6662009ae78f21dd82fcd179","66620a399474f26fc8eabb9b","null","","null","","","","","","","","./tasks/HMM-beads/Images/BlackBeadChoice.png","","","","","","","","","",""
"image-keyboard-response","156","695382","0.0-3.0-6.0-1.0-2.6","6637136b0d2876a595d78394","6662009ae78f21dd82fcd179","66620a399474f26fc8eabb9b","null","","null","","","","","","","","./tasks/HMM-beads/Images/BlackBeadChoiceCorrect.png","","","","","","","","","",""
"image-keyboard-response","157","698058","0.0-3.0-6.0-1.0-0.7","6637136b0d2876a595d78394","6662009ae78f21dd82fcd179","66620a399474f26fc8eabb9b","2675","","j","","","","","","","","./tasks/HMM-beads/Images/NewTrialBC.png","lowH","1","7","1","1","0","1","true","",""
"image-keyboard-response","158","698373","0.0-3.0-6.0-1.0-1.7","6637136b0d2876a595d78394","6662009ae78f21dd82fcd179","66620a399474f26fc8eabb9b","null","","null","","","","","","","","./tasks/HMM-beads/Images/WhiteBeadChoice.png","","","","","","","","","",""
"image-keyboard-response","159","698881","0.0-3.0-6.0-1.0-2.7","6637136b0d2876a595d78394","6662009ae78f21dd82fcd179","66620a399474f26fc8eabb9b","null","","null","","","","","","","","./tasks/HMM-beads/Images/WhiteBeadChoiceCorrect.png","","","","","","","","","",""
"image-keyboard-response","160","701363","0.0-3.0-6.0-1.0-0.8","6637136b0d2876a595d78394","6662009ae78f21dd82fcd179","66620a399474f26fc8eabb9b","2481","","j","","","","","","","","./tasks/HMM-beads/Images/NewTrialWC.png","lowH","1","8","1","1","1","1","true","",""
"image-keyboard-response","161","701677","0.0-3.0-6.0-1.0-1.8","6637136b0d2876a595d78394","6662009ae78f21dd82fcd179","66620a399474f26fc8eabb9b","null","","null","","","","","","","","./tasks/HMM-beads/Images/WhiteBeadChoice.png","","","","","","","","","",""
"image-keyboard-response","162","702186","0.0-3.0-6.0-1.0-2.8","6637136b0d2876a595d78394","6662009ae78f21dd82fcd179","66620a399474f26fc8eabb9b","null","","null","","","","","","","","./tasks/HMM-beads/Images/WhiteBeadChoiceCorrect.png","","","","","","","","","",""
"image-keyboard-response","163","706849","0.0-3.0-6.0-1.0-0.9","6637136b0d2876a595d78394","6662009ae78f21dd82fcd179","66620a399474f26fc8eabb9b","4661","","j","","","","","","","","./tasks/HMM-beads/Images/NewTrialWC.png","lowH","1","9","1","1","1","1","true","",""
"image-keyboard-response","164","707151","0.0-3.0-6.0-1.0-1.9","6637136b0d2876a595d78394","6662009ae78f21dd82fcd179","66620a399474f26fc8eabb9b","null","","null","","","","","","","","./tasks/HMM-beads/Images/WhiteBeadChoice.png","","","","","","","","","",""
"image-keyboard-response","165","707661","0.0-3.0-6.0-1.0-2.9","6637136b0d2876a595d78394","6662009ae78f21dd82fcd179","66620a399474f26fc8eabb9b","null","","null","","","","","","","","./tasks/HMM-beads/Images/WhiteBeadChoiceCorrect.png","","","","","","","","","",""
"image-keyboard-response","166","708990","0.0-3.0-6.0-1.0-0.10","6637136b0d2876a595d78394","6662009ae78f21dd82fcd179","66620a399474f26fc8eabb9b","1328","","f","","","","","","","","./tasks/HMM-beads/Images/NewTrialWC.png","lowH","1","10","1","1","1","0","false","",""
"image-keyboard-response","167","709297","0.0-3.0-6.0-1.0-1.10","6637136b0d2876a595d78394","6662009ae78f21dd82fcd179","66620a399474f26fc8eabb9b","null","","null","","","","","","","","./tasks/HMM-beads/Images/BlackBeadChoice.png","","","","","","","","","",""
"image-keyboard-response","168","709806","0.0-3.0-6.0-1.0-2.10","6637136b0d2876a595d78394","6662009ae78f21dd82fcd179","66620a399474f26fc8eabb9b","null","","null","","","","","","","","./tasks/HMM-beads/Images/BlackBeadChoiceWrong.png","","","","","","","","","",""
"image-keyboard-response","169","712053","0.0-3.0-6.0-1.0-0.11","6637136b0d2876a595d78394","6662009ae78f21dd82fcd179","66620a399474f26fc8eabb9b","2246","","f","","","","","","","","./tasks/HMM-beads/Images/NewTrialWC.png","lowH","1","11","1","1","1","0","false","",""
"image-keyboard-response","170","712363","0.0-3.0-6.0-1.0-1.11","6637136b0d2876a595d78394","6662009ae78f21dd82fcd179","66620a399474f26fc8eabb9b","null","","null","","","","","","","","./tasks/HMM-beads/Images/BlackBeadChoice.png","","","","","","","","","",""
"image-keyboard-response","171","712874","0.0-3.0-6.0-1.0-2.11","6637136b0d2876a595d78394","6662009ae78f21dd82fcd179","66620a399474f26fc8eabb9b","null","","null","","","","","","","","./tasks/HMM-beads/Images/BlackBeadChoiceWrong.png","","","","","","","","","",""
"image-keyboard-response","172","715286","0.0-3.0-6.0-1.0-0.12","6637136b0d2876a595d78394","6662009ae78f21dd82fcd179","66620a399474f26fc8eabb9b","2410","","f","","","","","","","","./tasks/HMM-beads/Images/NewTrialWC.png","lowH","1","12","1","1","1","0","false","",""
"image-keyboard-response","173","715593","0.0-3.0-6.0-1.0-1.12","6637136b0d2876a595d78394","6662009ae78f21dd82fcd179","66620a399474f26fc8eabb9b","null","","null","","","","","","","","./tasks/HMM-beads/Images/BlackBeadChoice.png","","","","","","","","","",""
"image-keyboard-response","174","716101","0.0-3.0-6.0-1.0-2.12","6637136b0d2876a595d78394","6662009ae78f21dd82fcd179","66620a399474f26fc8eabb9b","null","","null","","","","","","","","./tasks/HMM-beads/Images/BlackBeadChoiceWrong.png","","","","","","","","","",""
"image-keyboard-response","175","716453","0.0-3.0-6.0-1.0-0.13","6637136b0d2876a595d78394","6662009ae78f21dd82fcd179","66620a399474f26fc8eabb9b","350","","j","","","","","","","","./tasks/HMM-beads/Images/NewTrialWC.png","lowH","1","13","1","0","1","1","false","",""
"image-keyboard-response","176","716765","0.0-3.0-6.0-1.0-1.13","6637136b0d2876a595d78394","6662009ae78f21dd82fcd179","66620a399474f26fc8eabb9b","null","","null","","","","","","","","./tasks/HMM-beads/Images/WhiteBeadChoice.png","","","","","","","","","",""
"image-keyboard-response","177","717275","0.0-3.0-6.0-1.0-2.13","6637136b0d2876a595d78394","6662009ae78f21dd82fcd179","66620a399474f26fc8eabb9b","null","","null","","","","","","","","./tasks/HMM-beads/Images/WhiteBeadChoiceWrong.png","","","","","","","","","",""
"image-keyboard-response","178","721490","0.0-3.0-6.0-1.0-0.14","6637136b0d2876a595d78394","6662009ae78f21dd82fcd179","66620a399474f26fc8eabb9b","4214","","j","","","","","","","","./tasks/HMM-beads/Images/NewTrialBC.png","lowH","1","14","1","0","0","1","false","",""
"image-keyboard-response","179","721807","0.0-3.0-6.0-1.0-1.14","6637136b0d2876a595d78394","6662009ae78f21dd82fcd179","66620a399474f26fc8eabb9b","null","","null","","","","","","","","./tasks/HMM-beads/Images/WhiteBeadChoice.png","","","","","","","","","",""
"image-keyboard-response","180","722317","0.0-3.0-6.0-1.0-2.14","6637136b0d2876a595d78394","6662009ae78f21dd82fcd179","66620a399474f26fc8eabb9b","null","","null","","","","","","","","./tasks/HMM-beads/Images/WhiteBeadChoiceWrong.png","","","","","","","","","",""
"image-keyboard-response","181","722718","0.0-3.0-6.0-1.0-0.15","6637136b0d2876a595d78394","6662009ae78f21dd82fcd179","66620a399474f26fc8eabb9b","400","","f","","","","","","","","./tasks/HMM-beads/Images/NewTrialBC.png","lowH","1","15","1","1","0","0","false","",""
"image-keyboard-response","182","723028","0.0-3.0-6.0-1.0-1.15","6637136b0d2876a595d78394","6662009ae78f21dd82fcd179","66620a399474f26fc8eabb9b","null","","null","","","","","","","","./tasks/HMM-beads/Images/BlackBeadChoice.png","","","","","","","","","",""
"image-keyboard-response","183","723539","0.0-3.0-6.0-1.0-2.15","6637136b0d2876a595d78394","6662009ae78f21dd82fcd179","66620a399474f26fc8eabb9b","null","","null","","","","","","","","./tasks/HMM-beads/Images/BlackBeadChoiceWrong.png","","","","","","","","","",""
"image-keyboard-response","184","725848","0.0-3.0-6.0-1.0-0.16","6637136b0d2876a595d78394","6662009ae78f21dd82fcd179","66620a399474f26fc8eabb9b","2308","","j","","","","","","","","./tasks/HMM-beads/Images/NewTrialWC.png","lowH","1","16","1","1","1","1","true","",""
"image-keyboard-response","185","726149","0.0-3.0-6.0-1.0-1.16","6637136b0d2876a595d78394","6662009ae78f21dd82fcd179","66620a399474f26fc8eabb9b","null","","null","","","","","","","","./tasks/HMM-beads/Images/WhiteBeadChoice.png","","","","","","","","","",""
"image-keyboard-response","186","726659","0.0-3.0-6.0-1.0-2.16","6637136b0d2876a595d78394","6662009ae78f21dd82fcd179","66620a399474f26fc8eabb9b","null","","null","","","","","","","","./tasks/HMM-beads/Images/WhiteBeadChoiceCorrect.png","","","","","","","","","",""
"image-keyboard-response","187","727275","0.0-3.0-6.0-1.0-0.17","6637136b0d2876a595d78394","6662009ae78f21dd82fcd179","66620a399474f26fc8eabb9b","615","","f","","","","","","","","./tasks/HMM-beads/Images/NewTrialWC.png","lowH","1","17","1","1","1","0","false","",""
"image-keyboard-response","188","727585","0.0-3.0-6.0-1.0-1.17","6637136b0d2876a595d78394","6662009ae78f21dd82fcd179","66620a399474f26fc8eabb9b","null","","null","","","","","","","","./tasks/HMM-beads/Images/BlackBeadChoice.png","","","","","","","","","",""
"image-keyboard-response","189","728096","0.0-3.0-6.0-1.0-2.17","6637136b0d2876a595d78394","6662009ae78f21dd82fcd179","66620a399474f26fc8eabb9b","null","","null","","","","","","","","./tasks/HMM-beads/Images/BlackBeadChoiceWrong.png","","","","","","","","","",""
"image-keyboard-response","190","728501","0.0-3.0-6.0-1.0-0.18","6637136b0d2876a595d78394","6662009ae78f21dd82fcd179","66620a399474f26fc8eabb9b","403","","j","","","","","","","","./tasks/HMM-beads/Images/NewTrialWC.png","lowH","1","18","1","1","1","1","true","",""
"image-keyboard-response","191","728809","0.0-3.0-6.0-1.0-1.18","6637136b0d2876a595d78394","6662009ae78f21dd82fcd179","66620a399474f26fc8eabb9b","null","","null","","","","","","","","./tasks/HMM-beads/Images/WhiteBeadChoice.png","","","","","","","","","",""
"image-keyboard-response","192","729321","0.0-3.0-6.0-1.0-2.18","6637136b0d2876a595d78394","6662009ae78f21dd82fcd179","66620a399474f26fc8eabb9b","null","","null","","","","","","","","./tasks/HMM-beads/Images/WhiteBeadChoiceCorrect.png","","","","","","","","","",""
"image-keyboard-response","193","735446","0.0-3.0-6.0-1.0-0.19","6637136b0d2876a595d78394","6662009ae78f21dd82fcd179","66620a399474f26fc8eabb9b","6122","","j","","","","","","","","./tasks/HMM-beads/Images/NewTrialWC.png","lowH","1","19","1","1","1","1","true","",""
"image-keyboard-response","194","735762","0.0-3.0-6.0-1.0-1.19","6637136b0d2876a595d78394","6662009ae78f21dd82fcd179","66620a399474f26fc8eabb9b","null","","null","","","","","","","","./tasks/HMM-beads/Images/WhiteBeadChoice.png","","","","","","","","","",""
"image-keyboard-response","195","736271","0.0-3.0-6.0-1.0-2.19","6637136b0d2876a595d78394","6662009ae78f21dd82fcd179","66620a399474f26fc8eabb9b","null","","null","","","","","","","","./tasks/HMM-beads/Images/WhiteBeadChoiceCorrect.png","","","","","","","","","",""
"image-keyboard-response","196","737470","0.0-3.0-6.0-1.0-0.20","6637136b0d2876a595d78394","6662009ae78f21dd82fcd179","66620a399474f26fc8eabb9b","1198","","f","","","","","","","","./tasks/HMM-beads/Images/NewTrialWC.png","lowH","1","20","1","1","1","0","false","",""
"image-keyboard-response","197","737787","0.0-3.0-6.0-1.0-1.20","6637136b0d2876a595d78394","6662009ae78f21dd82fcd179","66620a399474f26fc8eabb9b","null","","null","","","","","","","","./tasks/HMM-beads/Images/BlackBeadChoice.png","","","","","","","","","",""
"image-keyboard-response","198","738297","0.0-3.0-6.0-1.0-2.20","6637136b0d2876a595d78394","6662009ae78f21dd82fcd179","66620a399474f26fc8eabb9b","null","","null","","","","","","","","./tasks/HMM-beads/Images/BlackBeadChoiceWrong.png","","","","","","","","","",""
"image-keyboard-response","199","739074","0.0-3.0-6.0-1.0-0.21","6637136b0d2876a595d78394","6662009ae78f21dd82fcd179","66620a399474f26fc8eabb9b","775","","j","","","","","","","","./tasks/HMM-beads/Images/NewTrialWC.png","lowH","1","21","1","1","1","1","true","",""
"image-keyboard-response","200","739382","0.0-3.0-6.0-1.0-1.21","6637136b0d2876a595d78394","6662009ae78f21dd82fcd179","66620a399474f26fc8eabb9b","null","","null","","","","","","","","./tasks/HMM-beads/Images/WhiteBeadChoice.png","","","","","","","","","",""
"image-keyboard-response","201","739890","0.0-3.0-6.0-1.0-2.21","6637136b0d2876a595d78394","6662009ae78f21dd82fcd179","66620a399474f26fc8eabb9b","null","","null","","","","","","","","./tasks/HMM-beads/Images/WhiteBeadChoiceCorrect.png","","","","","","","","","",""
"image-keyboard-response","202","742427","0.0-3.0-6.0-1.0-0.22","6637136b0d2876a595d78394","6662009ae78f21dd82fcd179","66620a399474f26fc8eabb9b","2534","","j","","","","","","","","./tasks/HMM-beads/Images/NewTrialWC.png","lowH","1","22","1","1","1","1","true","",""
"image-keyboard-response","203","742743","0.0-3.0-6.0-1.0-1.22","6637136b0d2876a595d78394","6662009ae78f21dd82fcd179","66620a399474f26fc8eabb9b","null","","null","","","","","","","","./tasks/HMM-beads/Images/WhiteBeadChoice.png","","","","","","","","","",""
"image-keyboard-response","204","743252","0.0-3.0-6.0-1.0-2.22","6637136b0d2876a595d78394","6662009ae78f21dd82fcd179","66620a399474f26fc8eabb9b","null","","null","","","","","","","","./tasks/HMM-beads/Images/WhiteBeadChoiceCorrect.png","","","","","","","","","",""
"image-keyboard-response","205","746109","0.0-3.0-6.0-1.0-0.23","6637136b0d2876a595d78394","6662009ae78f21dd82fcd179","66620a399474f26fc8eabb9b","2856","","j","","","","","","","","./tasks/HMM-beads/Images/NewTrialWC.png","lowH","1","23","1","1","1","1","true","",""
"image-keyboard-response","206","746418","0.0-3.0-6.0-1.0-1.23","6637136b0d2876a595d78394","6662009ae78f21dd82fcd179","66620a399474f26fc8eabb9b","null","","null","","","","","","","","./tasks/HMM-beads/Images/WhiteBeadChoice.png","","","","","","","","","",""
"image-keyboard-response","207","746928","0.0-3.0-6.0-1.0-2.23","6637136b0d2876a595d78394","6662009ae78f21dd82fcd179","66620a399474f26fc8eabb9b","null","","null","","","","","","","","./tasks/HMM-beads/Images/WhiteBeadChoiceCorrect.png","","","","","","","","","",""
"image-keyboard-response","208","747484","0.0-3.0-6.0-1.0-0.24","6637136b0d2876a595d78394","6662009ae78f21dd82fcd179","66620a399474f26fc8eabb9b","555","","f","","","","","","","","./tasks/HMM-beads/Images/NewTrialWC.png","lowH","1","24","1","0","1","0","true","",""
"image-keyboard-response","209","747792","0.0-3.0-6.0-1.0-1.24","6637136b0d2876a595d78394","6662009ae78f21dd82fcd179","66620a399474f26fc8eabb9b","null","","null","","","","","","","","./tasks/HMM-beads/Images/BlackBeadChoice.png","","","","","","","","","",""
"image-keyboard-response","210","748305","0.0-3.0-6.0-1.0-2.24","6637136b0d2876a595d78394","6662009ae78f21dd82fcd179","66620a399474f26fc8eabb9b","null","","null","","","","","","","","./tasks/HMM-beads/Images/BlackBeadChoiceCorrect.png","","","","","","","","","",""
"image-keyboard-response","211","749285","0.0-3.0-6.0-1.0-0.25","6637136b0d2876a595d78394","6662009ae78f21dd82fcd179","66620a399474f26fc8eabb9b","978","","j","","","","","","","","./tasks/HMM-beads/Images/NewTrialBC.png","lowH","1","25","1","1","0","1","true","",""
"image-keyboard-response","212","749588","0.0-3.0-6.0-1.0-1.25","6637136b0d2876a595d78394","6662009ae78f21dd82fcd179","66620a399474f26fc8eabb9b","null","","null","","","","","","","","./tasks/HMM-beads/Images/WhiteBeadChoice.png","","","","","","","","","",""
"image-keyboard-response","213","750097","0.0-3.0-6.0-1.0-2.25","6637136b0d2876a595d78394","6662009ae78f21dd82fcd179","66620a399474f26fc8eabb9b","null","","null","","","","","","","","./tasks/HMM-beads/Images/WhiteBeadChoiceCorrect.png","","","","","","","","","",""
"image-keyboard-response","214","750613","0.0-3.0-6.0-1.0-0.26","6637136b0d2876a595d78394","6662009ae78f21dd82fcd179","66620a399474f26fc8eabb9b","514","","j","","","","","","","","./tasks/HMM-beads/Images/NewTrialWC.png","lowH","1","26","1","0","1","1","false","",""
"image-keyboard-response","215","750918","0.0-3.0-6.0-1.0-1.26","6637136b0d2876a595d78394","6662009ae78f21dd82fcd179","66620a399474f26fc8eabb9b","null","","null","","","","","","","","./tasks/HMM-beads/Images/WhiteBeadChoice.png","","","","","","","","","",""
"image-keyboard-response","216","751430","0.0-3.0-6.0-1.0-2.26","6637136b0d2876a595d78394","6662009ae78f21dd82fcd179","66620a399474f26fc8eabb9b","null","","null","","","","","","","","./tasks/HMM-beads/Images/WhiteBeadChoiceWrong.png","","","","","","","","","",""
"image-keyboard-response","217","752260","0.0-3.0-6.0-1.0-0.27","6637136b0d2876a595d78394","6662009ae78f21dd82fcd179","66620a399474f26fc8eabb9b","828","","j","","","","","","","","./tasks/HMM-beads/Images/NewTrialBC.png","lowH","1","27","1","1","0","1","true","",""
"image-keyboard-response","218","752576","0.0-3.0-6.0-1.0-1.27","6637136b0d2876a595d78394","6662009ae78f21dd82fcd179","66620a399474f26fc8eabb9b","null","","null","","","","","","","","./tasks/HMM-beads/Images/WhiteBeadChoice.png","","","","","","","","","",""
"image-keyboard-response","219","753087","0.0-3.0-6.0-1.0-2.27","6637136b0d2876a595d78394","6662009ae78f21dd82fcd179","66620a399474f26fc8eabb9b","null","","null","","","","","","","","./tasks/HMM-beads/Images/WhiteBeadChoiceCorrect.png","","","","","","","","","",""
"image-keyboard-response","220","754305","0.0-3.0-6.0-1.0-0.28","6637136b0d2876a595d78394","6662009ae78f21dd82fcd179","66620a399474f26fc8eabb9b","1216","","j","","","","","","","","./tasks/HMM-beads/Images/NewTrialWC.png","lowH","1","28","1","1","1","1","true","",""
"image-keyboard-response","221","754613","0.0-3.0-6.0-1.0-1.28","6637136b0d2876a595d78394","6662009ae78f21dd82fcd179","66620a399474f26fc8eabb9b","null","","null","","","","","","","","./tasks/HMM-beads/Images/WhiteBeadChoice.png","","","","","","","","","",""
"image-keyboard-response","222","755123","0.0-3.0-6.0-1.0-2.28","6637136b0d2876a595d78394","6662009ae78f21dd82fcd179","66620a399474f26fc8eabb9b","null","","null","","","","","","","","./tasks/HMM-beads/Images/WhiteBeadChoiceCorrect.png","","","","","","","","","",""
"image-keyboard-response","223","755900","0.0-3.0-6.0-1.0-0.29","6637136b0d2876a595d78394","6662009ae78f21dd82fcd179","66620a399474f26fc8eabb9b","776","","f","","","","","","","","./tasks/HMM-beads/Images/NewTrialWC.png","lowH","1","29","1","1","1","0","false","",""
"image-keyboard-response","224","756205","0.0-3.0-6.0-1.0-1.29","6637136b0d2876a595d78394","6662009ae78f21dd82fcd179","66620a399474f26fc8eabb9b","null","","null","","","","","","","","./tasks/HMM-beads/Images/BlackBeadChoice.png","","","","","","","","","",""
"image-keyboard-response","225","756714","0.0-3.0-6.0-1.0-2.29","6637136b0d2876a595d78394","6662009ae78f21dd82fcd179","66620a399474f26fc8eabb9b","null","","null","","","","","","","","./tasks/HMM-beads/Images/BlackBeadChoiceWrong.png","","","","","","","","","",""
"image-keyboard-response","226","757673","0.0-3.0-6.0-1.0-0.30","6637136b0d2876a595d78394","6662009ae78f21dd82fcd179","66620a399474f26fc8eabb9b","956","","j","","","","","","","","./tasks/HMM-beads/Images/NewTrialWC.png","lowH","1","30","1","1","1","1","true","",""
"image-keyboard-response","227","757982","0.0-3.0-6.0-1.0-1.30","6637136b0d2876a595d78394","6662009ae78f21dd82fcd179","66620a399474f26fc8eabb9b","null","","null","","","","","","","","./tasks/HMM-beads/Images/WhiteBeadChoice.png","","","","","","","","","",""
"image-keyboard-response","228","758493","0.0-3.0-6.0-1.0-2.30","6637136b0d2876a595d78394","6662009ae78f21dd82fcd179","66620a399474f26fc8eabb9b","null","","null","","","","","","","","./tasks/HMM-beads/Images/WhiteBeadChoiceCorrect.png","","","","","","","","","",""
"image-keyboard-response","229","758899","0.0-3.0-6.0-1.0-0.31","6637136b0d2876a595d78394","6662009ae78f21dd82fcd179","66620a399474f26fc8eabb9b","405","","f","","","","","","","","./tasks/HMM-beads/Images/NewTrialWC.png","lowH","1","31","1","1","1","0","false","",""
"image-keyboard-response","230","759202","0.0-3.0-6.0-1.0-1.31","6637136b0d2876a595d78394","6662009ae78f21dd82fcd179","66620a399474f26fc8eabb9b","null","","null","","","","","","","","./tasks/HMM-beads/Images/BlackBeadChoice.png","","","","","","","","","",""
"image-keyboard-response","231","759712","0.0-3.0-6.0-1.0-2.31","6637136b0d2876a595d78394","6662009ae78f21dd82fcd179","66620a399474f26fc8eabb9b","null","","null","","","","","","","","./tasks/HMM-beads/Images/BlackBeadChoiceWrong.png","","","","","","","","","",""
"image-keyboard-response","232","760189","0.0-3.0-6.0-1.0-0.32","6637136b0d2876a595d78394","6662009ae78f21dd82fcd179","66620a399474f26fc8eabb9b","476","","f","","","","","","","","./tasks/HMM-beads/Images/NewTrialWC.png","lowH","1","32","1","1","1","0","false","",""
"image-keyboard-response","233","760496","0.0-3.0-6.0-1.0-1.32","6637136b0d2876a595d78394","6662009ae78f21dd82fcd179","66620a399474f26fc8eabb9b","null","","null","","","","","","","","./tasks/HMM-beads/Images/BlackBeadChoice.png","","","","","","","","","",""
"image-keyboard-response","234","761004","0.0-3.0-6.0-1.0-2.32","6637136b0d2876a595d78394","6662009ae78f21dd82fcd179","66620a399474f26fc8eabb9b","null","","null","","","","","","","","./tasks/HMM-beads/Images/BlackBeadChoiceWrong.png","","","","","","","","","",""
"image-keyboard-response","235","761740","0.0-3.0-6.0-1.0-0.33","6637136b0d2876a595d78394","6662009ae78f21dd82fcd179","66620a399474f26fc8eabb9b","734","","f","","","","","","","","./tasks/HMM-beads/Images/NewTrialWC.png","lowH","1","33","1","1","1","0","false","",""
"image-keyboard-response","236","762053","0.0-3.0-6.0-1.0-1.33","6637136b0d2876a595d78394","6662009ae78f21dd82fcd179","66620a399474f26fc8eabb9b","null","","null","","","","","","","","./tasks/HMM-beads/Images/BlackBeadChoice.png","","","","","","","","","",""
"image-keyboard-response","237","762563","0.0-3.0-6.0-1.0-2.33","6637136b0d2876a595d78394","6662009ae78f21dd82fcd179","66620a399474f26fc8eabb9b","null","","null","","","","","","","","./tasks/HMM-beads/Images/BlackBeadChoiceWrong.png","","","","","","","","","",""
"image-keyboard-response","238","762976","0.0-3.0-6.0-1.0-0.34","6637136b0d2876a595d78394","6662009ae78f21dd82fcd179","66620a399474f26fc8eabb9b","412","","j","","","","","","","","./tasks/HMM-beads/Images/NewTrialWC.png","lowH","1","34","1","1","1","1","true","",""
"image-keyboard-response","239","763290","0.0-3.0-6.0-1.0-1.34","6637136b0d2876a595d78394","6662009ae78f21dd82fcd179","66620a399474f26fc8eabb9b","null","","null","","","","","","","","./tasks/HMM-beads/Images/WhiteBeadChoice.png","","","","","","","","","",""
"image-keyboard-response","240","763799","0.0-3.0-6.0-1.0-2.34","6637136b0d2876a595d78394","6662009ae78f21dd82fcd179","66620a399474f26fc8eabb9b","null","","null","","","","","","","","./tasks/HMM-beads/Images/WhiteBeadChoiceCorrect.png","","","","","","","","","",""
"image-keyboard-response","241","764233","0.0-3.0-6.0-1.0-0.35","6637136b0d2876a595d78394","6662009ae78f21dd82fcd179","66620a399474f26fc8eabb9b","433","","f","","","","","","","","./tasks/HMM-beads/Images/NewTrialWC.png","lowH","1","35","1","1","1","0","false","",""
"image-keyboard-response","242","764540","0.0-3.0-6.0-1.0-1.35","6637136b0d2876a595d78394","6662009ae78f21dd82fcd179","66620a399474f26fc8eabb9b","null","","null","","","","","","","","./tasks/HMM-beads/Images/BlackBeadChoice.png","","","","","","","","","",""
"image-keyboard-response","243","765052","0.0-3.0-6.0-1.0-2.35","6637136b0d2876a595d78394","6662009ae78f21dd82fcd179","66620a399474f26fc8eabb9b","null","","null","","","","","","","","./tasks/HMM-beads/Images/BlackBeadChoiceWrong.png","","","","","","","","","",""
"image-keyboard-response","244","765439","0.0-3.0-6.0-1.0-0.36","6637136b0d2876a595d78394","6662009ae78f21dd82fcd179","66620a399474f26fc8eabb9b","386","","j","","","","","","","","./tasks/HMM-beads/Images/NewTrialWC.png","lowH","1","36","1","1","1","1","true","",""
"image-keyboard-response","245","765746","0.0-3.0-6.0-1.0-1.36","6637136b0d2876a595d78394","6662009ae78f21dd82fcd179","66620a399474f26fc8eabb9b","null","","null","","","","","","","","./tasks/HMM-beads/Images/WhiteBeadChoice.png","","","","","","","","","",""
"image-keyboard-response","246","766254","0.0-3.0-6.0-1.0-2.36","6637136b0d2876a595d78394","6662009ae78f21dd82fcd179","66620a399474f26fc8eabb9b","null","","null","","","","","","","","./tasks/HMM-beads/Images/WhiteBeadChoiceCorrect.png","","","","","","","","","",""
"image-keyboard-response","247","766920","0.0-3.0-6.0-1.0-0.37","6637136b0d2876a595d78394","6662009ae78f21dd82fcd179","66620a399474f26fc8eabb9b","664","","f","","","","","","","","./tasks/HMM-beads/Images/NewTrialWC.png","lowH","1","37","1","1","1","0","false","",""
"image-keyboard-response","248","767223","0.0-3.0-6.0-1.0-1.37","6637136b0d2876a595d78394","6662009ae78f21dd82fcd179","66620a399474f26fc8eabb9b","null","","null","","","","","","","","./tasks/HMM-beads/Images/BlackBeadChoice.png","","","","","","","","","",""
"image-keyboard-response","249","767733","0.0-3.0-6.0-1.0-2.37","6637136b0d2876a595d78394","6662009ae78f21dd82fcd179","66620a399474f26fc8eabb9b","null","","null","","","","","","","","./tasks/HMM-beads/Images/BlackBeadChoiceWrong.png","","","","","","","","","",""
"image-keyboard-response","250","768043","0.0-3.0-6.0-1.0-0.38","6637136b0d2876a595d78394","6662009ae78f21dd82fcd179","66620a399474f26fc8eabb9b","309","","j","","","","","","","","./tasks/HMM-beads/Images/NewTrialWC.png","lowH","1","38","1","1","1","1","true","",""
"image-keyboard-response","251","768349","0.0-3.0-6.0-1.0-1.38","6637136b0d2876a595d78394","6662009ae78f21dd82fcd179","66620a399474f26fc8eabb9b","null","","null","","","","","","","","./tasks/HMM-beads/Images/WhiteBeadChoice.png","","","","","","","","","",""
"image-keyboard-response","252","768859","0.0-3.0-6.0-1.0-2.38","6637136b0d2876a595d78394","6662009ae78f21dd82fcd179","66620a399474f26fc8eabb9b","null","","null","","","","","","","","./tasks/HMM-beads/Images/WhiteBeadChoiceCorrect.png","","","","","","","","","",""
"image-keyboard-response","253","769890","0.0-3.0-6.0-1.0-0.39","6637136b0d2876a595d78394","6662009ae78f21dd82fcd179","66620a399474f26fc8eabb9b","1029","","j","","","","","","","","./tasks/HMM-beads/Images/NewTrialWC.png","lowH","1","39","1","1","1","1","true","",""
"image-keyboard-response","254","770202","0.0-3.0-6.0-1.0-1.39","6637136b0d2876a595d78394","6662009ae78f21dd82fcd179","66620a399474f26fc8eabb9b","null","","null","","","","","","","","./tasks/HMM-beads/Images/WhiteBeadChoice.png","","","","","","","","","",""
"image-keyboard-response","255","770712","0.0-3.0-6.0-1.0-2.39","6637136b0d2876a595d78394","6662009ae78f21dd82fcd179","66620a399474f26fc8eabb9b","null","","null","","","","","","","","./tasks/HMM-beads/Images/WhiteBeadChoiceCorrect.png","","","","","","","","","",""
"image-keyboard-response","256","772431","0.0-3.0-6.0-1.0-0.40","6637136b0d2876a595d78394","6662009ae78f21dd82fcd179","66620a399474f26fc8eabb9b","1719","","j","","","","","","","","./tasks/HMM-beads/Images/NewTrialWC.png","lowH","1","40","1","1","1","1","true","",""
"image-keyboard-response","257","772747","0.0-3.0-6.0-1.0-1.40","6637136b0d2876a595d78394","6662009ae78f21dd82fcd179","66620a399474f26fc8eabb9b","null","","null","","","","","","","","./tasks/HMM-beads/Images/WhiteBeadChoice.png","","","","","","","","","",""
"image-keyboard-response","258","773257","0.0-3.0-6.0-1.0-2.40","6637136b0d2876a595d78394","6662009ae78f21dd82fcd179","66620a399474f26fc8eabb9b","null","","null","","","","","","","","./tasks/HMM-beads/Images/WhiteBeadChoiceCorrect.png","","","","","","","","","",""
"image-keyboard-response","259","774053","0.0-3.0-6.0-1.0-0.41","6637136b0d2876a595d78394","6662009ae78f21dd82fcd179","66620a399474f26fc8eabb9b","794","","f","","","","","","","","./tasks/HMM-beads/Images/NewTrialWC.png","lowH","1","41","1","1","1","0","false","",""
"image-keyboard-response","260","774367","0.0-3.0-6.0-1.0-1.41","6637136b0d2876a595d78394","6662009ae78f21dd82fcd179","66620a399474f26fc8eabb9b","null","","null","","","","","","","","./tasks/HMM-beads/Images/BlackBeadChoice.png","","","","","","","","","",""
"image-keyboard-response","261","774877","0.0-3.0-6.0-1.0-2.41","6637136b0d2876a595d78394","6662009ae78f21dd82fcd179","66620a399474f26fc8eabb9b","null","","null","","","","","","","","./tasks/HMM-beads/Images/BlackBeadChoiceWrong.png","","","","","","","","","",""
"image-keyboard-response","262","775263","0.0-3.0-6.0-1.0-0.42","6637136b0d2876a595d78394","6662009ae78f21dd82fcd179","66620a399474f26fc8eabb9b","384","","j","","","","","","","","./tasks/HMM-beads/Images/NewTrialWC.png","lowH","1","42","1","1","1","1","true","",""
"image-keyboard-response","263","775572","0.0-3.0-6.0-1.0-1.42","6637136b0d2876a595d78394","6662009ae78f21dd82fcd179","66620a399474f26fc8eabb9b","null","","null","","","","","","","","./tasks/HMM-beads/Images/WhiteBeadChoice.png","","","","","","","","","",""
"image-keyboard-response","264","776082","0.0-3.0-6.0-1.0-2.42","6637136b0d2876a595d78394","6662009ae78f21dd82fcd179","66620a399474f26fc8eabb9b","null","","null","","","","","","","","./tasks/HMM-beads/Images/WhiteBeadChoiceCorrect.png","","","","","","","","","",""
"image-keyboard-response","265","776460","0.0-3.0-6.0-1.0-0.43","6637136b0d2876a595d78394","6662009ae78f21dd82fcd179","66620a399474f26fc8eabb9b","377","","j","","","","","","","","./tasks/HMM-beads/Images/NewTrialWC.png","lowH","1","43","1","1","1","1","true","",""
"image-keyboard-response","266","776775","0.0-3.0-6.0-1.0-1.43","6637136b0d2876a595d78394","6662009ae78f21dd82fcd179","66620a399474f26fc8eabb9b","null","","null","","","","","","","","./tasks/HMM-beads/Images/WhiteBeadChoice.png","","","","","","","","","",""
"image-keyboard-response","267","777282","0.0-3.0-6.0-1.0-2.43","6637136b0d2876a595d78394","6662009ae78f21dd82fcd179","66620a399474f26fc8eabb9b","null","","null","","","","","","","","./tasks/HMM-beads/Images/WhiteBeadChoiceCorrect.png","","","","","","","","","",""
"image-keyboard-response","268","777984","0.0-3.0-6.0-1.0-0.44","6637136b0d2876a595d78394","6662009ae78f21dd82fcd179","66620a399474f26fc8eabb9b","700","","j","","","","","","","","./tasks/HMM-beads/Images/NewTrialWC.png","lowH","1","44","1","1","1","1","true","",""
"image-keyboard-response","269","778300","0.0-3.0-6.0-1.0-1.44","6637136b0d2876a595d78394","6662009ae78f21dd82fcd179","66620a399474f26fc8eabb9b","null","","null","","","","","","","","./tasks/HMM-beads/Images/WhiteBeadChoice.png","","","","","","","","","",""
"image-keyboard-response","270","778811","0.0-3.0-6.0-1.0-2.44","6637136b0d2876a595d78394","6662009ae78f21dd82fcd179","66620a399474f26fc8eabb9b","null","","null","","","","","","","","./tasks/HMM-beads/Images/WhiteBeadChoiceCorrect.png","","","","","","","","","",""
"image-keyboard-response","271","779994","0.0-3.0-6.0-1.0-0.45","6637136b0d2876a595d78394","6662009ae78f21dd82fcd179","66620a399474f26fc8eabb9b","1182","","f","","","","","","","","./tasks/HMM-beads/Images/NewTrialWC.png","lowH","1","45","1","1","1","0","false","",""
"image-keyboard-response","272","780307","0.0-3.0-6.0-1.0-1.45","6637136b0d2876a595d78394","6662009ae78f21dd82fcd179","66620a399474f26fc8eabb9b","null","","null","","","","","","","","./tasks/HMM-beads/Images/BlackBeadChoice.png","","","","","","","","","",""
"image-keyboard-response","273","780818","0.0-3.0-6.0-1.0-2.45","6637136b0d2876a595d78394","6662009ae78f21dd82fcd179","66620a399474f26fc8eabb9b","null","","null","","","","","","","","./tasks/HMM-beads/Images/BlackBeadChoiceWrong.png","","","","","","","","","",""
"image-keyboard-response","274","781082","0.0-3.0-6.0-1.0-0.46","6637136b0d2876a595d78394","6662009ae78f21dd82fcd179","66620a399474f26fc8eabb9b","263","","j","","","","","","","","./tasks/HMM-beads/Images/NewTrialWC.png","lowH","1","46","1","1","1","1","true","",""
"image-keyboard-response","275","781389","0.0-3.0-6.0-1.0-1.46","6637136b0d2876a595d78394","6662009ae78f21dd82fcd179","66620a399474f26fc8eabb9b","null","","null","","","","","","","","./tasks/HMM-beads/Images/WhiteBeadChoice.png","","","","","","","","","",""
"image-keyboard-response","276","781901","0.0-3.0-6.0-1.0-2.46","6637136b0d2876a595d78394","6662009ae78f21dd82fcd179","66620a399474f26fc8eabb9b","null","","null","","","","","","","","./tasks/HMM-beads/Images/WhiteBeadChoiceCorrect.png","","","","","","","","","",""
"image-keyboard-response","277","782298","0.0-3.0-6.0-1.0-0.47","6637136b0d2876a595d78394","6662009ae78f21dd82fcd179","66620a399474f26fc8eabb9b","396","","j","","","","","","","","./tasks/HMM-beads/Images/NewTrialWC.png","lowH","1","47","1","0","1","1","false","",""
"image-keyboard-response","278","782616","0.0-3.0-6.0-1.0-1.47","6637136b0d2876a595d78394","6662009ae78f21dd82fcd179","66620a399474f26fc8eabb9b","null","","null","","","","","","","","./tasks/HMM-beads/Images/WhiteBeadChoice.png","","","","","","","","","",""
"image-keyboard-response","279","783127","0.0-3.0-6.0-1.0-2.47","6637136b0d2876a595d78394","6662009ae78f21dd82fcd179","66620a399474f26fc8eabb9b","null","","null","","","","","","","","./tasks/HMM-beads/Images/WhiteBeadChoiceWrong.png","","","","","","","","","",""
"image-keyboard-response","280","783580","0.0-3.0-6.0-1.0-0.48","6637136b0d2876a595d78394","6662009ae78f21dd82fcd179","66620a399474f26fc8eabb9b","452","","j","","","","","","","","./tasks/HMM-beads/Images/NewTrialBC.png","lowH","1","48","1","0","0","1","false","",""
"image-keyboard-response","281","783883","0.0-3.0-6.0-1.0-1.48","6637136b0d2876a595d78394","6662009ae78f21dd82fcd179","66620a399474f26fc8eabb9b","null","","null","","","","","","","","./tasks/HMM-beads/Images/WhiteBeadChoice.png","","","","","","","","","",""
"image-keyboard-response","282","784391","0.0-3.0-6.0-1.0-2.48","6637136b0d2876a595d78394","6662009ae78f21dd82fcd179","66620a399474f26fc8eabb9b","null","","null","","","","","","","","./tasks/HMM-beads/Images/WhiteBeadChoiceWrong.png","","","","","","","","","",""
"image-keyboard-response","283","785744","0.0-3.0-6.0-1.0-0.49","6637136b0d2876a595d78394","6662009ae78f21dd82fcd179","66620a399474f26fc8eabb9b","1352","","j","","","","","","","","./tasks/HMM-beads/Images/NewTrialBC.png","lowH","1","49","1","0","0","1","false","",""
"image-keyboard-response","284","786057","0.0-3.0-6.0-1.0-1.49","6637136b0d2876a595d78394","6662009ae78f21dd82fcd179","66620a399474f26fc8eabb9b","null","","null","","","","","","","","./tasks/HMM-beads/Images/WhiteBeadChoice.png","","","","","","","","","",""
"image-keyboard-response","285","786571","0.0-3.0-6.0-1.0-2.49","6637136b0d2876a595d78394","6662009ae78f21dd82fcd179","66620a399474f26fc8eabb9b","null","","null","","","","","","","","./tasks/HMM-beads/Images/WhiteBeadChoiceWrong.png","","","","","","","","","",""
"image-keyboard-response","286","787266","0.0-3.0-6.0-1.0-0.50","6637136b0d2876a595d78394","6662009ae78f21dd82fcd179","66620a399474f26fc8eabb9b","695","","j","","","","","","","","./tasks/HMM-beads/Images/NewTrialBC.png","lowH","1","50","1","1","0","1","true","",""
"image-keyboard-response","287","787580","0.0-3.0-6.0-1.0-1.50","6637136b0d2876a595d78394","6662009ae78f21dd82fcd179","66620a399474f26fc8eabb9b","null","","null","","","","","","","","./tasks/HMM-beads/Images/WhiteBeadChoice.png","","","","","","","","","",""
"image-keyboard-response","288","788089","0.0-3.0-6.0-1.0-2.50","6637136b0d2876a595d78394","6662009ae78f21dd82fcd179","66620a399474f26fc8eabb9b","null","","null","","","","","","","","./tasks/HMM-beads/Images/WhiteBeadChoiceCorrect.png","","","","","","","","","",""
"image-keyboard-response","289","788883","0.0-3.0-6.0-1.0-0.51","6637136b0d2876a595d78394","6662009ae78f21dd82fcd179","66620a399474f26fc8eabb9b","794","","j","","","","","","","","./tasks/HMM-beads/Images/NewTrialWC.png","lowH","1","51","1","1","1","1","true","",""
"image-keyboard-response","290","789187","0.0-3.0-6.0-1.0-1.51","6637136b0d2876a595d78394","6662009ae78f21dd82fcd179","66620a399474f26fc8eabb9b","null","","null","","","","","","","","./tasks/HMM-beads/Images/WhiteBeadChoice.png","","","","","","","","","",""
"image-keyboard-response","291","789695","0.0-3.0-6.0-1.0-2.51","6637136b0d2876a595d78394","6662009ae78f21dd82fcd179","66620a399474f26fc8eabb9b","null","","null","","","","","","","","./tasks/HMM-beads/Images/WhiteBeadChoiceCorrect.png","","","","","","","","","",""
"image-keyboard-response","292","790326","0.0-3.0-6.0-1.0-0.52","6637136b0d2876a595d78394","6662009ae78f21dd82fcd179","66620a399474f26fc8eabb9b","629","","j","","","","","","","","./tasks/HMM-beads/Images/NewTrialWC.png","lowH","1","52","1","1","1","1","true","",""
"image-keyboard-response","293","790639","0.0-3.0-6.0-1.0-1.52","6637136b0d2876a595d78394","6662009ae78f21dd82fcd179","66620a399474f26fc8eabb9b","null","","null","","","","","","","","./tasks/HMM-beads/Images/WhiteBeadChoice.png","","","","","","","","","",""
"image-keyboard-response","294","791147","0.0-3.0-6.0-1.0-2.52","6637136b0d2876a595d78394","6662009ae78f21dd82fcd179","66620a399474f26fc8eabb9b","null","","null","","","","","","","","./tasks/HMM-beads/Images/WhiteBeadChoiceCorrect.png","","","","","","","","","",""
"image-keyboard-response","295","791536","0.0-3.0-6.0-1.0-0.53","6637136b0d2876a595d78394","6662009ae78f21dd82fcd179","66620a399474f26fc8eabb9b","389","","j","","","","","","","","./tasks/HMM-beads/Images/NewTrialWC.png","lowH","1","53","1","1","1","1","true","",""
"image-keyboard-response","296","791845","0.0-3.0-6.0-1.0-1.53","6637136b0d2876a595d78394","6662009ae78f21dd82fcd179","66620a399474f26fc8eabb9b","null","","null","","","","","","","","./tasks/HMM-beads/Images/WhiteBeadChoice.png","","","","","","","","","",""
"image-keyboard-response","297","792355","0.0-3.0-6.0-1.0-2.53","6637136b0d2876a595d78394","6662009ae78f21dd82fcd179","66620a399474f26fc8eabb9b","null","","null","","","","","","","","./tasks/HMM-beads/Images/WhiteBeadChoiceCorrect.png","","","","","","","","","",""
"image-keyboard-response","298","792652","0.0-3.0-6.0-1.0-0.54","6637136b0d2876a595d78394","6662009ae78f21dd82fcd179","66620a399474f26fc8eabb9b","296","","j","","","","","","","","./tasks/HMM-beads/Images/NewTrialWC.png","lowH","1","54","1","1","1","1","true","",""
"image-keyboard-response","299","792959","0.0-3.0-6.0-1.0-1.54","6637136b0d2876a595d78394","6662009ae78f21dd82fcd179","66620a399474f26fc8eabb9b","null","","null","","","","","","","","./tasks/HMM-beads/Images/WhiteBeadChoice.png","","","","","","","","","",""
"image-keyboard-response","300","793467","0.0-3.0-6.0-1.0-2.54","6637136b0d2876a595d78394","6662009ae78f21dd82fcd179","66620a399474f26fc8eabb9b","null","","null","","","","","","","","./tasks/HMM-beads/Images/WhiteBeadChoiceCorrect.png","","","","","","","","","",""
"image-keyboard-response","301","794190","0.0-3.0-6.0-1.0-0.55","6637136b0d2876a595d78394","6662009ae78f21dd82fcd179","66620a399474f26fc8eabb9b","721","","f","","","","","","","","./tasks/HMM-beads/Images/NewTrialWC.png","lowH","1","55","1","1","1","0","false","",""
"image-keyboard-response","302","794503","0.0-3.0-6.0-1.0-1.55","6637136b0d2876a595d78394","6662009ae78f21dd82fcd179","66620a399474f26fc8eabb9b","null","","null","","","","","","","","./tasks/HMM-beads/Images/BlackBeadChoice.png","","","","","","","","","",""
"image-keyboard-response","303","795015","0.0-3.0-6.0-1.0-2.55","6637136b0d2876a595d78394","6662009ae78f21dd82fcd179","66620a399474f26fc8eabb9b","null","","null","","","","","","","","./tasks/HMM-beads/Images/BlackBeadChoiceWrong.png","","","","","","","","","",""
"image-keyboard-response","304","795302","0.0-3.0-6.0-1.0-0.56","6637136b0d2876a595d78394","6662009ae78f21dd82fcd179","66620a399474f26fc8eabb9b","286","","j","","","","","","","","./tasks/HMM-beads/Images/NewTrialWC.png","lowH","1","56","1","1","1","1","true","",""
"image-keyboard-response","305","795615","0.0-3.0-6.0-1.0-1.56","6637136b0d2876a595d78394","6662009ae78f21dd82fcd179","66620a399474f26fc8eabb9b","null","","null","","","","","","","","./tasks/HMM-beads/Images/WhiteBeadChoice.png","","","","","","","","","",""
"image-keyboard-response","306","796127","0.0-3.0-6.0-1.0-2.56","6637136b0d2876a595d78394","6662009ae78f21dd82fcd179","66620a399474f26fc8eabb9b","null","","null","","","","","","","","./tasks/HMM-beads/Images/WhiteBeadChoiceCorrect.png","","","","","","","","","",""
"image-keyboard-response","307","797165","0.0-3.0-6.0-1.0-0.57","6637136b0d2876a595d78394","6662009ae78f21dd82fcd179","66620a399474f26fc8eabb9b","1037","","j","","","","","","","","./tasks/HMM-beads/Images/NewTrialWC.png","lowH","1","57","1","1","1","1","true","",""
"image-keyboard-response","308","797472","0.0-3.0-6.0-1.0-1.57","6637136b0d2876a595d78394","6662009ae78f21dd82fcd179","66620a399474f26fc8eabb9b","null","","null","","","","","","","","./tasks/HMM-beads/Images/WhiteBeadChoice.png","","","","","","","","","",""
"image-keyboard-response","309","797981","0.0-3.0-6.0-1.0-2.57","6637136b0d2876a595d78394","6662009ae78f21dd82fcd179","66620a399474f26fc8eabb9b","null","","null","","","","","","","","./tasks/HMM-beads/Images/WhiteBeadChoiceCorrect.png","","","","","","","","","",""
"image-keyboard-response","310","798692","0.0-3.0-6.0-1.0-0.58","6637136b0d2876a595d78394","6662009ae78f21dd82fcd179","66620a399474f26fc8eabb9b","709","","j","","","","","","","","./tasks/HMM-beads/Images/NewTrialWC.png","lowH","1","58","1","1","1","1","true","",""
"image-keyboard-response","311","798997","0.0-3.0-6.0-1.0-1.58","6637136b0d2876a595d78394","6662009ae78f21dd82fcd179","66620a399474f26fc8eabb9b","null","","null","","","","","","","","./tasks/HMM-beads/Images/WhiteBeadChoice.png","","","","","","","","","",""
"image-keyboard-response","312","799507","0.0-3.0-6.0-1.0-2.58","6637136b0d2876a595d78394","6662009ae78f21dd82fcd179","66620a399474f26fc8eabb9b","null","","null","","","","","","","","./tasks/HMM-beads/Images/WhiteBeadChoiceCorrect.png","","","","","","","","","",""
"image-keyboard-response","313","799870","0.0-3.0-6.0-1.0-0.59","6637136b0d2876a595d78394","6662009ae78f21dd82fcd179","66620a399474f26fc8eabb9b","361","","f","","","","","","","","./tasks/HMM-beads/Images/NewTrialWC.png","lowH","1","59","1","0","1","0","true","",""
"image-keyboard-response","314","800187","0.0-3.0-6.0-1.0-1.59","6637136b0d2876a595d78394","6662009ae78f21dd82fcd179","66620a399474f26fc8eabb9b","null","","null","","","","","","","","./tasks/HMM-beads/Images/BlackBeadChoice.png","","","","","","","","","",""
"image-keyboard-response","315","800694","0.0-3.0-6.0-1.0-2.59","6637136b0d2876a595d78394","6662009ae78f21dd82fcd179","66620a399474f26fc8eabb9b","null","","null","","","","","","","","./tasks/HMM-beads/Images/BlackBeadChoiceCorrect.png","","","","","","","","","",""
"image-keyboard-response","316","801116","0.0-3.0-6.0-1.0-0.60","6637136b0d2876a595d78394","6662009ae78f21dd82fcd179","66620a399474f26fc8eabb9b","421","","j","","","","","","","","./tasks/HMM-beads/Images/NewTrialBC.png","lowH","1","60","1","1","0","1","true","",""
"image-keyboard-response","317","801420","0.0-3.0-6.0-1.0-1.60","6637136b0d2876a595d78394","6662009ae78f21dd82fcd179","66620a399474f26fc8eabb9b","null","","null","","","","","","","","./tasks/HMM-beads/Images/WhiteBeadChoice.png","","","","","","","","","",""
"image-keyboard-response","318","801932","0.0-3.0-6.0-1.0-2.60","6637136b0d2876a595d78394","6662009ae78f21dd82fcd179","66620a399474f26fc8eabb9b","null","","null","","","","","","","","./tasks/HMM-beads/Images/WhiteBeadChoiceCorrect.png","","","","","","","","","",""
"image-keyboard-response","319","802240","0.0-3.0-6.0-1.0-0.61","6637136b0d2876a595d78394","6662009ae78f21dd82fcd179","66620a399474f26fc8eabb9b","306","","j","","","","","","","","./tasks/HMM-beads/Images/NewTrialWC.png","lowH","1","61","1","1","1","1","true","",""
"image-keyboard-response","320","802553","0.0-3.0-6.0-1.0-1.61","6637136b0d2876a595d78394","6662009ae78f21dd82fcd179","66620a399474f26fc8eabb9b","null","","null","","","","","","","","./tasks/HMM-beads/Images/WhiteBeadChoice.png","","","","","","","","","",""
"image-keyboard-response","321","803062","0.0-3.0-6.0-1.0-2.61","6637136b0d2876a595d78394","6662009ae78f21dd82fcd179","66620a399474f26fc8eabb9b","null","","null","","","","","","","","./tasks/HMM-beads/Images/WhiteBeadChoiceCorrect.png","","","","","","","","","",""
"image-keyboard-response","322","803266","0.0-3.0-6.0-1.0-0.62","6637136b0d2876a595d78394","6662009ae78f21dd82fcd179","66620a399474f26fc8eabb9b","203","","j","","","","","","","","./tasks/HMM-beads/Images/NewTrialWC.png","lowH","1","62","1","0","1","1","false","",""
"image-keyboard-response","323","803573","0.0-3.0-6.0-1.0-1.62","6637136b0d2876a595d78394","6662009ae78f21dd82fcd179","66620a399474f26fc8eabb9b","null","","null","","","","","","","","./tasks/HMM-beads/Images/WhiteBeadChoice.png","","","","","","","","","",""
"image-keyboard-response","324","804083","0.0-3.0-6.0-1.0-2.62","6637136b0d2876a595d78394","6662009ae78f21dd82fcd179","66620a399474f26fc8eabb9b","null","","null","","","","","","","","./tasks/HMM-beads/Images/WhiteBeadChoiceWrong.png","","","","","","","","","",""
"image-keyboard-response","325","804924","0.0-3.0-6.0-1.0-0.63","6637136b0d2876a595d78394","6662009ae78f21dd82fcd179","66620a399474f26fc8eabb9b","839","","j","","","","","","","","./tasks/HMM-beads/Images/NewTrialBC.png","lowH","1","63","1","1","0","1","true","",""
"image-keyboard-response","326","805240","0.0-3.0-6.0-1.0-1.63","6637136b0d2876a595d78394","6662009ae78f21dd82fcd179","66620a399474f26fc8eabb9b","null","","null","","","","","","","","./tasks/HMM-beads/Images/WhiteBeadChoice.png","","","","","","","","","",""
"image-keyboard-response","327","805751","0.0-3.0-6.0-1.0-2.63","6637136b0d2876a595d78394","6662009ae78f21dd82fcd179","66620a399474f26fc8eabb9b","null","","null","","","","","","","","./tasks/HMM-beads/Images/WhiteBeadChoiceCorrect.png","","","","","","","","","",""
"image-keyboard-response","328","806183","0.0-3.0-6.0-1.0-0.64","6637136b0d2876a595d78394","6662009ae78f21dd82fcd179","66620a399474f26fc8eabb9b","431","","j","","","","","","","","./tasks/HMM-beads/Images/NewTrialWC.png","lowH","1","64","1","1","1","1","true","",""
"image-keyboard-response","329","806493","0.0-3.0-6.0-1.0-1.64","6637136b0d2876a595d78394","6662009ae78f21dd82fcd179","66620a399474f26fc8eabb9b","null","","null","","","","","","","","./tasks/HMM-beads/Images/WhiteBeadChoice.png","","","","","","","","","",""
"image-keyboard-response","330","807002","0.0-3.0-6.0-1.0-2.64","6637136b0d2876a595d78394","6662009ae78f21dd82fcd179","66620a399474f26fc8eabb9b","null","","null","","","","","","","","./tasks/HMM-beads/Images/WhiteBeadChoiceCorrect.png","","","","","","","","","",""
"image-keyboard-response","331","807286","0.0-3.0-6.0-1.0-0.65","6637136b0d2876a595d78394","6662009ae78f21dd82fcd179","66620a399474f26fc8eabb9b","283","","j","","","","","","","","./tasks/HMM-beads/Images/NewTrialWC.png","lowH","1","65","1","1","1","1","true","",""
"image-keyboard-response","332","807603","0.0-3.0-6.0-1.0-1.65","6637136b0d2876a595d78394","6662009ae78f21dd82fcd179","66620a399474f26fc8eabb9b","null","","null","","","","","","","","./tasks/HMM-beads/Images/WhiteBeadChoice.png","","","","","","","","","",""
"image-keyboard-response","333","808114","0.0-3.0-6.0-1.0-2.65","6637136b0d2876a595d78394","6662009ae78f21dd82fcd179","66620a399474f26fc8eabb9b","null","","null","","","","","","","","./tasks/HMM-beads/Images/WhiteBeadChoiceCorrect.png","","","","","","","","","",""
"image-keyboard-response","334","808507","0.0-3.0-6.0-1.0-0.66","6637136b0d2876a595d78394","6662009ae78f21dd82fcd179","66620a399474f26fc8eabb9b","392","","j","","","","","","","","./tasks/HMM-beads/Images/NewTrialWC.png","lowH","1","66","1","1","1","1","true","",""
"image-keyboard-response","335","808811","0.0-3.0-6.0-1.0-1.66","6637136b0d2876a595d78394","6662009ae78f21dd82fcd179","66620a399474f26fc8eabb9b","null","","null","","","","","","","","./tasks/HMM-beads/Images/WhiteBeadChoice.png","","","","","","","","","",""
"image-keyboard-response","336","809325","0.0-3.0-6.0-1.0-2.66","6637136b0d2876a595d78394","6662009ae78f21dd82fcd179","66620a399474f26fc8eabb9b","null","","null","","","","","","","","./tasks/HMM-beads/Images/WhiteBeadChoiceCorrect.png","","","","","","","","","",""
"image-keyboard-response","337","809630","0.0-3.0-6.0-1.0-0.67","6637136b0d2876a595d78394","6662009ae78f21dd82fcd179","66620a399474f26fc8eabb9b","304","","f","","","","","","","","./tasks/HMM-beads/Images/NewTrialWC.png","lowH","1","67","1","0","1","0","true","",""
"image-keyboard-response","338","809943","0.0-3.0-6.0-1.0-1.67","6637136b0d2876a595d78394","6662009ae78f21dd82fcd179","66620a399474f26fc8eabb9b","null","","null","","","","","","","","./tasks/HMM-beads/Images/BlackBeadChoice.png","","","","","","","","","",""
"image-keyboard-response","339","810454","0.0-3.0-6.0-1.0-2.67","6637136b0d2876a595d78394","6662009ae78f21dd82fcd179","66620a399474f26fc8eabb9b","null","","null","","","","","","","","./tasks/HMM-beads/Images/BlackBeadChoiceCorrect.png","","","","","","","","","",""
"image-keyboard-response","340","810810","0.0-3.0-6.0-1.0-0.68","6637136b0d2876a595d78394","6662009ae78f21dd82fcd179","66620a399474f26fc8eabb9b","355","","j","","","","","","","","./tasks/HMM-beads/Images/NewTrialBC.png","lowH","1","68","1","1","0","1","true","",""
"image-keyboard-response","341","811120","0.0-3.0-6.0-1.0-1.68","6637136b0d2876a595d78394","6662009ae78f21dd82fcd179","66620a399474f26fc8eabb9b","null","","null","","","","","","","","./tasks/HMM-beads/Images/WhiteBeadChoice.png","","","","","","","","","",""
"image-keyboard-response","342","811630","0.0-3.0-6.0-1.0-2.68","6637136b0d2876a595d78394","6662009ae78f21dd82fcd179","66620a399474f26fc8eabb9b","null","","null","","","","","","","","./tasks/HMM-beads/Images/WhiteBeadChoiceCorrect.png","","","","","","","","","",""
"image-keyboard-response","343","811841","0.0-3.0-6.0-1.0-0.69","6637136b0d2876a595d78394","6662009ae78f21dd82fcd179","66620a399474f26fc8eabb9b","209","","j","","","","","","","","./tasks/HMM-beads/Images/NewTrialWC.png","lowH","1","69","0","1","1","1","true","",""
"image-keyboard-response","344","812154","0.0-3.0-6.0-1.0-1.69","6637136b0d2876a595d78394","6662009ae78f21dd82fcd179","66620a399474f26fc8eabb9b","null","","null","","","","","","","","./tasks/HMM-beads/Images/WhiteBeadChoice.png","","","","","","","","","",""
"image-keyboard-response","345","812663","0.0-3.0-6.0-1.0-2.69","6637136b0d2876a595d78394","6662009ae78f21dd82fcd179","66620a399474f26fc8eabb9b","null","","null","","","","","","","","./tasks/HMM-beads/Images/WhiteBeadChoiceCorrect.png","","","","","","","","","",""
"image-keyboard-response","346","812894","0.0-3.0-6.0-1.0-0.70","6637136b0d2876a595d78394","6662009ae78f21dd82fcd179","66620a399474f26fc8eabb9b","229","","j","","","","","","","","./tasks/HMM-beads/Images/NewTrialWC.png","lowH","1","70","0","1","1","1","true","",""
"image-keyboard-response","347","813205","0.0-3.0-6.0-1.0-1.70","6637136b0d2876a595d78394","6662009ae78f21dd82fcd179","66620a399474f26fc8eabb9b","null","","null","","","","","","","","./tasks/HMM-beads/Images/WhiteBeadChoice.png","","","","","","","","","",""
"image-keyboard-response","348","813714","0.0-3.0-6.0-1.0-2.70","6637136b0d2876a595d78394","6662009ae78f21dd82fcd179","66620a399474f26fc8eabb9b","null","","null","","","","","","","","./tasks/HMM-beads/Images/WhiteBeadChoiceCorrect.png","","","","","","","","","",""
"image-keyboard-response","349","814631","0.0-3.0-6.0-1.0-0.71","6637136b0d2876a595d78394","6662009ae78f21dd82fcd179","66620a399474f26fc8eabb9b","915","","j","","","","","","","","./tasks/HMM-beads/Images/NewTrialWC.png","lowH","1","71","0","0","1","1","false","",""
"image-keyboard-response","350","814934","0.0-3.0-6.0-1.0-1.71","6637136b0d2876a595d78394","6662009ae78f21dd82fcd179","66620a399474f26fc8eabb9b","null","","null","","","","","","","","./tasks/HMM-beads/Images/WhiteBeadChoice.png","","","","","","","","","",""
"image-keyboard-response","351","815443","0.0-3.0-6.0-1.0-2.71","6637136b0d2876a595d78394","6662009ae78f21dd82fcd179","66620a399474f26fc8eabb9b","null","","null","","","","","","","","./tasks/HMM-beads/Images/WhiteBeadChoiceWrong.png","","","","","","","","","",""
"image-keyboard-response","352","817086","0.0-3.0-6.0-1.0-0.72","6637136b0d2876a595d78394","6662009ae78f21dd82fcd179","66620a399474f26fc8eabb9b","1642","","j","","","","","","","","./tasks/HMM-beads/Images/NewTrialBC.png","lowH","1","72","0","0","0","1","false","",""
"image-keyboard-response","353","817389","0.0-3.0-6.0-1.0-1.72","6637136b0d2876a595d78394","6662009ae78f21dd82fcd179","66620a399474f26fc8eabb9b","null","","null","","","","","","","","./tasks/HMM-beads/Images/WhiteBeadChoice.png","","","","","","","","","",""
"image-keyboard-response","354","817900","0.0-3.0-6.0-1.0-2.72","6637136b0d2876a595d78394","6662009ae78f21dd82fcd179","66620a399474f26fc8eabb9b","null","","null","","","","","","","","./tasks/HMM-beads/Images/WhiteBeadChoiceWrong.png","","","","","","","","","",""
"image-keyboard-response","355","818750","0.0-3.0-6.0-1.0-0.73","6637136b0d2876a595d78394","6662009ae78f21dd82fcd179","66620a399474f26fc8eabb9b","848","","j","","","","","","","","./tasks/HMM-beads/Images/NewTrialBC.png","lowH","1","73","0","1","0","1","true","",""
"image-keyboard-response","356","819057","0.0-3.0-6.0-1.0-1.73","6637136b0d2876a595d78394","6662009ae78f21dd82fcd179","66620a399474f26fc8eabb9b","null","","null","","","","","","","","./tasks/HMM-beads/Images/WhiteBeadChoice.png","","","","","","","","","",""
"image-keyboard-response","357","819570","0.0-3.0-6.0-1.0-2.73","6637136b0d2876a595d78394","6662009ae78f21dd82fcd179","66620a399474f26fc8eabb9b","null","","null","","","","","","","","./tasks/HMM-beads/Images/WhiteBeadChoiceCorrect.png","","","","","","","","","",""
"image-keyboard-response","358","820151","0.0-3.0-6.0-1.0-0.74","6637136b0d2876a595d78394","6662009ae78f21dd82fcd179","66620a399474f26fc8eabb9b","579","","j","","","","","","","","./tasks/HMM-beads/Images/NewTrialWC.png","lowH","1","74","0","0","1","1","false","",""
"image-keyboard-response","359","820453","0.0-3.0-6.0-1.0-1.74","6637136b0d2876a595d78394","6662009ae78f21dd82fcd179","66620a399474f26fc8eabb9b","null","","null","","","","","","","","./tasks/HMM-beads/Images/WhiteBeadChoice.png","","","","","","","","","",""
"image-keyboard-response","360","820963","0.0-3.0-6.0-1.0-2.74","6637136b0d2876a595d78394","6662009ae78f21dd82fcd179","66620a399474f26fc8eabb9b","null","","null","","","","","","","","./tasks/HMM-beads/Images/WhiteBeadChoiceWrong.png","","","","","","","","","",""
"image-keyboard-response","361","821124","0.0-3.0-6.0-1.0-0.75","6637136b0d2876a595d78394","6662009ae78f21dd82fcd179","66620a399474f26fc8eabb9b","159","","j","","","","","","","","./tasks/HMM-beads/Images/NewTrialBC.png","lowH","1","75","0","1","0","1","true","",""
"image-keyboard-response","362","821426","0.0-3.0-6.0-1.0-1.75","6637136b0d2876a595d78394","6662009ae78f21dd82fcd179","66620a399474f26fc8eabb9b","null","","null","","","","","","","","./tasks/HMM-beads/Images/WhiteBeadChoice.png","","","","","","","","","",""
"image-keyboard-response","363","821935","0.0-3.0-6.0-1.0-2.75","6637136b0d2876a595d78394","6662009ae78f21dd82fcd179","66620a399474f26fc8eabb9b","null","","null","","","","","","","","./tasks/HMM-beads/Images/WhiteBeadChoiceCorrect.png","","","","","","","","","",""
"image-keyboard-response","364","821936","0.0-3.0-6.0-1.0-0.76","6637136b0d2876a595d78394","6662009ae78f21dd82fcd179","66620a399474f26fc8eabb9b","0","","j","","","","","","","","./tasks/HMM-beads/Images/NewTrialWC.png","lowH","1","76","0","1","1","1","true","",""
"image-keyboard-response","365","822245","0.0-3.0-6.0-1.0-1.76","6637136b0d2876a595d78394","6662009ae78f21dd82fcd179","66620a399474f26fc8eabb9b","null","","null","","","","","","","","./tasks/HMM-beads/Images/WhiteBeadChoice.png","","","","","","","","","",""
"image-keyboard-response","366","822753","0.0-3.0-6.0-1.0-2.76","6637136b0d2876a595d78394","6662009ae78f21dd82fcd179","66620a399474f26fc8eabb9b","null","","null","","","","","","","","./tasks/HMM-beads/Images/WhiteBeadChoiceCorrect.png","","","","","","","","","",""
"image-keyboard-response","367","822761","0.0-3.0-6.0-1.0-0.77","6637136b0d2876a595d78394","6662009ae78f21dd82fcd179","66620a399474f26fc8eabb9b","6","","j","","","","","","","","./tasks/HMM-beads/Images/NewTrialWC.png","lowH","1","77","0","0","1","1","false","",""
"image-keyboard-response","368","823062","0.0-3.0-6.0-1.0-1.77","6637136b0d2876a595d78394","6662009ae78f21dd82fcd179","66620a399474f26fc8eabb9b","null","","null","","","","","","","","./tasks/HMM-beads/Images/WhiteBeadChoice.png","","","","","","","","","",""
"image-keyboard-response","369","823571","0.0-3.0-6.0-1.0-2.77","6637136b0d2876a595d78394","6662009ae78f21dd82fcd179","66620a399474f26fc8eabb9b","null","","null","","","","","","","","./tasks/HMM-beads/Images/WhiteBeadChoiceWrong.png","","","","","","","","","",""
"image-keyboard-response","370","825053","0.0-3.0-6.0-1.0-0.78","6637136b0d2876a595d78394","6662009ae78f21dd82fcd179","66620a399474f26fc8eabb9b","1480","","f","","","","","","","","./tasks/HMM-beads/Images/NewTrialBC.png","lowH","1","78","0","0","0","0","true","",""
"image-keyboard-response","371","825360","0.0-3.0-6.0-1.0-1.78","6637136b0d2876a595d78394","6662009ae78f21dd82fcd179","66620a399474f26fc8eabb9b","null","","null","","","","","","","","./tasks/HMM-beads/Images/BlackBeadChoice.png","","","","","","","","","",""
"image-keyboard-response","372","825867","0.0-3.0-6.0-1.0-2.78","6637136b0d2876a595d78394","6662009ae78f21dd82fcd179","66620a399474f26fc8eabb9b","null","","null","","","","","","","","./tasks/HMM-beads/Images/BlackBeadChoiceCorrect.png","","","","","","","","","",""
