"trial_type","trial_index","time_elapsed","internal_node_id","subject_id","study_id","session_id","rt","url","response","question_order","view_history","success","timeout","failed_images","failed_audio","failed_video","stimulus","block","block_rep","trial_number","jar","bead","previous_bead","choice","correct","lowH_score","total_bonus"
"pavlovia","0","1312","0.0-0.0","5654171504212700054a12ad","6662009ae78f21dd82fcd179","66620bc3107cf8ff6cb193b4","","","","","","","","","","","","","","","","","","","","",""
"external-html","1","9641","0.0-1.0-0.0","5654171504212700054a12ad","6662009ae78f21dd82fcd179","66620bc3107cf8ff6cb193b4","8211","new_consent.html","","","","","","","","","","","","","","","","","","",""
"survey-multi-choice","2","14898","0.0-1.0-1.0","5654171504212700054a12ad","6662009ae78f21dd82fcd179","66620bc3107cf8ff6cb193b4","5253","","{""Q0"":""Female"",""Q1"":""Black or African American""}","[0,1]","","","","","","","","","","","","","","","","",""
"survey-text","3","17717","0.0-1.0-2.0","5654171504212700054a12ad","6662009ae78f21dd82fcd179","66620bc3107cf8ff6cb193b4","2811","","{""Q0"":""42""}","","","","","","","","","","","","","","","","","",""
"instructions","4","19497","0.0-2.0","5654171504212700054a12ad","6662009ae78f21dd82fcd179","66620bc3107cf8ff6cb193b4","1676","","","","[{""page_index"":0,""viewing_time"":1676}]","","","","","","","","","","","","","","","",""
"preload","5","20464","0.0-3.0-0.0","5654171504212700054a12ad","6662009ae78f21dd82fcd179","66620bc3107cf8ff6cb193b4","","","","","","true","false","[]","[]","[]","","","","","","","","","","",""
"instructions","6","328830","0.0-3.0-1.0","5654171504212700054a12ad","6662009ae78f21dd82fcd179","66620bc3107cf8ff6cb193b4","308364","","","","[{""page_index"":0,""viewing_time"":149384},{""page_index"":1,""viewing_time"":21850},{""page_index"":2,""viewing_time"":3444},{""page_index"":3,""viewing_time"":2782},{""page_index"":4,""viewing_time"":23874},{""page_index"":5,""viewing_time"":31286},{""page_index"":6,""viewing_time"":14408},{""page_index"":7,""viewing_time"":16539},{""page_index"":8,""viewing_time"":10808},{""page_index"":9,""viewing_time"":8980},{""page_index"":10,""viewing_time"":22623},{""page_index"":11,""viewing_time"":2386}]","","","","","","","","","","","","","","","",""
"html-button-response","7","332073","0.0-3.0-2.0-0.0-0.0","5654171504212700054a12ad","6662009ae78f21dd82fcd179","66620bc3107cf8ff6cb193b4","3240","","1","","","","","","","","<div align=center>Your goal is to predict…?<br><br></div>","","","","","","","","","",""
"html-button-response","8","339792","0.0-3.0-2.0-1.0-0.0","5654171504212700054a12ad","6662009ae78f21dd82fcd179","66620bc3107cf8ff6cb193b4","5626","","2","","","","","","","","<div align=center>In the jar with mostly white beads, there are ___% white beads and ___% black beads?<br><br></div>","","","","","","","","","",""
"html-button-response","9","346906","0.0-3.0-2.0-2.0-0.0","5654171504212700054a12ad","6662009ae78f21dd82fcd179","66620bc3107cf8ff6cb193b4","5758","","0","","","","","","","","<div align=center>When there is a 1% probability that the jars will switch, the next bead will most likely be drawn from the…<br><br></div>","","","","","","","","","",""
"html-button-response","10","351865","0.0-3.0-2.0-3.0-0.0","5654171504212700054a12ad","6662009ae78f21dd82fcd179","66620bc3107cf8ff6cb193b4","3436","","1","","","","","","","","<div align=center>When there is a 99% probability that the jars will switch, the next bead will most likely be drawn from the…<br><br></div>","","","","","","","","","",""
"instructions","11","374666","0.0-3.0-3.0","5654171504212700054a12ad","6662009ae78f21dd82fcd179","66620bc3107cf8ff6cb193b4","21623","","","","[{""page_index"":0,""viewing_time"":21623}]","","","","","","","","","","","","","","","",""
"html-keyboard-response","12","380440","0.0-3.0-4.0-0.0","5654171504212700054a12ad","6662009ae78f21dd82fcd179","66620bc3107cf8ff6cb193b4","5773",""," ","","","","","","","","<div align=center>In this practice block, there will be a <b>1% chance</b> that the jar on the next trial will be different from the jar on the current trial.<br><br></div>","","","","","","","","","",""
"image-keyboard-response","13","385303","0.0-3.0-4.0-1.0-0.0","5654171504212700054a12ad","6662009ae78f21dd82fcd179","66620bc3107cf8ff6cb193b4","4856","","f","","","","","","","","./tasks/HMM-beads/Images/NoChoice.png","practice","0","0","0","0","9","0","true","",""
"image-keyboard-response","14","385621","0.0-3.0-4.0-1.0-1.0","5654171504212700054a12ad","6662009ae78f21dd82fcd179","66620bc3107cf8ff6cb193b4","null","","null","","","","","","","","./tasks/HMM-beads/Images/BlackBeadChoice.png","","","","","","","","","",""
"image-keyboard-response","15","386137","0.0-3.0-4.0-1.0-2.0","5654171504212700054a12ad","6662009ae78f21dd82fcd179","66620bc3107cf8ff6cb193b4","null","","null","","","","","","","","./tasks/HMM-beads/Images/BlackBeadChoiceCorrect.png","","","","","","","","","",""
"image-keyboard-response","16","389010","0.0-3.0-4.0-1.0-0.1","5654171504212700054a12ad","6662009ae78f21dd82fcd179","66620bc3107cf8ff6cb193b4","2866","","j","","","","","","","","./tasks/HMM-beads/Images/NewTrialBC.png","practice","0","1","0","0","0","1","false","",""
"image-keyboard-response","17","389321","0.0-3.0-4.0-1.0-1.1","5654171504212700054a12ad","6662009ae78f21dd82fcd179","66620bc3107cf8ff6cb193b4","null","","null","","","","","","","","./tasks/HMM-beads/Images/WhiteBeadChoice.png","","","","","","","","","",""
"image-keyboard-response","18","389832","0.0-3.0-4.0-1.0-2.1","5654171504212700054a12ad","6662009ae78f21dd82fcd179","66620bc3107cf8ff6cb193b4","null","","null","","","","","","","","./tasks/HMM-beads/Images/WhiteBeadChoiceWrong.png","","","","","","","","","",""
"image-keyboard-response","19","394691","0.0-3.0-4.0-1.0-0.2","5654171504212700054a12ad","6662009ae78f21dd82fcd179","66620bc3107cf8ff6cb193b4","4853","","f","","","","","","","","./tasks/HMM-beads/Images/NewTrialBC.png","practice","0","2","0","1","0","0","false","",""
"image-keyboard-response","20","395001","0.0-3.0-4.0-1.0-1.2","5654171504212700054a12ad","6662009ae78f21dd82fcd179","66620bc3107cf8ff6cb193b4","null","","null","","","","","","","","./tasks/HMM-beads/Images/BlackBeadChoice.png","","","","","","","","","",""
"image-keyboard-response","21","395517","0.0-3.0-4.0-1.0-2.2","5654171504212700054a12ad","6662009ae78f21dd82fcd179","66620bc3107cf8ff6cb193b4","null","","null","","","","","","","","./tasks/HMM-beads/Images/BlackBeadChoiceWrong.png","","","","","","","","","",""
"image-keyboard-response","22","398835","0.0-3.0-4.0-1.0-0.3","5654171504212700054a12ad","6662009ae78f21dd82fcd179","66620bc3107cf8ff6cb193b4","3311","","j","","","","","","","","./tasks/HMM-beads/Images/NewTrialWC.png","practice","0","3","0","0","1","1","false","",""
"image-keyboard-response","23","399143","0.0-3.0-4.0-1.0-1.3","5654171504212700054a12ad","6662009ae78f21dd82fcd179","66620bc3107cf8ff6cb193b4","null","","null","","","","","","","","./tasks/HMM-beads/Images/WhiteBeadChoice.png","","","","","","","","","",""
"image-keyboard-response","24","399656","0.0-3.0-4.0-1.0-2.3","5654171504212700054a12ad","6662009ae78f21dd82fcd179","66620bc3107cf8ff6cb193b4","null","","null","","","","","","","","./tasks/HMM-beads/Images/WhiteBeadChoiceWrong.png","","","","","","","","","",""
"image-keyboard-response","25","400676","0.0-3.0-4.0-1.0-0.4","5654171504212700054a12ad","6662009ae78f21dd82fcd179","66620bc3107cf8ff6cb193b4","1012","","f","","","","","","","","./tasks/HMM-beads/Images/NewTrialBC.png","practice","0","4","0","0","0","0","true","",""
"image-keyboard-response","26","400985","0.0-3.0-4.0-1.0-1.4","5654171504212700054a12ad","6662009ae78f21dd82fcd179","66620bc3107cf8ff6cb193b4","null","","null","","","","","","","","./tasks/HMM-beads/Images/BlackBeadChoice.png","","","","","","","","","",""
"image-keyboard-response","27","401498","0.0-3.0-4.0-1.0-2.4","5654171504212700054a12ad","6662009ae78f21dd82fcd179","66620bc3107cf8ff6cb193b4","null","","null","","","","","","","","./tasks/HMM-beads/Images/BlackBeadChoiceCorrect.png","","","","","","","","","",""
"image-keyboard-response","28","403150","0.0-3.0-4.0-1.0-0.5","5654171504212700054a12ad","6662009ae78f21dd82fcd179","66620bc3107cf8ff6cb193b4","1645","","f","","","","","","","","./tasks/HMM-beads/Images/NewTrialBC.png","practice","0","5","0","1","0","0","false","",""
"image-keyboard-response","29","403464","0.0-3.0-4.0-1.0-1.5","5654171504212700054a12ad","6662009ae78f21dd82fcd179","66620bc3107cf8ff6cb193b4","null","","null","","","","","","","","./tasks/HMM-beads/Images/BlackBeadChoice.png","","","","","","","","","",""
"image-keyboard-response","30","403981","0.0-3.0-4.0-1.0-2.5","5654171504212700054a12ad","6662009ae78f21dd82fcd179","66620bc3107cf8ff6cb193b4","null","","null","","","","","","","","./tasks/HMM-beads/Images/BlackBeadChoiceWrong.png","","","","","","","","","",""
"image-keyboard-response","31","404453","0.0-3.0-4.0-1.0-0.6","5654171504212700054a12ad","6662009ae78f21dd82fcd179","66620bc3107cf8ff6cb193b4","466","","j","","","","","","","","./tasks/HMM-beads/Images/NewTrialWC.png","practice","0","6","0","0","1","1","false","",""
"image-keyboard-response","32","404773","0.0-3.0-4.0-1.0-1.6","5654171504212700054a12ad","6662009ae78f21dd82fcd179","66620bc3107cf8ff6cb193b4","null","","null","","","","","","","","./tasks/HMM-beads/Images/WhiteBeadChoice.png","","","","","","","","","",""
"image-keyboard-response","33","405294","0.0-3.0-4.0-1.0-2.6","5654171504212700054a12ad","6662009ae78f21dd82fcd179","66620bc3107cf8ff6cb193b4","null","","null","","","","","","","","./tasks/HMM-beads/Images/WhiteBeadChoiceWrong.png","","","","","","","","","",""
"image-keyboard-response","34","405795","0.0-3.0-4.0-1.0-0.7","5654171504212700054a12ad","6662009ae78f21dd82fcd179","66620bc3107cf8ff6cb193b4","495","","f","","","","","","","","./tasks/HMM-beads/Images/NewTrialBC.png","practice","0","7","0","0","0","0","true","",""
"image-keyboard-response","35","406109","0.0-3.0-4.0-1.0-1.7","5654171504212700054a12ad","6662009ae78f21dd82fcd179","66620bc3107cf8ff6cb193b4","null","","null","","","","","","","","./tasks/HMM-beads/Images/BlackBeadChoice.png","","","","","","","","","",""
"image-keyboard-response","36","406622","0.0-3.0-4.0-1.0-2.7","5654171504212700054a12ad","6662009ae78f21dd82fcd179","66620bc3107cf8ff6cb193b4","null","","null","","","","","","","","./tasks/HMM-beads/Images/BlackBeadChoiceCorrect.png","","","","","","","","","",""
"image-keyboard-response","37","407041","0.0-3.0-4.0-1.0-0.8","5654171504212700054a12ad","6662009ae78f21dd82fcd179","66620bc3107cf8ff6cb193b4","412","","f","","","","","","","","./tasks/HMM-beads/Images/NewTrialBC.png","practice","0","8","0","0","0","0","true","",""
"image-keyboard-response","38","407352","0.0-3.0-4.0-1.0-1.8","5654171504212700054a12ad","6662009ae78f21dd82fcd179","66620bc3107cf8ff6cb193b4","null","","null","","","","","","","","./tasks/HMM-beads/Images/BlackBeadChoice.png","","","","","","","","","",""
"image-keyboard-response","39","407867","0.0-3.0-4.0-1.0-2.8","5654171504212700054a12ad","6662009ae78f21dd82fcd179","66620bc3107cf8ff6cb193b4","null","","null","","","","","","","","./tasks/HMM-beads/Images/BlackBeadChoiceCorrect.png","","","","","","","","","",""
"image-keyboard-response","40","408257","0.0-3.0-4.0-1.0-0.9","5654171504212700054a12ad","6662009ae78f21dd82fcd179","66620bc3107cf8ff6cb193b4","383","","f","","","","","","","","./tasks/HMM-beads/Images/NewTrialBC.png","practice","0","9","0","1","0","0","false","",""
"image-keyboard-response","41","408573","0.0-3.0-4.0-1.0-1.9","5654171504212700054a12ad","6662009ae78f21dd82fcd179","66620bc3107cf8ff6cb193b4","null","","null","","","","","","","","./tasks/HMM-beads/Images/BlackBeadChoice.png","","","","","","","","","",""
"image-keyboard-response","42","409087","0.0-3.0-4.0-1.0-2.9","5654171504212700054a12ad","6662009ae78f21dd82fcd179","66620bc3107cf8ff6cb193b4","null","","null","","","","","","","","./tasks/HMM-beads/Images/BlackBeadChoiceWrong.png","","","","","","","","","",""
"image-keyboard-response","43","409335","0.0-3.0-4.0-1.0-0.10","5654171504212700054a12ad","6662009ae78f21dd82fcd179","66620bc3107cf8ff6cb193b4","240","","j","","","","","","","","./tasks/HMM-beads/Images/NewTrialWC.png","practice","0","10","0","0","1","1","false","",""
"image-keyboard-response","44","409653","0.0-3.0-4.0-1.0-1.10","5654171504212700054a12ad","6662009ae78f21dd82fcd179","66620bc3107cf8ff6cb193b4","null","","null","","","","","","","","./tasks/HMM-beads/Images/WhiteBeadChoice.png","","","","","","","","","",""
"image-keyboard-response","45","410173","0.0-3.0-4.0-1.0-2.10","5654171504212700054a12ad","6662009ae78f21dd82fcd179","66620bc3107cf8ff6cb193b4","null","","null","","","","","","","","./tasks/HMM-beads/Images/WhiteBeadChoiceWrong.png","","","","","","","","","",""
"image-keyboard-response","46","410709","0.0-3.0-4.0-1.0-0.11","5654171504212700054a12ad","6662009ae78f21dd82fcd179","66620bc3107cf8ff6cb193b4","530","","f","","","","","","","","./tasks/HMM-beads/Images/NewTrialBC.png","practice","0","11","0","1","0","0","false","",""
"image-keyboard-response","47","411025","0.0-3.0-4.0-1.0-1.11","5654171504212700054a12ad","6662009ae78f21dd82fcd179","66620bc3107cf8ff6cb193b4","null","","null","","","","","","","","./tasks/HMM-beads/Images/BlackBeadChoice.png","","","","","","","","","",""
"image-keyboard-response","48","411542","0.0-3.0-4.0-1.0-2.11","5654171504212700054a12ad","6662009ae78f21dd82fcd179","66620bc3107cf8ff6cb193b4","null","","null","","","","","","","","./tasks/HMM-beads/Images/BlackBeadChoiceWrong.png","","","","","","","","","",""
"image-keyboard-response","49","412068","0.0-3.0-4.0-1.0-0.12","5654171504212700054a12ad","6662009ae78f21dd82fcd179","66620bc3107cf8ff6cb193b4","519","","j","","","","","","","","./tasks/HMM-beads/Images/NewTrialWC.png","practice","0","12","0","0","1","1","false","",""
"image-keyboard-response","50","412382","0.0-3.0-4.0-1.0-1.12","5654171504212700054a12ad","6662009ae78f21dd82fcd179","66620bc3107cf8ff6cb193b4","null","","null","","","","","","","","./tasks/HMM-beads/Images/WhiteBeadChoice.png","","","","","","","","","",""
"image-keyboard-response","51","412901","0.0-3.0-4.0-1.0-2.12","5654171504212700054a12ad","6662009ae78f21dd82fcd179","66620bc3107cf8ff6cb193b4","null","","null","","","","","","","","./tasks/HMM-beads/Images/WhiteBeadChoiceWrong.png","","","","","","","","","",""
"image-keyboard-response","52","413151","0.0-3.0-4.0-1.0-0.13","5654171504212700054a12ad","6662009ae78f21dd82fcd179","66620bc3107cf8ff6cb193b4","244","","f","","","","","","","","./tasks/HMM-beads/Images/NewTrialBC.png","practice","0","13","0","0","0","0","true","",""
"image-keyboard-response","53","413469","0.0-3.0-4.0-1.0-1.13","5654171504212700054a12ad","6662009ae78f21dd82fcd179","66620bc3107cf8ff6cb193b4","null","","null","","","","","","","","./tasks/HMM-beads/Images/BlackBeadChoice.png","","","","","","","","","",""
"image-keyboard-response","54","413985","0.0-3.0-4.0-1.0-2.13","5654171504212700054a12ad","6662009ae78f21dd82fcd179","66620bc3107cf8ff6cb193b4","null","","null","","","","","","","","./tasks/HMM-beads/Images/BlackBeadChoiceCorrect.png","","","","","","","","","",""
"image-keyboard-response","55","414231","0.0-3.0-4.0-1.0-0.14","5654171504212700054a12ad","6662009ae78f21dd82fcd179","66620bc3107cf8ff6cb193b4","239","","f","","","","","","","","./tasks/HMM-beads/Images/NewTrialBC.png","practice","0","14","0","0","0","0","true","",""
"image-keyboard-response","56","414549","0.0-3.0-4.0-1.0-1.14","5654171504212700054a12ad","6662009ae78f21dd82fcd179","66620bc3107cf8ff6cb193b4","null","","null","","","","","","","","./tasks/HMM-beads/Images/BlackBeadChoice.png","","","","","","","","","",""
"image-keyboard-response","57","415069","0.0-3.0-4.0-1.0-2.14","5654171504212700054a12ad","6662009ae78f21dd82fcd179","66620bc3107cf8ff6cb193b4","null","","null","","","","","","","","./tasks/HMM-beads/Images/BlackBeadChoiceCorrect.png","","","","","","","","","",""
"image-keyboard-response","58","415316","0.0-3.0-4.0-1.0-0.15","5654171504212700054a12ad","6662009ae78f21dd82fcd179","66620bc3107cf8ff6cb193b4","241","","f","","","","","","","","./tasks/HMM-beads/Images/NewTrialBC.png","practice","0","15","0","0","0","0","true","",""
"image-keyboard-response","59","415629","0.0-3.0-4.0-1.0-1.15","5654171504212700054a12ad","6662009ae78f21dd82fcd179","66620bc3107cf8ff6cb193b4","null","","null","","","","","","","","./tasks/HMM-beads/Images/BlackBeadChoice.png","","","","","","","","","",""
"image-keyboard-response","60","416147","0.0-3.0-4.0-1.0-2.15","5654171504212700054a12ad","6662009ae78f21dd82fcd179","66620bc3107cf8ff6cb193b4","null","","null","","","","","","","","./tasks/HMM-beads/Images/BlackBeadChoiceCorrect.png","","","","","","","","","",""
"image-keyboard-response","61","416306","0.0-3.0-4.0-1.0-0.16","5654171504212700054a12ad","6662009ae78f21dd82fcd179","66620bc3107cf8ff6cb193b4","152","","f","","","","","","","","./tasks/HMM-beads/Images/NewTrialBC.png","practice","0","16","0","0","0","0","true","",""
"image-keyboard-response","62","416615","0.0-3.0-4.0-1.0-1.16","5654171504212700054a12ad","6662009ae78f21dd82fcd179","66620bc3107cf8ff6cb193b4","null","","null","","","","","","","","./tasks/HMM-beads/Images/BlackBeadChoice.png","","","","","","","","","",""
"image-keyboard-response","63","417142","0.0-3.0-4.0-1.0-2.16","5654171504212700054a12ad","6662009ae78f21dd82fcd179","66620bc3107cf8ff6cb193b4","null","","null","","","","","","","","./tasks/HMM-beads/Images/BlackBeadChoiceCorrect.png","","","","","","","","","",""
"image-keyboard-response","64","417352","0.0-3.0-4.0-1.0-0.17","5654171504212700054a12ad","6662009ae78f21dd82fcd179","66620bc3107cf8ff6cb193b4","204","","f","","","","","","","","./tasks/HMM-beads/Images/NewTrialBC.png","practice","0","17","0","0","0","0","true","",""
"image-keyboard-response","65","417670","0.0-3.0-4.0-1.0-1.17","5654171504212700054a12ad","6662009ae78f21dd82fcd179","66620bc3107cf8ff6cb193b4","null","","null","","","","","","","","./tasks/HMM-beads/Images/BlackBeadChoice.png","","","","","","","","","",""
"image-keyboard-response","66","418190","0.0-3.0-4.0-1.0-2.17","5654171504212700054a12ad","6662009ae78f21dd82fcd179","66620bc3107cf8ff6cb193b4","null","","null","","","","","","","","./tasks/HMM-beads/Images/BlackBeadChoiceCorrect.png","","","","","","","","","",""
"image-keyboard-response","67","418345","0.0-3.0-4.0-1.0-0.18","5654171504212700054a12ad","6662009ae78f21dd82fcd179","66620bc3107cf8ff6cb193b4","149","","f","","","","","","","","./tasks/HMM-beads/Images/NewTrialBC.png","practice","0","18","0","1","0","0","false","",""
"image-keyboard-response","68","418586","0.0-3.0-4.0-1.0-1.18","5654171504212700054a12ad","6662009ae78f21dd82fcd179","66620bc3107cf8ff6cb193b4","null","","null","","","","","","","","./tasks/HMM-beads/Images/BlackBeadChoice.png","","","","","","","","","",""
"image-keyboard-response","69","419096","0.0-3.0-4.0-1.0-2.18","5654171504212700054a12ad","6662009ae78f21dd82fcd179","66620bc3107cf8ff6cb193b4","null","","null","","","","","","","","./tasks/HMM-beads/Images/BlackBeadChoiceWrong.png","","","","","","","","","",""
"image-keyboard-response","70","419207","0.0-3.0-4.0-1.0-0.19","5654171504212700054a12ad","6662009ae78f21dd82fcd179","66620bc3107cf8ff6cb193b4","105","","j","","","","","","","","./tasks/HMM-beads/Images/NewTrialWC.png","practice","0","19","0","0","1","1","false","",""
"image-keyboard-response","71","419525","0.0-3.0-4.0-1.0-1.19","5654171504212700054a12ad","6662009ae78f21dd82fcd179","66620bc3107cf8ff6cb193b4","null","","null","","","","","","","","./tasks/HMM-beads/Images/WhiteBeadChoice.png","","","","","","","","","",""
"image-keyboard-response","72","420042","0.0-3.0-4.0-1.0-2.19","5654171504212700054a12ad","6662009ae78f21dd82fcd179","66620bc3107cf8ff6cb193b4","null","","null","","","","","","","","./tasks/HMM-beads/Images/WhiteBeadChoiceWrong.png","","","","","","","","","",""
"image-keyboard-response","73","420208","0.0-3.0-4.0-1.0-0.20","5654171504212700054a12ad","6662009ae78f21dd82fcd179","66620bc3107cf8ff6cb193b4","164","","f","","","","","","","","./tasks/HMM-beads/Images/NewTrialBC.png","practice","0","20","0","0","0","0","true","",""
"image-keyboard-response","74","420527","0.0-3.0-4.0-1.0-1.20","5654171504212700054a12ad","6662009ae78f21dd82fcd179","66620bc3107cf8ff6cb193b4","null","","null","","","","","","","","./tasks/HMM-beads/Images/BlackBeadChoice.png","","","","","","","","","",""
"image-keyboard-response","75","421043","0.0-3.0-4.0-1.0-2.20","5654171504212700054a12ad","6662009ae78f21dd82fcd179","66620bc3107cf8ff6cb193b4","null","","null","","","","","","","","./tasks/HMM-beads/Images/BlackBeadChoiceCorrect.png","","","","","","","","","",""
"image-keyboard-response","76","421124","0.0-3.0-4.0-1.0-0.21","5654171504212700054a12ad","6662009ae78f21dd82fcd179","66620bc3107cf8ff6cb193b4","74","","f","","","","","","","","./tasks/HMM-beads/Images/NewTrialBC.png","practice","0","21","0","1","0","0","false","",""
"image-keyboard-response","77","421437","0.0-3.0-4.0-1.0-1.21","5654171504212700054a12ad","6662009ae78f21dd82fcd179","66620bc3107cf8ff6cb193b4","null","","null","","","","","","","","./tasks/HMM-beads/Images/BlackBeadChoice.png","","","","","","","","","",""
"image-keyboard-response","78","421955","0.0-3.0-4.0-1.0-2.21","5654171504212700054a12ad","6662009ae78f21dd82fcd179","66620bc3107cf8ff6cb193b4","null","","null","","","","","","","","./tasks/HMM-beads/Images/BlackBeadChoiceWrong.png","","","","","","","","","",""
"image-keyboard-response","79","422236","0.0-3.0-4.0-1.0-0.22","5654171504212700054a12ad","6662009ae78f21dd82fcd179","66620bc3107cf8ff6cb193b4","275","","j","","","","","","","","./tasks/HMM-beads/Images/NewTrialWC.png","practice","0","22","1","1","1","1","true","",""
"image-keyboard-response","80","422551","0.0-3.0-4.0-1.0-1.22","5654171504212700054a12ad","6662009ae78f21dd82fcd179","66620bc3107cf8ff6cb193b4","null","","null","","","","","","","","./tasks/HMM-beads/Images/WhiteBeadChoice.png","","","","","","","","","",""
"image-keyboard-response","81","423064","0.0-3.0-4.0-1.0-2.22","5654171504212700054a12ad","6662009ae78f21dd82fcd179","66620bc3107cf8ff6cb193b4","null","","null","","","","","","","","./tasks/HMM-beads/Images/WhiteBeadChoiceCorrect.png","","","","","","","","","",""
"image-keyboard-response","82","423170","0.0-3.0-4.0-1.0-0.23","5654171504212700054a12ad","6662009ae78f21dd82fcd179","66620bc3107cf8ff6cb193b4","99","","j","","","","","","","","./tasks/HMM-beads/Images/NewTrialWC.png","practice","0","23","1","0","1","1","false","",""
"image-keyboard-response","83","423486","0.0-3.0-4.0-1.0-1.23","5654171504212700054a12ad","6662009ae78f21dd82fcd179","66620bc3107cf8ff6cb193b4","null","","null","","","","","","","","./tasks/HMM-beads/Images/WhiteBeadChoice.png","","","","","","","","","",""
"image-keyboard-response","84","424005","0.0-3.0-4.0-1.0-2.23","5654171504212700054a12ad","6662009ae78f21dd82fcd179","66620bc3107cf8ff6cb193b4","null","","null","","","","","","","","./tasks/HMM-beads/Images/WhiteBeadChoiceWrong.png","","","","","","","","","",""
"image-keyboard-response","85","424034","0.0-3.0-4.0-1.0-0.24","5654171504212700054a12ad","6662009ae78f21dd82fcd179","66620bc3107cf8ff6cb193b4","23","","f","","","","","","","","./tasks/HMM-beads/Images/NewTrialBC.png","practice","0","24","1","1","0","0","false","",""
"image-keyboard-response","86","424349","0.0-3.0-4.0-1.0-1.24","5654171504212700054a12ad","6662009ae78f21dd82fcd179","66620bc3107cf8ff6cb193b4","null","","null","","","","","","","","./tasks/HMM-beads/Images/BlackBeadChoice.png","","","","","","","","","",""
"image-keyboard-response","87","424863","0.0-3.0-4.0-1.0-2.24","5654171504212700054a12ad","6662009ae78f21dd82fcd179","66620bc3107cf8ff6cb193b4","null","","null","","","","","","","","./tasks/HMM-beads/Images/BlackBeadChoiceWrong.png","","","","","","","","","",""
"image-keyboard-response","88","425048","0.0-3.0-4.0-1.0-0.25","5654171504212700054a12ad","6662009ae78f21dd82fcd179","66620bc3107cf8ff6cb193b4","178","","j","","","","","","","","./tasks/HMM-beads/Images/NewTrialWC.png","practice","0","25","1","1","1","1","true","",""
"image-keyboard-response","89","425362","0.0-3.0-4.0-1.0-1.25","5654171504212700054a12ad","6662009ae78f21dd82fcd179","66620bc3107cf8ff6cb193b4","null","","null","","","","","","","","./tasks/HMM-beads/Images/WhiteBeadChoice.png","","","","","","","","","",""
"image-keyboard-response","90","425874","0.0-3.0-4.0-1.0-2.25","5654171504212700054a12ad","6662009ae78f21dd82fcd179","66620bc3107cf8ff6cb193b4","null","","null","","","","","","","","./tasks/HMM-beads/Images/WhiteBeadChoiceCorrect.png","","","","","","","","","",""
"image-keyboard-response","91","426855","0.0-3.0-4.0-1.0-0.26","5654171504212700054a12ad","6662009ae78f21dd82fcd179","66620bc3107cf8ff6cb193b4","974","","j","","","","","","","","./tasks/HMM-beads/Images/NewTrialWC.png","practice","0","26","1","1","1","1","true","",""
"image-keyboard-response","92","427169","0.0-3.0-4.0-1.0-1.26","5654171504212700054a12ad","6662009ae78f21dd82fcd179","66620bc3107cf8ff6cb193b4","null","","null","","","","","","","","./tasks/HMM-beads/Images/WhiteBeadChoice.png","","","","","","","","","",""
"image-keyboard-response","93","427686","0.0-3.0-4.0-1.0-2.26","5654171504212700054a12ad","6662009ae78f21dd82fcd179","66620bc3107cf8ff6cb193b4","null","","null","","","","","","","","./tasks/HMM-beads/Images/WhiteBeadChoiceCorrect.png","","","","","","","","","",""
"image-keyboard-response","94","428652","0.0-3.0-4.0-1.0-0.27","5654171504212700054a12ad","6662009ae78f21dd82fcd179","66620bc3107cf8ff6cb193b4","960","","j","","","","","","","","./tasks/HMM-beads/Images/NewTrialWC.png","practice","0","27","1","1","1","1","true","",""
"image-keyboard-response","95","428961","0.0-3.0-4.0-1.0-1.27","5654171504212700054a12ad","6662009ae78f21dd82fcd179","66620bc3107cf8ff6cb193b4","null","","null","","","","","","","","./tasks/HMM-beads/Images/WhiteBeadChoice.png","","","","","","","","","",""
"image-keyboard-response","96","429477","0.0-3.0-4.0-1.0-2.27","5654171504212700054a12ad","6662009ae78f21dd82fcd179","66620bc3107cf8ff6cb193b4","null","","null","","","","","","","","./tasks/HMM-beads/Images/WhiteBeadChoiceCorrect.png","","","","","","","","","",""
"image-keyboard-response","97","429940","0.0-3.0-4.0-1.0-0.28","5654171504212700054a12ad","6662009ae78f21dd82fcd179","66620bc3107cf8ff6cb193b4","456","","j","","","","","","","","./tasks/HMM-beads/Images/NewTrialWC.png","practice","0","28","1","0","1","1","false","",""
"image-keyboard-response","98","430253","0.0-3.0-4.0-1.0-1.28","5654171504212700054a12ad","6662009ae78f21dd82fcd179","66620bc3107cf8ff6cb193b4","null","","null","","","","","","","","./tasks/HMM-beads/Images/WhiteBeadChoice.png","","","","","","","","","",""
"image-keyboard-response","99","430770","0.0-3.0-4.0-1.0-2.28","5654171504212700054a12ad","6662009ae78f21dd82fcd179","66620bc3107cf8ff6cb193b4","null","","null","","","","","","","","./tasks/HMM-beads/Images/WhiteBeadChoiceWrong.png","","","","","","","","","",""
"image-keyboard-response","100","430820","0.0-3.0-4.0-1.0-0.29","5654171504212700054a12ad","6662009ae78f21dd82fcd179","66620bc3107cf8ff6cb193b4","43","","f","","","","","","","","./tasks/HMM-beads/Images/NewTrialBC.png","practice","0","29","1","1","0","0","false","",""
"image-keyboard-response","101","431133","0.0-3.0-4.0-1.0-1.29","5654171504212700054a12ad","6662009ae78f21dd82fcd179","66620bc3107cf8ff6cb193b4","null","","null","","","","","","","","./tasks/HMM-beads/Images/BlackBeadChoice.png","","","","","","","","","",""
"image-keyboard-response","102","431653","0.0-3.0-4.0-1.0-2.29","5654171504212700054a12ad","6662009ae78f21dd82fcd179","66620bc3107cf8ff6cb193b4","null","","null","","","","","","","","./tasks/HMM-beads/Images/BlackBeadChoiceWrong.png","","","","","","","","","",""
"image-keyboard-response","103","431977","0.0-3.0-4.0-1.0-0.30","5654171504212700054a12ad","6662009ae78f21dd82fcd179","66620bc3107cf8ff6cb193b4","318","","j","","","","","","","","./tasks/HMM-beads/Images/NewTrialWC.png","practice","0","30","1","0","1","1","false","",""
"image-keyboard-response","104","432289","0.0-3.0-4.0-1.0-1.30","5654171504212700054a12ad","6662009ae78f21dd82fcd179","66620bc3107cf8ff6cb193b4","null","","null","","","","","","","","./tasks/HMM-beads/Images/WhiteBeadChoice.png","","","","","","","","","",""
"image-keyboard-response","105","432800","0.0-3.0-4.0-1.0-2.30","5654171504212700054a12ad","6662009ae78f21dd82fcd179","66620bc3107cf8ff6cb193b4","null","","null","","","","","","","","./tasks/HMM-beads/Images/WhiteBeadChoiceWrong.png","","","","","","","","","",""
"image-keyboard-response","106","433506","0.0-3.0-4.0-1.0-0.31","5654171504212700054a12ad","6662009ae78f21dd82fcd179","66620bc3107cf8ff6cb193b4","700","","f","","","","","","","","./tasks/HMM-beads/Images/NewTrialBC.png","practice","0","31","1","1","0","0","false","",""
"image-keyboard-response","107","433823","0.0-3.0-4.0-1.0-1.31","5654171504212700054a12ad","6662009ae78f21dd82fcd179","66620bc3107cf8ff6cb193b4","null","","null","","","","","","","","./tasks/HMM-beads/Images/BlackBeadChoice.png","","","","","","","","","",""
"image-keyboard-response","108","434337","0.0-3.0-4.0-1.0-2.31","5654171504212700054a12ad","6662009ae78f21dd82fcd179","66620bc3107cf8ff6cb193b4","null","","null","","","","","","","","./tasks/HMM-beads/Images/BlackBeadChoiceWrong.png","","","","","","","","","",""
"image-keyboard-response","109","434768","0.0-3.0-4.0-1.0-0.32","5654171504212700054a12ad","6662009ae78f21dd82fcd179","66620bc3107cf8ff6cb193b4","424","","j","","","","","","","","./tasks/HMM-beads/Images/NewTrialWC.png","practice","0","32","1","1","1","1","true","",""
"image-keyboard-response","110","435087","0.0-3.0-4.0-1.0-1.32","5654171504212700054a12ad","6662009ae78f21dd82fcd179","66620bc3107cf8ff6cb193b4","null","","null","","","","","","","","./tasks/HMM-beads/Images/WhiteBeadChoice.png","","","","","","","","","",""
"image-keyboard-response","111","435607","0.0-3.0-4.0-1.0-2.32","5654171504212700054a12ad","6662009ae78f21dd82fcd179","66620bc3107cf8ff6cb193b4","null","","null","","","","","","","","./tasks/HMM-beads/Images/WhiteBeadChoiceCorrect.png","","","","","","","","","",""
"image-keyboard-response","112","446106","0.0-3.0-4.0-1.0-0.33","5654171504212700054a12ad","6662009ae78f21dd82fcd179","66620bc3107cf8ff6cb193b4","10493","","j","","","","","","","","./tasks/HMM-beads/Images/NewTrialWC.png","practice","0","33","1","1","1","1","true","",""
"image-keyboard-response","113","446417","0.0-3.0-4.0-1.0-1.33","5654171504212700054a12ad","6662009ae78f21dd82fcd179","66620bc3107cf8ff6cb193b4","null","","null","","","","","","","","./tasks/HMM-beads/Images/WhiteBeadChoice.png","","","","","","","","","",""
"image-keyboard-response","114","446930","0.0-3.0-4.0-1.0-2.33","5654171504212700054a12ad","6662009ae78f21dd82fcd179","66620bc3107cf8ff6cb193b4","null","","null","","","","","","","","./tasks/HMM-beads/Images/WhiteBeadChoiceCorrect.png","","","","","","","","","",""
"image-keyboard-response","115","450276","0.0-3.0-4.0-1.0-0.34","5654171504212700054a12ad","6662009ae78f21dd82fcd179","66620bc3107cf8ff6cb193b4","3339","","j","","","","","","","","./tasks/HMM-beads/Images/NewTrialWC.png","practice","0","34","1","1","1","1","true","",""
"image-keyboard-response","116","450587","0.0-3.0-4.0-1.0-1.34","5654171504212700054a12ad","6662009ae78f21dd82fcd179","66620bc3107cf8ff6cb193b4","null","","null","","","","","","","","./tasks/HMM-beads/Images/WhiteBeadChoice.png","","","","","","","","","",""
"image-keyboard-response","117","451100","0.0-3.0-4.0-1.0-2.34","5654171504212700054a12ad","6662009ae78f21dd82fcd179","66620bc3107cf8ff6cb193b4","null","","null","","","","","","","","./tasks/HMM-beads/Images/WhiteBeadChoiceCorrect.png","","","","","","","","","",""
"image-keyboard-response","118","451127","0.0-3.0-4.0-1.0-0.35","5654171504212700054a12ad","6662009ae78f21dd82fcd179","66620bc3107cf8ff6cb193b4","20","","j","","","","","","","","./tasks/HMM-beads/Images/NewTrialWC.png","practice","0","35","1","1","1","1","true","",""
"image-keyboard-response","119","451439","0.0-3.0-4.0-1.0-1.35","5654171504212700054a12ad","6662009ae78f21dd82fcd179","66620bc3107cf8ff6cb193b4","null","","null","","","","","","","","./tasks/HMM-beads/Images/WhiteBeadChoice.png","","","","","","","","","",""
"image-keyboard-response","120","451959","0.0-3.0-4.0-1.0-2.35","5654171504212700054a12ad","6662009ae78f21dd82fcd179","66620bc3107cf8ff6cb193b4","null","","null","","","","","","","","./tasks/HMM-beads/Images/WhiteBeadChoiceCorrect.png","","","","","","","","","",""
"image-keyboard-response","121","452928","0.0-3.0-4.0-1.0-0.36","5654171504212700054a12ad","6662009ae78f21dd82fcd179","66620bc3107cf8ff6cb193b4","962","","j","","","","","","","","./tasks/HMM-beads/Images/NewTrialWC.png","practice","0","36","1","0","1","1","false","",""
"image-keyboard-response","122","453240","0.0-3.0-4.0-1.0-1.36","5654171504212700054a12ad","6662009ae78f21dd82fcd179","66620bc3107cf8ff6cb193b4","null","","null","","","","","","","","./tasks/HMM-beads/Images/WhiteBeadChoice.png","","","","","","","","","",""
"image-keyboard-response","123","453752","0.0-3.0-4.0-1.0-2.36","5654171504212700054a12ad","6662009ae78f21dd82fcd179","66620bc3107cf8ff6cb193b4","null","","null","","","","","","","","./tasks/HMM-beads/Images/WhiteBeadChoiceWrong.png","","","","","","","","","",""
"image-keyboard-response","124","454310","0.0-3.0-4.0-1.0-0.37","5654171504212700054a12ad","6662009ae78f21dd82fcd179","66620bc3107cf8ff6cb193b4","552","","f","","","","","","","","./tasks/HMM-beads/Images/NewTrialBC.png","practice","0","37","1","1","0","0","false","",""
"image-keyboard-response","125","454630","0.0-3.0-4.0-1.0-1.37","5654171504212700054a12ad","6662009ae78f21dd82fcd179","66620bc3107cf8ff6cb193b4","null","","null","","","","","","","","./tasks/HMM-beads/Images/BlackBeadChoice.png","","","","","","","","","",""
"image-keyboard-response","126","455148","0.0-3.0-4.0-1.0-2.37","5654171504212700054a12ad","6662009ae78f21dd82fcd179","66620bc3107cf8ff6cb193b4","null","","null","","","","","","","","./tasks/HMM-beads/Images/BlackBeadChoiceWrong.png","","","","","","","","","",""
"image-keyboard-response","127","455353","0.0-3.0-4.0-1.0-0.38","5654171504212700054a12ad","6662009ae78f21dd82fcd179","66620bc3107cf8ff6cb193b4","199","","j","","","","","","","","./tasks/HMM-beads/Images/NewTrialWC.png","practice","0","38","1","1","1","1","true","",""
"image-keyboard-response","128","455664","0.0-3.0-4.0-1.0-1.38","5654171504212700054a12ad","6662009ae78f21dd82fcd179","66620bc3107cf8ff6cb193b4","null","","null","","","","","","","","./tasks/HMM-beads/Images/WhiteBeadChoice.png","","","","","","","","","",""
"image-keyboard-response","129","456176","0.0-3.0-4.0-1.0-2.38","5654171504212700054a12ad","6662009ae78f21dd82fcd179","66620bc3107cf8ff6cb193b4","null","","null","","","","","","","","./tasks/HMM-beads/Images/WhiteBeadChoiceCorrect.png","","","","","","","","","",""
"image-keyboard-response","130","456188","0.0-3.0-4.0-1.0-0.39","5654171504212700054a12ad","6662009ae78f21dd82fcd179","66620bc3107cf8ff6cb193b4","4","","j","","","","","","","","./tasks/HMM-beads/Images/NewTrialWC.png","practice","0","39","1","1","1","1","true","",""
"image-keyboard-response","131","456504","0.0-3.0-4.0-1.0-1.39","5654171504212700054a12ad","6662009ae78f21dd82fcd179","66620bc3107cf8ff6cb193b4","null","","null","","","","","","","","./tasks/HMM-beads/Images/WhiteBeadChoice.png","","","","","","","","","",""
"image-keyboard-response","132","457023","0.0-3.0-4.0-1.0-2.39","5654171504212700054a12ad","6662009ae78f21dd82fcd179","66620bc3107cf8ff6cb193b4","null","","null","","","","","","","","./tasks/HMM-beads/Images/WhiteBeadChoiceCorrect.png","","","","","","","","","",""
"html-keyboard-response","133","460265","0.0-3.0-4.0-2.0","5654171504212700054a12ad","6662009ae78f21dd82fcd179","66620bc3107cf8ff6cb193b4","3240",""," ","","","","","","","","","","","","","","","","","",""
"instructions","134","475247","0.0-3.0-5.0","5654171504212700054a12ad","6662009ae78f21dd82fcd179","66620bc3107cf8ff6cb193b4","14981","","","","[{""page_index"":0,""viewing_time"":10414},{""page_index"":1,""viewing_time"":4567}]","","","","","","","","","","","","","","","",""
"html-keyboard-response","135","479589","0.0-3.0-6.0-0.0","5654171504212700054a12ad","6662009ae78f21dd82fcd179","66620bc3107cf8ff6cb193b4","4342",""," ","","","","","","","","<div align=center>In this block, there will be a <b>1% chance</b> that the jar on the next trial will be different from the jar on the current trial.<br><br></div>","","","","","","","","","",""
"image-keyboard-response","136","481230","0.0-3.0-6.0-1.0-0.0","5654171504212700054a12ad","6662009ae78f21dd82fcd179","66620bc3107cf8ff6cb193b4","1636","","f","","","","","","","","./tasks/HMM-beads/Images/NoChoice.png","lowH","1","0","1","0","9","0","true","",""
"image-keyboard-response","137","481536","0.0-3.0-6.0-1.0-1.0","5654171504212700054a12ad","6662009ae78f21dd82fcd179","66620bc3107cf8ff6cb193b4","null","","null","","","","","","","","./tasks/HMM-beads/Images/BlackBeadChoice.png","","","","","","","","","",""
"image-keyboard-response","138","482049","0.0-3.0-6.0-1.0-2.0","5654171504212700054a12ad","6662009ae78f21dd82fcd179","66620bc3107cf8ff6cb193b4","null","","null","","","","","","","","./tasks/HMM-beads/Images/BlackBeadChoiceCorrect.png","","","","","","","","","",""
"image-keyboard-response","139","482712","0.0-3.0-6.0-1.0-0.1","5654171504212700054a12ad","6662009ae78f21dd82fcd179","66620bc3107cf8ff6cb193b4","656","","f","","","","","","","","./tasks/HMM-beads/Images/NewTrialBC.png","lowH","1","1","1","1","0","0","false","",""
"image-keyboard-response","140","483027","0.0-3.0-6.0-1.0-1.1","5654171504212700054a12ad","6662009ae78f21dd82fcd179","66620bc3107cf8ff6cb193b4","null","","null","","","","","","","","./tasks/HMM-beads/Images/BlackBeadChoice.png","","","","","","","","","",""
"image-keyboard-response","141","483543","0.0-3.0-6.0-1.0-2.1","5654171504212700054a12ad","6662009ae78f21dd82fcd179","66620bc3107cf8ff6cb193b4","null","","null","","","","","","","","./tasks/HMM-beads/Images/BlackBeadChoiceWrong.png","","","","","","","","","",""
"image-keyboard-response","142","483554","0.0-3.0-6.0-1.0-0.2","5654171504212700054a12ad","6662009ae78f21dd82fcd179","66620bc3107cf8ff6cb193b4","4","","j","","","","","","","","./tasks/HMM-beads/Images/NewTrialWC.png","lowH","1","2","1","1","1","1","true","",""
"image-keyboard-response","143","483869","0.0-3.0-6.0-1.0-1.2","5654171504212700054a12ad","6662009ae78f21dd82fcd179","66620bc3107cf8ff6cb193b4","null","","null","","","","","","","","./tasks/HMM-beads/Images/WhiteBeadChoice.png","","","","","","","","","",""
"image-keyboard-response","144","484383","0.0-3.0-6.0-1.0-2.2","5654171504212700054a12ad","6662009ae78f21dd82fcd179","66620bc3107cf8ff6cb193b4","null","","null","","","","","","","","./tasks/HMM-beads/Images/WhiteBeadChoiceCorrect.png","","","","","","","","","",""
"image-keyboard-response","145","485138","0.0-3.0-6.0-1.0-0.3","5654171504212700054a12ad","6662009ae78f21dd82fcd179","66620bc3107cf8ff6cb193b4","750","","j","","","","","","","","./tasks/HMM-beads/Images/NewTrialWC.png","lowH","1","3","1","1","1","1","true","",""
"image-keyboard-response","146","485454","0.0-3.0-6.0-1.0-1.3","5654171504212700054a12ad","6662009ae78f21dd82fcd179","66620bc3107cf8ff6cb193b4","null","","null","","","","","","","","./tasks/HMM-beads/Images/WhiteBeadChoice.png","","","","","","","","","",""
"image-keyboard-response","147","485968","0.0-3.0-6.0-1.0-2.3","5654171504212700054a12ad","6662009ae78f21dd82fcd179","66620bc3107cf8ff6cb193b4","null","","null","","","","","","","","./tasks/HMM-beads/Images/WhiteBeadChoiceCorrect.png","","","","","","","","","",""
"image-keyboard-response","148","486438","0.0-3.0-6.0-1.0-0.4","5654171504212700054a12ad","6662009ae78f21dd82fcd179","66620bc3107cf8ff6cb193b4","465","","j","","","","","","","","./tasks/HMM-beads/Images/NewTrialWC.png","lowH","1","4","1","1","1","1","true","",""
"image-keyboard-response","149","486749","0.0-3.0-6.0-1.0-1.4","5654171504212700054a12ad","6662009ae78f21dd82fcd179","66620bc3107cf8ff6cb193b4","null","","null","","","","","","","","./tasks/HMM-beads/Images/WhiteBeadChoice.png","","","","","","","","","",""
"image-keyboard-response","150","487258","0.0-3.0-6.0-1.0-2.4","5654171504212700054a12ad","6662009ae78f21dd82fcd179","66620bc3107cf8ff6cb193b4","null","","null","","","","","","","","./tasks/HMM-beads/Images/WhiteBeadChoiceCorrect.png","","","","","","","","","",""
"image-keyboard-response","151","487686","0.0-3.0-6.0-1.0-0.5","5654171504212700054a12ad","6662009ae78f21dd82fcd179","66620bc3107cf8ff6cb193b4","422","","j","","","","","","","","./tasks/HMM-beads/Images/NewTrialWC.png","lowH","1","5","1","1","1","1","true","",""
"image-keyboard-response","152","488008","0.0-3.0-6.0-1.0-1.5","5654171504212700054a12ad","6662009ae78f21dd82fcd179","66620bc3107cf8ff6cb193b4","null","","null","","","","","","","","./tasks/HMM-beads/Images/WhiteBeadChoice.png","","","","","","","","","",""
"image-keyboard-response","153","488524","0.0-3.0-6.0-1.0-2.5","5654171504212700054a12ad","6662009ae78f21dd82fcd179","66620bc3107cf8ff6cb193b4","null","","null","","","","","","","","./tasks/HMM-beads/Images/WhiteBeadChoiceCorrect.png","","","","","","","","","",""
"image-keyboard-response","154","488888","0.0-3.0-6.0-1.0-0.6","5654171504212700054a12ad","6662009ae78f21dd82fcd179","66620bc3107cf8ff6cb193b4","357","","j","","","","","","","","./tasks/HMM-beads/Images/NewTrialWC.png","lowH","1","6","1","0","1","1","false","",""
"image-keyboard-response","155","489205","0.0-3.0-6.0-1.0-1.6","5654171504212700054a12ad","6662009ae78f21dd82fcd179","66620bc3107cf8ff6cb193b4","null","","null","","","","","","","","./tasks/HMM-beads/Images/WhiteBeadChoice.png","","","","","","","","","",""
"image-keyboard-response","156","489724","0.0-3.0-6.0-1.0-2.6","5654171504212700054a12ad","6662009ae78f21dd82fcd179","66620bc3107cf8ff6cb193b4","null","","null","","","","","","","","./tasks/HMM-beads/Images/WhiteBeadChoiceWrong.png","","","","","","","","","",""
"image-keyboard-response","157","490202","0.0-3.0-6.0-1.0-0.7","5654171504212700054a12ad","6662009ae78f21dd82fcd179","66620bc3107cf8ff6cb193b4","471","","f","","","","","","","","./tasks/HMM-beads/Images/NewTrialBC.png","lowH","1","7","1","1","0","0","false","",""
"image-keyboard-response","158","490512","0.0-3.0-6.0-1.0-1.7","5654171504212700054a12ad","6662009ae78f21dd82fcd179","66620bc3107cf8ff6cb193b4","null","","null","","","","","","","","./tasks/HMM-beads/Images/BlackBeadChoice.png","","","","","","","","","",""
"image-keyboard-response","159","491028","0.0-3.0-6.0-1.0-2.7","5654171504212700054a12ad","6662009ae78f21dd82fcd179","66620bc3107cf8ff6cb193b4","null","","null","","","","","","","","./tasks/HMM-beads/Images/BlackBeadChoiceWrong.png","","","","","","","","","",""
"image-keyboard-response","160","491055","0.0-3.0-6.0-1.0-0.8","5654171504212700054a12ad","6662009ae78f21dd82fcd179","66620bc3107cf8ff6cb193b4","20","","j","","","","","","","","./tasks/HMM-beads/Images/NewTrialWC.png","lowH","1","8","1","1","1","1","true","",""
"image-keyboard-response","161","491365","0.0-3.0-6.0-1.0-1.8","5654171504212700054a12ad","6662009ae78f21dd82fcd179","66620bc3107cf8ff6cb193b4","null","","null","","","","","","","","./tasks/HMM-beads/Images/WhiteBeadChoice.png","","","","","","","","","",""
"image-keyboard-response","162","491883","0.0-3.0-6.0-1.0-2.8","5654171504212700054a12ad","6662009ae78f21dd82fcd179","66620bc3107cf8ff6cb193b4","null","","null","","","","","","","","./tasks/HMM-beads/Images/WhiteBeadChoiceCorrect.png","","","","","","","","","",""
"image-keyboard-response","163","492427","0.0-3.0-6.0-1.0-0.9","5654171504212700054a12ad","6662009ae78f21dd82fcd179","66620bc3107cf8ff6cb193b4","538","","j","","","","","","","","./tasks/HMM-beads/Images/NewTrialWC.png","lowH","1","9","1","1","1","1","true","",""
"image-keyboard-response","164","492736","0.0-3.0-6.0-1.0-1.9","5654171504212700054a12ad","6662009ae78f21dd82fcd179","66620bc3107cf8ff6cb193b4","null","","null","","","","","","","","./tasks/HMM-beads/Images/WhiteBeadChoice.png","","","","","","","","","",""
"image-keyboard-response","165","493254","0.0-3.0-6.0-1.0-2.9","5654171504212700054a12ad","6662009ae78f21dd82fcd179","66620bc3107cf8ff6cb193b4","null","","null","","","","","","","","./tasks/HMM-beads/Images/WhiteBeadChoiceCorrect.png","","","","","","","","","",""
"image-keyboard-response","166","493508","0.0-3.0-6.0-1.0-0.10","5654171504212700054a12ad","6662009ae78f21dd82fcd179","66620bc3107cf8ff6cb193b4","248","","j","","","","","","","","./tasks/HMM-beads/Images/NewTrialWC.png","lowH","1","10","1","1","1","1","true","",""
"image-keyboard-response","167","493822","0.0-3.0-6.0-1.0-1.10","5654171504212700054a12ad","6662009ae78f21dd82fcd179","66620bc3107cf8ff6cb193b4","null","","null","","","","","","","","./tasks/HMM-beads/Images/WhiteBeadChoice.png","","","","","","","","","",""
"image-keyboard-response","168","494335","0.0-3.0-6.0-1.0-2.10","5654171504212700054a12ad","6662009ae78f21dd82fcd179","66620bc3107cf8ff6cb193b4","null","","null","","","","","","","","./tasks/HMM-beads/Images/WhiteBeadChoiceCorrect.png","","","","","","","","","",""
"image-keyboard-response","169","494712","0.0-3.0-6.0-1.0-0.11","5654171504212700054a12ad","6662009ae78f21dd82fcd179","66620bc3107cf8ff6cb193b4","370","","j","","","","","","","","./tasks/HMM-beads/Images/NewTrialWC.png","lowH","1","11","1","1","1","1","true","",""
"image-keyboard-response","170","495030","0.0-3.0-6.0-1.0-1.11","5654171504212700054a12ad","6662009ae78f21dd82fcd179","66620bc3107cf8ff6cb193b4","null","","null","","","","","","","","./tasks/HMM-beads/Images/WhiteBeadChoice.png","","","","","","","","","",""
"image-keyboard-response","171","495550","0.0-3.0-6.0-1.0-2.11","5654171504212700054a12ad","6662009ae78f21dd82fcd179","66620bc3107cf8ff6cb193b4","null","","null","","","","","","","","./tasks/HMM-beads/Images/WhiteBeadChoiceCorrect.png","","","","","","","","","",""
"image-keyboard-response","172","495904","0.0-3.0-6.0-1.0-0.12","5654171504212700054a12ad","6662009ae78f21dd82fcd179","66620bc3107cf8ff6cb193b4","347","","j","","","","","","","","./tasks/HMM-beads/Images/NewTrialWC.png","lowH","1","12","1","1","1","1","true","",""
"image-keyboard-response","173","496220","0.0-3.0-6.0-1.0-1.12","5654171504212700054a12ad","6662009ae78f21dd82fcd179","66620bc3107cf8ff6cb193b4","null","","null","","","","","","","","./tasks/HMM-beads/Images/WhiteBeadChoice.png","","","","","","","","","",""
"image-keyboard-response","174","496736","0.0-3.0-6.0-1.0-2.12","5654171504212700054a12ad","6662009ae78f21dd82fcd179","66620bc3107cf8ff6cb193b4","null","","null","","","","","","","","./tasks/HMM-beads/Images/WhiteBeadChoiceCorrect.png","","","","","","","","","",""
"image-keyboard-response","175","497078","0.0-3.0-6.0-1.0-0.13","5654171504212700054a12ad","6662009ae78f21dd82fcd179","66620bc3107cf8ff6cb193b4","335","","j","","","","","","","","./tasks/HMM-beads/Images/NewTrialWC.png","lowH","1","13","1","0","1","1","false","",""
"image-keyboard-response","176","497399","0.0-3.0-6.0-1.0-1.13","5654171504212700054a12ad","6662009ae78f21dd82fcd179","66620bc3107cf8ff6cb193b4","null","","null","","","","","","","","./tasks/HMM-beads/Images/WhiteBeadChoice.png","","","","","","","","","",""
"image-keyboard-response","177","497917","0.0-3.0-6.0-1.0-2.13","5654171504212700054a12ad","6662009ae78f21dd82fcd179","66620bc3107cf8ff6cb193b4","null","","null","","","","","","","","./tasks/HMM-beads/Images/WhiteBeadChoiceWrong.png","","","","","","","","","",""
"image-keyboard-response","178","498355","0.0-3.0-6.0-1.0-0.14","5654171504212700054a12ad","6662009ae78f21dd82fcd179","66620bc3107cf8ff6cb193b4","431","","f","","","","","","","","./tasks/HMM-beads/Images/NewTrialBC.png","lowH","1","14","1","0","0","0","true","",""
"image-keyboard-response","179","498670","0.0-3.0-6.0-1.0-1.14","5654171504212700054a12ad","6662009ae78f21dd82fcd179","66620bc3107cf8ff6cb193b4","null","","null","","","","","","","","./tasks/HMM-beads/Images/BlackBeadChoice.png","","","","","","","","","",""
"image-keyboard-response","180","499187","0.0-3.0-6.0-1.0-2.14","5654171504212700054a12ad","6662009ae78f21dd82fcd179","66620bc3107cf8ff6cb193b4","null","","null","","","","","","","","./tasks/HMM-beads/Images/BlackBeadChoiceCorrect.png","","","","","","","","","",""
"image-keyboard-response","181","499520","0.0-3.0-6.0-1.0-0.15","5654171504212700054a12ad","6662009ae78f21dd82fcd179","66620bc3107cf8ff6cb193b4","327","","f","","","","","","","","./tasks/HMM-beads/Images/NewTrialBC.png","lowH","1","15","1","1","0","0","false","",""
"image-keyboard-response","182","499838","0.0-3.0-6.0-1.0-1.15","5654171504212700054a12ad","6662009ae78f21dd82fcd179","66620bc3107cf8ff6cb193b4","null","","null","","","","","","","","./tasks/HMM-beads/Images/BlackBeadChoice.png","","","","","","","","","",""
"image-keyboard-response","183","500352","0.0-3.0-6.0-1.0-2.15","5654171504212700054a12ad","6662009ae78f21dd82fcd179","66620bc3107cf8ff6cb193b4","null","","null","","","","","","","","./tasks/HMM-beads/Images/BlackBeadChoiceWrong.png","","","","","","","","","",""
"image-keyboard-response","184","500763","0.0-3.0-6.0-1.0-0.16","5654171504212700054a12ad","6662009ae78f21dd82fcd179","66620bc3107cf8ff6cb193b4","405","","j","","","","","","","","./tasks/HMM-beads/Images/NewTrialWC.png","lowH","1","16","1","1","1","1","true","",""
"image-keyboard-response","185","501076","0.0-3.0-6.0-1.0-1.16","5654171504212700054a12ad","6662009ae78f21dd82fcd179","66620bc3107cf8ff6cb193b4","null","","null","","","","","","","","./tasks/HMM-beads/Images/WhiteBeadChoice.png","","","","","","","","","",""
"image-keyboard-response","186","501593","0.0-3.0-6.0-1.0-2.16","5654171504212700054a12ad","6662009ae78f21dd82fcd179","66620bc3107cf8ff6cb193b4","null","","null","","","","","","","","./tasks/HMM-beads/Images/WhiteBeadChoiceCorrect.png","","","","","","","","","",""
"image-keyboard-response","187","501964","0.0-3.0-6.0-1.0-0.17","5654171504212700054a12ad","6662009ae78f21dd82fcd179","66620bc3107cf8ff6cb193b4","364","","j","","","","","","","","./tasks/HMM-beads/Images/NewTrialWC.png","lowH","1","17","1","1","1","1","true","",""
"image-keyboard-response","188","502274","0.0-3.0-6.0-1.0-1.17","5654171504212700054a12ad","6662009ae78f21dd82fcd179","66620bc3107cf8ff6cb193b4","null","","null","","","","","","","","./tasks/HMM-beads/Images/WhiteBeadChoice.png","","","","","","","","","",""
"image-keyboard-response","189","502789","0.0-3.0-6.0-1.0-2.17","5654171504212700054a12ad","6662009ae78f21dd82fcd179","66620bc3107cf8ff6cb193b4","null","","null","","","","","","","","./tasks/HMM-beads/Images/WhiteBeadChoiceCorrect.png","","","","","","","","","",""
"image-keyboard-response","190","503141","0.0-3.0-6.0-1.0-0.18","5654171504212700054a12ad","6662009ae78f21dd82fcd179","66620bc3107cf8ff6cb193b4","346","","j","","","","","","","","./tasks/HMM-beads/Images/NewTrialWC.png","lowH","1","18","1","1","1","1","true","",""
"image-keyboard-response","191","503455","0.0-3.0-6.0-1.0-1.18","5654171504212700054a12ad","6662009ae78f21dd82fcd179","66620bc3107cf8ff6cb193b4","null","","null","","","","","","","","./tasks/HMM-beads/Images/WhiteBeadChoice.png","","","","","","","","","",""
"image-keyboard-response","192","503968","0.0-3.0-6.0-1.0-2.18","5654171504212700054a12ad","6662009ae78f21dd82fcd179","66620bc3107cf8ff6cb193b4","null","","null","","","","","","","","./tasks/HMM-beads/Images/WhiteBeadChoiceCorrect.png","","","","","","","","","",""
"image-keyboard-response","193","504232","0.0-3.0-6.0-1.0-0.19","5654171504212700054a12ad","6662009ae78f21dd82fcd179","66620bc3107cf8ff6cb193b4","260","","j","","","","","","","","./tasks/HMM-beads/Images/NewTrialWC.png","lowH","1","19","1","1","1","1","true","",""
"image-keyboard-response","194","504548","0.0-3.0-6.0-1.0-1.19","5654171504212700054a12ad","6662009ae78f21dd82fcd179","66620bc3107cf8ff6cb193b4","null","","null","","","","","","","","./tasks/HMM-beads/Images/WhiteBeadChoice.png","","","","","","","","","",""
"image-keyboard-response","195","505060","0.0-3.0-6.0-1.0-2.19","5654171504212700054a12ad","6662009ae78f21dd82fcd179","66620bc3107cf8ff6cb193b4","null","","null","","","","","","","","./tasks/HMM-beads/Images/WhiteBeadChoiceCorrect.png","","","","","","","","","",""
"image-keyboard-response","196","505316","0.0-3.0-6.0-1.0-0.20","5654171504212700054a12ad","6662009ae78f21dd82fcd179","66620bc3107cf8ff6cb193b4","251","","j","","","","","","","","./tasks/HMM-beads/Images/NewTrialWC.png","lowH","1","20","1","1","1","1","true","",""
"image-keyboard-response","197","505629","0.0-3.0-6.0-1.0-1.20","5654171504212700054a12ad","6662009ae78f21dd82fcd179","66620bc3107cf8ff6cb193b4","null","","null","","","","","","","","./tasks/HMM-beads/Images/WhiteBeadChoice.png","","","","","","","","","",""
"image-keyboard-response","198","506144","0.0-3.0-6.0-1.0-2.20","5654171504212700054a12ad","6662009ae78f21dd82fcd179","66620bc3107cf8ff6cb193b4","null","","null","","","","","","","","./tasks/HMM-beads/Images/WhiteBeadChoiceCorrect.png","","","","","","","","","",""
"image-keyboard-response","199","506341","0.0-3.0-6.0-1.0-0.21","5654171504212700054a12ad","6662009ae78f21dd82fcd179","66620bc3107cf8ff6cb193b4","190","","j","","","","","","","","./tasks/HMM-beads/Images/NewTrialWC.png","lowH","1","21","1","1","1","1","true","",""
"image-keyboard-response","200","506655","0.0-3.0-6.0-1.0-1.21","5654171504212700054a12ad","6662009ae78f21dd82fcd179","66620bc3107cf8ff6cb193b4","null","","null","","","","","","","","./tasks/HMM-beads/Images/WhiteBeadChoice.png","","","","","","","","","",""
"image-keyboard-response","201","507175","0.0-3.0-6.0-1.0-2.21","5654171504212700054a12ad","6662009ae78f21dd82fcd179","66620bc3107cf8ff6cb193b4","null","","null","","","","","","","","./tasks/HMM-beads/Images/WhiteBeadChoiceCorrect.png","","","","","","","","","",""
"image-keyboard-response","202","507392","0.0-3.0-6.0-1.0-0.22","5654171504212700054a12ad","6662009ae78f21dd82fcd179","66620bc3107cf8ff6cb193b4","210","","j","","","","","","","","./tasks/HMM-beads/Images/NewTrialWC.png","lowH","1","22","1","1","1","1","true","",""
"image-keyboard-response","203","507706","0.0-3.0-6.0-1.0-1.22","5654171504212700054a12ad","6662009ae78f21dd82fcd179","66620bc3107cf8ff6cb193b4","null","","null","","","","","","","","./tasks/HMM-beads/Images/WhiteBeadChoice.png","","","","","","","","","",""
"image-keyboard-response","204","508216","0.0-3.0-6.0-1.0-2.22","5654171504212700054a12ad","6662009ae78f21dd82fcd179","66620bc3107cf8ff6cb193b4","null","","null","","","","","","","","./tasks/HMM-beads/Images/WhiteBeadChoiceCorrect.png","","","","","","","","","",""
"image-keyboard-response","205","508398","0.0-3.0-6.0-1.0-0.23","5654171504212700054a12ad","6662009ae78f21dd82fcd179","66620bc3107cf8ff6cb193b4","175","","j","","","","","","","","./tasks/HMM-beads/Images/NewTrialWC.png","lowH","1","23","1","1","1","1","true","",""
"image-keyboard-response","206","508726","0.0-3.0-6.0-1.0-1.23","5654171504212700054a12ad","6662009ae78f21dd82fcd179","66620bc3107cf8ff6cb193b4","null","","null","","","","","","","","./tasks/HMM-beads/Images/WhiteBeadChoice.png","","","","","","","","","",""
"image-keyboard-response","207","509247","0.0-3.0-6.0-1.0-2.23","5654171504212700054a12ad","6662009ae78f21dd82fcd179","66620bc3107cf8ff6cb193b4","null","","null","","","","","","","","./tasks/HMM-beads/Images/WhiteBeadChoiceCorrect.png","","","","","","","","","",""
"image-keyboard-response","208","509386","0.0-3.0-6.0-1.0-0.24","5654171504212700054a12ad","6662009ae78f21dd82fcd179","66620bc3107cf8ff6cb193b4","132","","j","","","","","","","","./tasks/HMM-beads/Images/NewTrialWC.png","lowH","1","24","1","0","1","1","false","",""
"image-keyboard-response","209","509703","0.0-3.0-6.0-1.0-1.24","5654171504212700054a12ad","6662009ae78f21dd82fcd179","66620bc3107cf8ff6cb193b4","null","","null","","","","","","","","./tasks/HMM-beads/Images/WhiteBeadChoice.png","","","","","","","","","",""
"image-keyboard-response","210","510216","0.0-3.0-6.0-1.0-2.24","5654171504212700054a12ad","6662009ae78f21dd82fcd179","66620bc3107cf8ff6cb193b4","null","","null","","","","","","","","./tasks/HMM-beads/Images/WhiteBeadChoiceWrong.png","","","","","","","","","",""
"image-keyboard-response","211","510804","0.0-3.0-6.0-1.0-0.25","5654171504212700054a12ad","6662009ae78f21dd82fcd179","66620bc3107cf8ff6cb193b4","583","","f","","","","","","","","./tasks/HMM-beads/Images/NewTrialBC.png","lowH","1","25","1","1","0","0","false","",""
"image-keyboard-response","212","511115","0.0-3.0-6.0-1.0-1.25","5654171504212700054a12ad","6662009ae78f21dd82fcd179","66620bc3107cf8ff6cb193b4","null","","null","","","","","","","","./tasks/HMM-beads/Images/BlackBeadChoice.png","","","","","","","","","",""
"image-keyboard-response","213","511624","0.0-3.0-6.0-1.0-2.25","5654171504212700054a12ad","6662009ae78f21dd82fcd179","66620bc3107cf8ff6cb193b4","null","","null","","","","","","","","./tasks/HMM-beads/Images/BlackBeadChoiceWrong.png","","","","","","","","","",""
"image-keyboard-response","214","511641","0.0-3.0-6.0-1.0-0.26","5654171504212700054a12ad","6662009ae78f21dd82fcd179","66620bc3107cf8ff6cb193b4","11","","j","","","","","","","","./tasks/HMM-beads/Images/NewTrialWC.png","lowH","1","26","1","0","1","1","false","",""
"image-keyboard-response","215","511958","0.0-3.0-6.0-1.0-1.26","5654171504212700054a12ad","6662009ae78f21dd82fcd179","66620bc3107cf8ff6cb193b4","null","","null","","","","","","","","./tasks/HMM-beads/Images/WhiteBeadChoice.png","","","","","","","","","",""
"image-keyboard-response","216","512477","0.0-3.0-6.0-1.0-2.26","5654171504212700054a12ad","6662009ae78f21dd82fcd179","66620bc3107cf8ff6cb193b4","null","","null","","","","","","","","./tasks/HMM-beads/Images/WhiteBeadChoiceWrong.png","","","","","","","","","",""
"image-keyboard-response","217","512672","0.0-3.0-6.0-1.0-0.27","5654171504212700054a12ad","6662009ae78f21dd82fcd179","66620bc3107cf8ff6cb193b4","188","","f","","","","","","","","./tasks/HMM-beads/Images/NewTrialBC.png","lowH","1","27","1","1","0","0","false","",""
"image-keyboard-response","218","512989","0.0-3.0-6.0-1.0-1.27","5654171504212700054a12ad","6662009ae78f21dd82fcd179","66620bc3107cf8ff6cb193b4","null","","null","","","","","","","","./tasks/HMM-beads/Images/BlackBeadChoice.png","","","","","","","","","",""
"image-keyboard-response","219","513507","0.0-3.0-6.0-1.0-2.27","5654171504212700054a12ad","6662009ae78f21dd82fcd179","66620bc3107cf8ff6cb193b4","null","","null","","","","","","","","./tasks/HMM-beads/Images/BlackBeadChoiceWrong.png","","","","","","","","","",""
"image-keyboard-response","220","513630","0.0-3.0-6.0-1.0-0.28","5654171504212700054a12ad","6662009ae78f21dd82fcd179","66620bc3107cf8ff6cb193b4","117","","j","","","","","","","","./tasks/HMM-beads/Images/NewTrialWC.png","lowH","1","28","1","1","1","1","true","",""
"image-keyboard-response","221","513944","0.0-3.0-6.0-1.0-1.28","5654171504212700054a12ad","6662009ae78f21dd82fcd179","66620bc3107cf8ff6cb193b4","null","","null","","","","","","","","./tasks/HMM-beads/Images/WhiteBeadChoice.png","","","","","","","","","",""
"image-keyboard-response","222","514459","0.0-3.0-6.0-1.0-2.28","5654171504212700054a12ad","6662009ae78f21dd82fcd179","66620bc3107cf8ff6cb193b4","null","","null","","","","","","","","./tasks/HMM-beads/Images/WhiteBeadChoiceCorrect.png","","","","","","","","","",""
"image-keyboard-response","223","515195","0.0-3.0-6.0-1.0-0.29","5654171504212700054a12ad","6662009ae78f21dd82fcd179","66620bc3107cf8ff6cb193b4","729","","j","","","","","","","","./tasks/HMM-beads/Images/NewTrialWC.png","lowH","1","29","1","1","1","1","true","",""
"image-keyboard-response","224","515508","0.0-3.0-6.0-1.0-1.29","5654171504212700054a12ad","6662009ae78f21dd82fcd179","66620bc3107cf8ff6cb193b4","null","","null","","","","","","","","./tasks/HMM-beads/Images/WhiteBeadChoice.png","","","","","","","","","",""
"image-keyboard-response","225","516019","0.0-3.0-6.0-1.0-2.29","5654171504212700054a12ad","6662009ae78f21dd82fcd179","66620bc3107cf8ff6cb193b4","null","","null","","","","","","","","./tasks/HMM-beads/Images/WhiteBeadChoiceCorrect.png","","","","","","","","","",""
"image-keyboard-response","226","516745","0.0-3.0-6.0-1.0-0.30","5654171504212700054a12ad","6662009ae78f21dd82fcd179","66620bc3107cf8ff6cb193b4","719","","j","","","","","","","","./tasks/HMM-beads/Images/NewTrialWC.png","lowH","1","30","1","1","1","1","true","",""
"image-keyboard-response","227","517062","0.0-3.0-6.0-1.0-1.30","5654171504212700054a12ad","6662009ae78f21dd82fcd179","66620bc3107cf8ff6cb193b4","null","","null","","","","","","","","./tasks/HMM-beads/Images/WhiteBeadChoice.png","","","","","","","","","",""
"image-keyboard-response","228","517577","0.0-3.0-6.0-1.0-2.30","5654171504212700054a12ad","6662009ae78f21dd82fcd179","66620bc3107cf8ff6cb193b4","null","","null","","","","","","","","./tasks/HMM-beads/Images/WhiteBeadChoiceCorrect.png","","","","","","","","","",""
"image-keyboard-response","229","517990","0.0-3.0-6.0-1.0-0.31","5654171504212700054a12ad","6662009ae78f21dd82fcd179","66620bc3107cf8ff6cb193b4","407","","j","","","","","","","","./tasks/HMM-beads/Images/NewTrialWC.png","lowH","1","31","1","1","1","1","true","",""
"image-keyboard-response","230","518308","0.0-3.0-6.0-1.0-1.31","5654171504212700054a12ad","6662009ae78f21dd82fcd179","66620bc3107cf8ff6cb193b4","null","","null","","","","","","","","./tasks/HMM-beads/Images/WhiteBeadChoice.png","","","","","","","","","",""
"image-keyboard-response","231","518819","0.0-3.0-6.0-1.0-2.31","5654171504212700054a12ad","6662009ae78f21dd82fcd179","66620bc3107cf8ff6cb193b4","null","","null","","","","","","","","./tasks/HMM-beads/Images/WhiteBeadChoiceCorrect.png","","","","","","","","","",""
"image-keyboard-response","232","519123","0.0-3.0-6.0-1.0-0.32","5654171504212700054a12ad","6662009ae78f21dd82fcd179","66620bc3107cf8ff6cb193b4","297","","j","","","","","","","","./tasks/HMM-beads/Images/NewTrialWC.png","lowH","1","32","1","1","1","1","true","",""
"image-keyboard-response","233","519432","0.0-3.0-6.0-1.0-1.32","5654171504212700054a12ad","6662009ae78f21dd82fcd179","66620bc3107cf8ff6cb193b4","null","","null","","","","","","","","./tasks/HMM-beads/Images/WhiteBeadChoice.png","","","","","","","","","",""
"image-keyboard-response","234","519945","0.0-3.0-6.0-1.0-2.32","5654171504212700054a12ad","6662009ae78f21dd82fcd179","66620bc3107cf8ff6cb193b4","null","","null","","","","","","","","./tasks/HMM-beads/Images/WhiteBeadChoiceCorrect.png","","","","","","","","","",""
"image-keyboard-response","235","520170","0.0-3.0-6.0-1.0-0.33","5654171504212700054a12ad","6662009ae78f21dd82fcd179","66620bc3107cf8ff6cb193b4","219","","j","","","","","","","","./tasks/HMM-beads/Images/NewTrialWC.png","lowH","1","33","1","1","1","1","true","",""
"image-keyboard-response","236","520480","0.0-3.0-6.0-1.0-1.33","5654171504212700054a12ad","6662009ae78f21dd82fcd179","66620bc3107cf8ff6cb193b4","null","","null","","","","","","","","./tasks/HMM-beads/Images/WhiteBeadChoice.png","","","","","","","","","",""
"image-keyboard-response","237","520997","0.0-3.0-6.0-1.0-2.33","5654171504212700054a12ad","6662009ae78f21dd82fcd179","66620bc3107cf8ff6cb193b4","null","","null","","","","","","","","./tasks/HMM-beads/Images/WhiteBeadChoiceCorrect.png","","","","","","","","","",""
"image-keyboard-response","238","521173","0.0-3.0-6.0-1.0-0.34","5654171504212700054a12ad","6662009ae78f21dd82fcd179","66620bc3107cf8ff6cb193b4","170","","j","","","","","","","","./tasks/HMM-beads/Images/NewTrialWC.png","lowH","1","34","1","1","1","1","true","",""
"image-keyboard-response","239","521486","0.0-3.0-6.0-1.0-1.34","5654171504212700054a12ad","6662009ae78f21dd82fcd179","66620bc3107cf8ff6cb193b4","null","","null","","","","","","","","./tasks/HMM-beads/Images/WhiteBeadChoice.png","","","","","","","","","",""
"image-keyboard-response","240","522005","0.0-3.0-6.0-1.0-2.34","5654171504212700054a12ad","6662009ae78f21dd82fcd179","66620bc3107cf8ff6cb193b4","null","","null","","","","","","","","./tasks/HMM-beads/Images/WhiteBeadChoiceCorrect.png","","","","","","","","","",""
"image-keyboard-response","241","522223","0.0-3.0-6.0-1.0-0.35","5654171504212700054a12ad","6662009ae78f21dd82fcd179","66620bc3107cf8ff6cb193b4","212","","j","","","","","","","","./tasks/HMM-beads/Images/NewTrialWC.png","lowH","1","35","1","1","1","1","true","",""
"image-keyboard-response","242","522537","0.0-3.0-6.0-1.0-1.35","5654171504212700054a12ad","6662009ae78f21dd82fcd179","66620bc3107cf8ff6cb193b4","null","","null","","","","","","","","./tasks/HMM-beads/Images/WhiteBeadChoice.png","","","","","","","","","",""
"image-keyboard-response","243","523048","0.0-3.0-6.0-1.0-2.35","5654171504212700054a12ad","6662009ae78f21dd82fcd179","66620bc3107cf8ff6cb193b4","null","","null","","","","","","","","./tasks/HMM-beads/Images/WhiteBeadChoiceCorrect.png","","","","","","","","","",""
"image-keyboard-response","244","523258","0.0-3.0-6.0-1.0-0.36","5654171504212700054a12ad","6662009ae78f21dd82fcd179","66620bc3107cf8ff6cb193b4","204","","j","","","","","","","","./tasks/HMM-beads/Images/NewTrialWC.png","lowH","1","36","1","1","1","1","true","",""
"image-keyboard-response","245","523575","0.0-3.0-6.0-1.0-1.36","5654171504212700054a12ad","6662009ae78f21dd82fcd179","66620bc3107cf8ff6cb193b4","null","","null","","","","","","","","./tasks/HMM-beads/Images/WhiteBeadChoice.png","","","","","","","","","",""
"image-keyboard-response","246","524090","0.0-3.0-6.0-1.0-2.36","5654171504212700054a12ad","6662009ae78f21dd82fcd179","66620bc3107cf8ff6cb193b4","null","","null","","","","","","","","./tasks/HMM-beads/Images/WhiteBeadChoiceCorrect.png","","","","","","","","","",""
"image-keyboard-response","247","524242","0.0-3.0-6.0-1.0-0.37","5654171504212700054a12ad","6662009ae78f21dd82fcd179","66620bc3107cf8ff6cb193b4","145","","j","","","","","","","","./tasks/HMM-beads/Images/NewTrialWC.png","lowH","1","37","1","1","1","1","true","",""
"image-keyboard-response","248","524557","0.0-3.0-6.0-1.0-1.37","5654171504212700054a12ad","6662009ae78f21dd82fcd179","66620bc3107cf8ff6cb193b4","null","","null","","","","","","","","./tasks/HMM-beads/Images/WhiteBeadChoice.png","","","","","","","","","",""
"image-keyboard-response","249","525079","0.0-3.0-6.0-1.0-2.37","5654171504212700054a12ad","6662009ae78f21dd82fcd179","66620bc3107cf8ff6cb193b4","null","","null","","","","","","","","./tasks/HMM-beads/Images/WhiteBeadChoiceCorrect.png","","","","","","","","","",""
"image-keyboard-response","250","525215","0.0-3.0-6.0-1.0-0.38","5654171504212700054a12ad","6662009ae78f21dd82fcd179","66620bc3107cf8ff6cb193b4","129","","j","","","","","","","","./tasks/HMM-beads/Images/NewTrialWC.png","lowH","1","38","1","1","1","1","true","",""
"image-keyboard-response","251","525533","0.0-3.0-6.0-1.0-1.38","5654171504212700054a12ad","6662009ae78f21dd82fcd179","66620bc3107cf8ff6cb193b4","null","","null","","","","","","","","./tasks/HMM-beads/Images/WhiteBeadChoice.png","","","","","","","","","",""
"image-keyboard-response","252","526054","0.0-3.0-6.0-1.0-2.38","5654171504212700054a12ad","6662009ae78f21dd82fcd179","66620bc3107cf8ff6cb193b4","null","","null","","","","","","","","./tasks/HMM-beads/Images/WhiteBeadChoiceCorrect.png","","","","","","","","","",""
"image-keyboard-response","253","526146","0.0-3.0-6.0-1.0-0.39","5654171504212700054a12ad","6662009ae78f21dd82fcd179","66620bc3107cf8ff6cb193b4","86","","j","","","","","","","","./tasks/HMM-beads/Images/NewTrialWC.png","lowH","1","39","1","1","1","1","true","",""
"image-keyboard-response","254","526462","0.0-3.0-6.0-1.0-1.39","5654171504212700054a12ad","6662009ae78f21dd82fcd179","66620bc3107cf8ff6cb193b4","null","","null","","","","","","","","./tasks/HMM-beads/Images/WhiteBeadChoice.png","","","","","","","","","",""
"image-keyboard-response","255","526982","0.0-3.0-6.0-1.0-2.39","5654171504212700054a12ad","6662009ae78f21dd82fcd179","66620bc3107cf8ff6cb193b4","null","","null","","","","","","","","./tasks/HMM-beads/Images/WhiteBeadChoiceCorrect.png","","","","","","","","","",""
"image-keyboard-response","256","527073","0.0-3.0-6.0-1.0-0.40","5654171504212700054a12ad","6662009ae78f21dd82fcd179","66620bc3107cf8ff6cb193b4","84","","j","","","","","","","","./tasks/HMM-beads/Images/NewTrialWC.png","lowH","1","40","1","1","1","1","true","",""
"image-keyboard-response","257","527387","0.0-3.0-6.0-1.0-1.40","5654171504212700054a12ad","6662009ae78f21dd82fcd179","66620bc3107cf8ff6cb193b4","null","","null","","","","","","","","./tasks/HMM-beads/Images/WhiteBeadChoice.png","","","","","","","","","",""
"image-keyboard-response","258","527900","0.0-3.0-6.0-1.0-2.40","5654171504212700054a12ad","6662009ae78f21dd82fcd179","66620bc3107cf8ff6cb193b4","null","","null","","","","","","","","./tasks/HMM-beads/Images/WhiteBeadChoiceCorrect.png","","","","","","","","","",""
"image-keyboard-response","259","527965","0.0-3.0-6.0-1.0-0.41","5654171504212700054a12ad","6662009ae78f21dd82fcd179","66620bc3107cf8ff6cb193b4","58","","j","","","","","","","","./tasks/HMM-beads/Images/NewTrialWC.png","lowH","1","41","1","1","1","1","true","",""
"image-keyboard-response","260","528278","0.0-3.0-6.0-1.0-1.41","5654171504212700054a12ad","6662009ae78f21dd82fcd179","66620bc3107cf8ff6cb193b4","null","","null","","","","","","","","./tasks/HMM-beads/Images/WhiteBeadChoice.png","","","","","","","","","",""
"image-keyboard-response","261","528794","0.0-3.0-6.0-1.0-2.41","5654171504212700054a12ad","6662009ae78f21dd82fcd179","66620bc3107cf8ff6cb193b4","null","","null","","","","","","","","./tasks/HMM-beads/Images/WhiteBeadChoiceCorrect.png","","","","","","","","","",""
"image-keyboard-response","262","528889","0.0-3.0-6.0-1.0-0.42","5654171504212700054a12ad","6662009ae78f21dd82fcd179","66620bc3107cf8ff6cb193b4","88","","j","","","","","","","","./tasks/HMM-beads/Images/NewTrialWC.png","lowH","1","42","1","1","1","1","true","",""
"image-keyboard-response","263","529207","0.0-3.0-6.0-1.0-1.42","5654171504212700054a12ad","6662009ae78f21dd82fcd179","66620bc3107cf8ff6cb193b4","null","","null","","","","","","","","./tasks/HMM-beads/Images/WhiteBeadChoice.png","","","","","","","","","",""
"image-keyboard-response","264","529721","0.0-3.0-6.0-1.0-2.42","5654171504212700054a12ad","6662009ae78f21dd82fcd179","66620bc3107cf8ff6cb193b4","null","","null","","","","","","","","./tasks/HMM-beads/Images/WhiteBeadChoiceCorrect.png","","","","","","","","","",""
"image-keyboard-response","265","529807","0.0-3.0-6.0-1.0-0.43","5654171504212700054a12ad","6662009ae78f21dd82fcd179","66620bc3107cf8ff6cb193b4","80","","j","","","","","","","","./tasks/HMM-beads/Images/NewTrialWC.png","lowH","1","43","1","1","1","1","true","",""
"image-keyboard-response","266","530119","0.0-3.0-6.0-1.0-1.43","5654171504212700054a12ad","6662009ae78f21dd82fcd179","66620bc3107cf8ff6cb193b4","null","","null","","","","","","","","./tasks/HMM-beads/Images/WhiteBeadChoice.png","","","","","","","","","",""
"image-keyboard-response","267","530633","0.0-3.0-6.0-1.0-2.43","5654171504212700054a12ad","6662009ae78f21dd82fcd179","66620bc3107cf8ff6cb193b4","null","","null","","","","","","","","./tasks/HMM-beads/Images/WhiteBeadChoiceCorrect.png","","","","","","","","","",""
"image-keyboard-response","268","530703","0.0-3.0-6.0-1.0-0.44","5654171504212700054a12ad","6662009ae78f21dd82fcd179","66620bc3107cf8ff6cb193b4","63","","j","","","","","","","","./tasks/HMM-beads/Images/NewTrialWC.png","lowH","1","44","1","1","1","1","true","",""
"image-keyboard-response","269","531010","0.0-3.0-6.0-1.0-1.44","5654171504212700054a12ad","6662009ae78f21dd82fcd179","66620bc3107cf8ff6cb193b4","null","","null","","","","","","","","./tasks/HMM-beads/Images/WhiteBeadChoice.png","","","","","","","","","",""
"image-keyboard-response","270","531521","0.0-3.0-6.0-1.0-2.44","5654171504212700054a12ad","6662009ae78f21dd82fcd179","66620bc3107cf8ff6cb193b4","null","","null","","","","","","","","./tasks/HMM-beads/Images/WhiteBeadChoiceCorrect.png","","","","","","","","","",""
"image-keyboard-response","271","531612","0.0-3.0-6.0-1.0-0.45","5654171504212700054a12ad","6662009ae78f21dd82fcd179","66620bc3107cf8ff6cb193b4","84","","j","","","","","","","","./tasks/HMM-beads/Images/NewTrialWC.png","lowH","1","45","1","1","1","1","true","",""
"image-keyboard-response","272","531924","0.0-3.0-6.0-1.0-1.45","5654171504212700054a12ad","6662009ae78f21dd82fcd179","66620bc3107cf8ff6cb193b4","null","","null","","","","","","","","./tasks/HMM-beads/Images/WhiteBeadChoice.png","","","","","","","","","",""
"image-keyboard-response","273","532445","0.0-3.0-6.0-1.0-2.45","5654171504212700054a12ad","6662009ae78f21dd82fcd179","66620bc3107cf8ff6cb193b4","null","","null","","","","","","","","./tasks/HMM-beads/Images/WhiteBeadChoiceCorrect.png","","","","","","","","","",""
"image-keyboard-response","274","532517","0.0-3.0-6.0-1.0-0.46","5654171504212700054a12ad","6662009ae78f21dd82fcd179","66620bc3107cf8ff6cb193b4","66","","j","","","","","","","","./tasks/HMM-beads/Images/NewTrialWC.png","lowH","1","46","1","1","1","1","true","",""
"image-keyboard-response","275","532828","0.0-3.0-6.0-1.0-1.46","5654171504212700054a12ad","6662009ae78f21dd82fcd179","66620bc3107cf8ff6cb193b4","null","","null","","","","","","","","./tasks/HMM-beads/Images/WhiteBeadChoice.png","","","","","","","","","",""
"image-keyboard-response","276","533338","0.0-3.0-6.0-1.0-2.46","5654171504212700054a12ad","6662009ae78f21dd82fcd179","66620bc3107cf8ff6cb193b4","null","","null","","","","","","","","./tasks/HMM-beads/Images/WhiteBeadChoiceCorrect.png","","","","","","","","","",""
"image-keyboard-response","277","533410","0.0-3.0-6.0-1.0-0.47","5654171504212700054a12ad","6662009ae78f21dd82fcd179","66620bc3107cf8ff6cb193b4","66","","j","","","","","","","","./tasks/HMM-beads/Images/NewTrialWC.png","lowH","1","47","1","0","1","1","false","",""
"image-keyboard-response","278","533721","0.0-3.0-6.0-1.0-1.47","5654171504212700054a12ad","6662009ae78f21dd82fcd179","66620bc3107cf8ff6cb193b4","null","","null","","","","","","","","./tasks/HMM-beads/Images/WhiteBeadChoice.png","","","","","","","","","",""
"image-keyboard-response","279","534234","0.0-3.0-6.0-1.0-2.47","5654171504212700054a12ad","6662009ae78f21dd82fcd179","66620bc3107cf8ff6cb193b4","null","","null","","","","","","","","./tasks/HMM-beads/Images/WhiteBeadChoiceWrong.png","","","","","","","","","",""
"image-keyboard-response","280","534544","0.0-3.0-6.0-1.0-0.48","5654171504212700054a12ad","6662009ae78f21dd82fcd179","66620bc3107cf8ff6cb193b4","304","","f","","","","","","","","./tasks/HMM-beads/Images/NewTrialBC.png","lowH","1","48","1","0","0","0","true","",""
"image-keyboard-response","281","534856","0.0-3.0-6.0-1.0-1.48","5654171504212700054a12ad","6662009ae78f21dd82fcd179","66620bc3107cf8ff6cb193b4","null","","null","","","","","","","","./tasks/HMM-beads/Images/BlackBeadChoice.png","","","","","","","","","",""
"image-keyboard-response","282","535374","0.0-3.0-6.0-1.0-2.48","5654171504212700054a12ad","6662009ae78f21dd82fcd179","66620bc3107cf8ff6cb193b4","null","","null","","","","","","","","./tasks/HMM-beads/Images/BlackBeadChoiceCorrect.png","","","","","","","","","",""
"image-keyboard-response","283","535401","0.0-3.0-6.0-1.0-0.49","5654171504212700054a12ad","6662009ae78f21dd82fcd179","66620bc3107cf8ff6cb193b4","20","","f","","","","","","","","./tasks/HMM-beads/Images/NewTrialBC.png","lowH","1","49","1","0","0","0","true","",""
"image-keyboard-response","284","535718","0.0-3.0-6.0-1.0-1.49","5654171504212700054a12ad","6662009ae78f21dd82fcd179","66620bc3107cf8ff6cb193b4","null","","null","","","","","","","","./tasks/HMM-beads/Images/BlackBeadChoice.png","","","","","","","","","",""
"image-keyboard-response","285","536232","0.0-3.0-6.0-1.0-2.49","5654171504212700054a12ad","6662009ae78f21dd82fcd179","66620bc3107cf8ff6cb193b4","null","","null","","","","","","","","./tasks/HMM-beads/Images/BlackBeadChoiceCorrect.png","","","","","","","","","",""
"image-keyboard-response","286","536660","0.0-3.0-6.0-1.0-0.50","5654171504212700054a12ad","6662009ae78f21dd82fcd179","66620bc3107cf8ff6cb193b4","420","","f","","","","","","","","./tasks/HMM-beads/Images/NewTrialBC.png","lowH","1","50","1","1","0","0","false","",""
"image-keyboard-response","287","536983","0.0-3.0-6.0-1.0-1.50","5654171504212700054a12ad","6662009ae78f21dd82fcd179","66620bc3107cf8ff6cb193b4","null","","null","","","","","","","","./tasks/HMM-beads/Images/BlackBeadChoice.png","","","","","","","","","",""
"image-keyboard-response","288","537503","0.0-3.0-6.0-1.0-2.50","5654171504212700054a12ad","6662009ae78f21dd82fcd179","66620bc3107cf8ff6cb193b4","null","","null","","","","","","","","./tasks/HMM-beads/Images/BlackBeadChoiceWrong.png","","","","","","","","","",""
"image-keyboard-response","289","537525","0.0-3.0-6.0-1.0-0.51","5654171504212700054a12ad","6662009ae78f21dd82fcd179","66620bc3107cf8ff6cb193b4","15","","j","","","","","","","","./tasks/HMM-beads/Images/NewTrialWC.png","lowH","1","51","1","1","1","1","true","",""
"image-keyboard-response","290","537838","0.0-3.0-6.0-1.0-1.51","5654171504212700054a12ad","6662009ae78f21dd82fcd179","66620bc3107cf8ff6cb193b4","null","","null","","","","","","","","./tasks/HMM-beads/Images/WhiteBeadChoice.png","","","","","","","","","",""
"image-keyboard-response","291","538357","0.0-3.0-6.0-1.0-2.51","5654171504212700054a12ad","6662009ae78f21dd82fcd179","66620bc3107cf8ff6cb193b4","null","","null","","","","","","","","./tasks/HMM-beads/Images/WhiteBeadChoiceCorrect.png","","","","","","","","","",""
"image-keyboard-response","292","538851","0.0-3.0-6.0-1.0-0.52","5654171504212700054a12ad","6662009ae78f21dd82fcd179","66620bc3107cf8ff6cb193b4","488","","j","","","","","","","","./tasks/HMM-beads/Images/NewTrialWC.png","lowH","1","52","1","1","1","1","true","",""
"image-keyboard-response","293","539164","0.0-3.0-6.0-1.0-1.52","5654171504212700054a12ad","6662009ae78f21dd82fcd179","66620bc3107cf8ff6cb193b4","null","","null","","","","","","","","./tasks/HMM-beads/Images/WhiteBeadChoice.png","","","","","","","","","",""
"image-keyboard-response","294","539678","0.0-3.0-6.0-1.0-2.52","5654171504212700054a12ad","6662009ae78f21dd82fcd179","66620bc3107cf8ff6cb193b4","null","","null","","","","","","","","./tasks/HMM-beads/Images/WhiteBeadChoiceCorrect.png","","","","","","","","","",""
"image-keyboard-response","295","540226","0.0-3.0-6.0-1.0-0.53","5654171504212700054a12ad","6662009ae78f21dd82fcd179","66620bc3107cf8ff6cb193b4","541","","j","","","","","","","","./tasks/HMM-beads/Images/NewTrialWC.png","lowH","1","53","1","1","1","1","true","",""
"image-keyboard-response","296","540535","0.0-3.0-6.0-1.0-1.53","5654171504212700054a12ad","6662009ae78f21dd82fcd179","66620bc3107cf8ff6cb193b4","null","","null","","","","","","","","./tasks/HMM-beads/Images/WhiteBeadChoice.png","","","","","","","","","",""
"image-keyboard-response","297","541054","0.0-3.0-6.0-1.0-2.53","5654171504212700054a12ad","6662009ae78f21dd82fcd179","66620bc3107cf8ff6cb193b4","null","","null","","","","","","","","./tasks/HMM-beads/Images/WhiteBeadChoiceCorrect.png","","","","","","","","","",""
"image-keyboard-response","298","541325","0.0-3.0-6.0-1.0-0.54","5654171504212700054a12ad","6662009ae78f21dd82fcd179","66620bc3107cf8ff6cb193b4","265","","j","","","","","","","","./tasks/HMM-beads/Images/NewTrialWC.png","lowH","1","54","1","1","1","1","true","",""
"image-keyboard-response","299","541633","0.0-3.0-6.0-1.0-1.54","5654171504212700054a12ad","6662009ae78f21dd82fcd179","66620bc3107cf8ff6cb193b4","null","","null","","","","","","","","./tasks/HMM-beads/Images/WhiteBeadChoice.png","","","","","","","","","",""
"image-keyboard-response","300","542150","0.0-3.0-6.0-1.0-2.54","5654171504212700054a12ad","6662009ae78f21dd82fcd179","66620bc3107cf8ff6cb193b4","null","","null","","","","","","","","./tasks/HMM-beads/Images/WhiteBeadChoiceCorrect.png","","","","","","","","","",""
"image-keyboard-response","301","542447","0.0-3.0-6.0-1.0-0.55","5654171504212700054a12ad","6662009ae78f21dd82fcd179","66620bc3107cf8ff6cb193b4","290","","j","","","","","","","","./tasks/HMM-beads/Images/NewTrialWC.png","lowH","1","55","1","1","1","1","true","",""
"image-keyboard-response","302","542760","0.0-3.0-6.0-1.0-1.55","5654171504212700054a12ad","6662009ae78f21dd82fcd179","66620bc3107cf8ff6cb193b4","null","","null","","","","","","","","./tasks/HMM-beads/Images/WhiteBeadChoice.png","","","","","","","","","",""
"image-keyboard-response","303","543278","0.0-3.0-6.0-1.0-2.55","5654171504212700054a12ad","6662009ae78f21dd82fcd179","66620bc3107cf8ff6cb193b4","null","","null","","","","","","","","./tasks/HMM-beads/Images/WhiteBeadChoiceCorrect.png","","","","","","","","","",""
"image-keyboard-response","304","543490","0.0-3.0-6.0-1.0-0.56","5654171504212700054a12ad","6662009ae78f21dd82fcd179","66620bc3107cf8ff6cb193b4","206","","j","","","","","","","","./tasks/HMM-beads/Images/NewTrialWC.png","lowH","1","56","1","1","1","1","true","",""
"image-keyboard-response","305","543804","0.0-3.0-6.0-1.0-1.56","5654171504212700054a12ad","6662009ae78f21dd82fcd179","66620bc3107cf8ff6cb193b4","null","","null","","","","","","","","./tasks/HMM-beads/Images/WhiteBeadChoice.png","","","","","","","","","",""
"image-keyboard-response","306","544316","0.0-3.0-6.0-1.0-2.56","5654171504212700054a12ad","6662009ae78f21dd82fcd179","66620bc3107cf8ff6cb193b4","null","","null","","","","","","","","./tasks/HMM-beads/Images/WhiteBeadChoiceCorrect.png","","","","","","","","","",""
"image-keyboard-response","307","544640","0.0-3.0-6.0-1.0-0.57","5654171504212700054a12ad","6662009ae78f21dd82fcd179","66620bc3107cf8ff6cb193b4","317","","j","","","","","","","","./tasks/HMM-beads/Images/NewTrialWC.png","lowH","1","57","1","1","1","1","true","",""
"image-keyboard-response","308","544958","0.0-3.0-6.0-1.0-1.57","5654171504212700054a12ad","6662009ae78f21dd82fcd179","66620bc3107cf8ff6cb193b4","null","","null","","","","","","","","./tasks/HMM-beads/Images/WhiteBeadChoice.png","","","","","","","","","",""
"image-keyboard-response","309","545471","0.0-3.0-6.0-1.0-2.57","5654171504212700054a12ad","6662009ae78f21dd82fcd179","66620bc3107cf8ff6cb193b4","null","","null","","","","","","","","./tasks/HMM-beads/Images/WhiteBeadChoiceCorrect.png","","","","","","","","","",""
"image-keyboard-response","310","545828","0.0-3.0-6.0-1.0-0.58","5654171504212700054a12ad","6662009ae78f21dd82fcd179","66620bc3107cf8ff6cb193b4","350","","j","","","","","","","","./tasks/HMM-beads/Images/NewTrialWC.png","lowH","1","58","1","1","1","1","true","",""
"image-keyboard-response","311","546141","0.0-3.0-6.0-1.0-1.58","5654171504212700054a12ad","6662009ae78f21dd82fcd179","66620bc3107cf8ff6cb193b4","null","","null","","","","","","","","./tasks/HMM-beads/Images/WhiteBeadChoice.png","","","","","","","","","",""
"image-keyboard-response","312","546660","0.0-3.0-6.0-1.0-2.58","5654171504212700054a12ad","6662009ae78f21dd82fcd179","66620bc3107cf8ff6cb193b4","null","","null","","","","","","","","./tasks/HMM-beads/Images/WhiteBeadChoiceCorrect.png","","","","","","","","","",""
"image-keyboard-response","313","546973","0.0-3.0-6.0-1.0-0.59","5654171504212700054a12ad","6662009ae78f21dd82fcd179","66620bc3107cf8ff6cb193b4","306","","j","","","","","","","","./tasks/HMM-beads/Images/NewTrialWC.png","lowH","1","59","1","0","1","1","false","",""
"image-keyboard-response","314","547304","0.0-3.0-6.0-1.0-1.59","5654171504212700054a12ad","6662009ae78f21dd82fcd179","66620bc3107cf8ff6cb193b4","null","","null","","","","","","","","./tasks/HMM-beads/Images/WhiteBeadChoice.png","","","","","","","","","",""
"image-keyboard-response","315","547820","0.0-3.0-6.0-1.0-2.59","5654171504212700054a12ad","6662009ae78f21dd82fcd179","66620bc3107cf8ff6cb193b4","null","","null","","","","","","","","./tasks/HMM-beads/Images/WhiteBeadChoiceWrong.png","","","","","","","","","",""
"image-keyboard-response","316","547939","0.0-3.0-6.0-1.0-0.60","5654171504212700054a12ad","6662009ae78f21dd82fcd179","66620bc3107cf8ff6cb193b4","112","","f","","","","","","","","./tasks/HMM-beads/Images/NewTrialBC.png","lowH","1","60","1","1","0","0","false","",""
"image-keyboard-response","317","548249","0.0-3.0-6.0-1.0-1.60","5654171504212700054a12ad","6662009ae78f21dd82fcd179","66620bc3107cf8ff6cb193b4","null","","null","","","","","","","","./tasks/HMM-beads/Images/BlackBeadChoice.png","","","","","","","","","",""
"image-keyboard-response","318","548764","0.0-3.0-6.0-1.0-2.60","5654171504212700054a12ad","6662009ae78f21dd82fcd179","66620bc3107cf8ff6cb193b4","null","","null","","","","","","","","./tasks/HMM-beads/Images/BlackBeadChoiceWrong.png","","","","","","","","","",""
"image-keyboard-response","319","549110","0.0-3.0-6.0-1.0-0.61","5654171504212700054a12ad","6662009ae78f21dd82fcd179","66620bc3107cf8ff6cb193b4","340","","j","","","","","","","","./tasks/HMM-beads/Images/NewTrialWC.png","lowH","1","61","1","1","1","1","true","",""
"image-keyboard-response","320","549427","0.0-3.0-6.0-1.0-1.61","5654171504212700054a12ad","6662009ae78f21dd82fcd179","66620bc3107cf8ff6cb193b4","null","","null","","","","","","","","./tasks/HMM-beads/Images/WhiteBeadChoice.png","","","","","","","","","",""
"image-keyboard-response","321","549937","0.0-3.0-6.0-1.0-2.61","5654171504212700054a12ad","6662009ae78f21dd82fcd179","66620bc3107cf8ff6cb193b4","null","","null","","","","","","","","./tasks/HMM-beads/Images/WhiteBeadChoiceCorrect.png","","","","","","","","","",""
"image-keyboard-response","322","550083","0.0-3.0-6.0-1.0-0.62","5654171504212700054a12ad","6662009ae78f21dd82fcd179","66620bc3107cf8ff6cb193b4","140","","j","","","","","","","","./tasks/HMM-beads/Images/NewTrialWC.png","lowH","1","62","1","0","1","1","false","",""
"image-keyboard-response","323","550398","0.0-3.0-6.0-1.0-1.62","5654171504212700054a12ad","6662009ae78f21dd82fcd179","66620bc3107cf8ff6cb193b4","null","","null","","","","","","","","./tasks/HMM-beads/Images/WhiteBeadChoice.png","","","","","","","","","",""
"image-keyboard-response","324","550918","0.0-3.0-6.0-1.0-2.62","5654171504212700054a12ad","6662009ae78f21dd82fcd179","66620bc3107cf8ff6cb193b4","null","","null","","","","","","","","./tasks/HMM-beads/Images/WhiteBeadChoiceWrong.png","","","","","","","","","",""
"image-keyboard-response","325","551074","0.0-3.0-6.0-1.0-0.63","5654171504212700054a12ad","6662009ae78f21dd82fcd179","66620bc3107cf8ff6cb193b4","150","","f","","","","","","","","./tasks/HMM-beads/Images/NewTrialBC.png","lowH","1","63","1","1","0","0","false","",""
"image-keyboard-response","326","551386","0.0-3.0-6.0-1.0-1.63","5654171504212700054a12ad","6662009ae78f21dd82fcd179","66620bc3107cf8ff6cb193b4","null","","null","","","","","","","","./tasks/HMM-beads/Images/BlackBeadChoice.png","","","","","","","","","",""
"image-keyboard-response","327","551896","0.0-3.0-6.0-1.0-2.63","5654171504212700054a12ad","6662009ae78f21dd82fcd179","66620bc3107cf8ff6cb193b4","null","","null","","","","","","","","./tasks/HMM-beads/Images/BlackBeadChoiceWrong.png","","","","","","","","","",""
"image-keyboard-response","328","552195","0.0-3.0-6.0-1.0-0.64","5654171504212700054a12ad","6662009ae78f21dd82fcd179","66620bc3107cf8ff6cb193b4","292","","j","","","","","","","","./tasks/HMM-beads/Images/NewTrialWC.png","lowH","1","64","1","1","1","1","true","",""
"image-keyboard-response","329","552510","0.0-3.0-6.0-1.0-1.64","5654171504212700054a12ad","6662009ae78f21dd82fcd179","66620bc3107cf8ff6cb193b4","null","","null","","","","","","","","./tasks/HMM-beads/Images/WhiteBeadChoice.png","","","","","","","","","",""
"image-keyboard-response","330","553030","0.0-3.0-6.0-1.0-2.64","5654171504212700054a12ad","6662009ae78f21dd82fcd179","66620bc3107cf8ff6cb193b4","null","","null","","","","","","","","./tasks/HMM-beads/Images/WhiteBeadChoiceCorrect.png","","","","","","","","","",""
"image-keyboard-response","331","553210","0.0-3.0-6.0-1.0-0.65","5654171504212700054a12ad","6662009ae78f21dd82fcd179","66620bc3107cf8ff6cb193b4","173","","j","","","","","","","","./tasks/HMM-beads/Images/NewTrialWC.png","lowH","1","65","1","1","1","1","true","",""
"image-keyboard-response","332","553519","0.0-3.0-6.0-1.0-1.65","5654171504212700054a12ad","6662009ae78f21dd82fcd179","66620bc3107cf8ff6cb193b4","null","","null","","","","","","","","./tasks/HMM-beads/Images/WhiteBeadChoice.png","","","","","","","","","",""
"image-keyboard-response","333","554038","0.0-3.0-6.0-1.0-2.65","5654171504212700054a12ad","6662009ae78f21dd82fcd179","66620bc3107cf8ff6cb193b4","null","","null","","","","","","","","./tasks/HMM-beads/Images/WhiteBeadChoiceCorrect.png","","","","","","","","","",""
"image-keyboard-response","334","554202","0.0-3.0-6.0-1.0-0.66","5654171504212700054a12ad","6662009ae78f21dd82fcd179","66620bc3107cf8ff6cb193b4","157","","j","","","","","","","","./tasks/HMM-beads/Images/NewTrialWC.png","lowH","1","66","1","1","1","1","true","",""
"image-keyboard-response","335","554518","0.0-3.0-6.0-1.0-1.66","5654171504212700054a12ad","6662009ae78f21dd82fcd179","66620bc3107cf8ff6cb193b4","null","","null","","","","","","","","./tasks/HMM-beads/Images/WhiteBeadChoice.png","","","","","","","","","",""
"image-keyboard-response","336","555032","0.0-3.0-6.0-1.0-2.66","5654171504212700054a12ad","6662009ae78f21dd82fcd179","66620bc3107cf8ff6cb193b4","null","","null","","","","","","","","./tasks/HMM-beads/Images/WhiteBeadChoiceCorrect.png","","","","","","","","","",""
"image-keyboard-response","337","555407","0.0-3.0-6.0-1.0-0.67","5654171504212700054a12ad","6662009ae78f21dd82fcd179","66620bc3107cf8ff6cb193b4","349","","j","","","","","","","","./tasks/HMM-beads/Images/NewTrialWC.png","lowH","1","67","1","0","1","1","false","",""
"image-keyboard-response","338","555733","0.0-3.0-6.0-1.0-1.67","5654171504212700054a12ad","6662009ae78f21dd82fcd179","66620bc3107cf8ff6cb193b4","null","","null","","","","","","","","./tasks/HMM-beads/Images/WhiteBeadChoice.png","","","","","","","","","",""
"image-keyboard-response","339","556252","0.0-3.0-6.0-1.0-2.67","5654171504212700054a12ad","6662009ae78f21dd82fcd179","66620bc3107cf8ff6cb193b4","null","","null","","","","","","","","./tasks/HMM-beads/Images/WhiteBeadChoiceWrong.png","","","","","","","","","",""
"image-keyboard-response","340","556296","0.0-3.0-6.0-1.0-0.68","5654171504212700054a12ad","6662009ae78f21dd82fcd179","66620bc3107cf8ff6cb193b4","38","","f","","","","","","","","./tasks/HMM-beads/Images/NewTrialBC.png","lowH","1","68","1","1","0","0","false","",""
"image-keyboard-response","341","556613","0.0-3.0-6.0-1.0-1.68","5654171504212700054a12ad","6662009ae78f21dd82fcd179","66620bc3107cf8ff6cb193b4","null","","null","","","","","","","","./tasks/HMM-beads/Images/BlackBeadChoice.png","","","","","","","","","",""
"image-keyboard-response","342","557134","0.0-3.0-6.0-1.0-2.68","5654171504212700054a12ad","6662009ae78f21dd82fcd179","66620bc3107cf8ff6cb193b4","null","","null","","","","","","","","./tasks/HMM-beads/Images/BlackBeadChoiceWrong.png","","","","","","","","","",""
"image-keyboard-response","343","557230","0.0-3.0-6.0-1.0-0.69","5654171504212700054a12ad","6662009ae78f21dd82fcd179","66620bc3107cf8ff6cb193b4","89","","j","","","","","","","","./tasks/HMM-beads/Images/NewTrialWC.png","lowH","1","69","0","1","1","1","true","",""
"image-keyboard-response","344","557547","0.0-3.0-6.0-1.0-1.69","5654171504212700054a12ad","6662009ae78f21dd82fcd179","66620bc3107cf8ff6cb193b4","null","","null","","","","","","","","./tasks/HMM-beads/Images/WhiteBeadChoice.png","","","","","","","","","",""
"image-keyboard-response","345","558055","0.0-3.0-6.0-1.0-2.69","5654171504212700054a12ad","6662009ae78f21dd82fcd179","66620bc3107cf8ff6cb193b4","null","","null","","","","","","","","./tasks/HMM-beads/Images/WhiteBeadChoiceCorrect.png","","","","","","","","","",""
"image-keyboard-response","346","558243","0.0-3.0-6.0-1.0-0.70","5654171504212700054a12ad","6662009ae78f21dd82fcd179","66620bc3107cf8ff6cb193b4","182","","j","","","","","","","","./tasks/HMM-beads/Images/NewTrialWC.png","lowH","1","70","0","1","1","1","true","",""
"image-keyboard-response","347","558558","0.0-3.0-6.0-1.0-1.70","5654171504212700054a12ad","6662009ae78f21dd82fcd179","66620bc3107cf8ff6cb193b4","null","","null","","","","","","","","./tasks/HMM-beads/Images/WhiteBeadChoice.png","","","","","","","","","",""
"image-keyboard-response","348","559073","0.0-3.0-6.0-1.0-2.70","5654171504212700054a12ad","6662009ae78f21dd82fcd179","66620bc3107cf8ff6cb193b4","null","","null","","","","","","","","./tasks/HMM-beads/Images/WhiteBeadChoiceCorrect.png","","","","","","","","","",""
"image-keyboard-response","349","559207","0.0-3.0-6.0-1.0-0.71","5654171504212700054a12ad","6662009ae78f21dd82fcd179","66620bc3107cf8ff6cb193b4","116","","j","","","","","","","","./tasks/HMM-beads/Images/NewTrialWC.png","lowH","1","71","0","0","1","1","false","",""
"image-keyboard-response","350","559526","0.0-3.0-6.0-1.0-1.71","5654171504212700054a12ad","6662009ae78f21dd82fcd179","66620bc3107cf8ff6cb193b4","null","","null","","","","","","","","./tasks/HMM-beads/Images/WhiteBeadChoice.png","","","","","","","","","",""
"image-keyboard-response","351","560040","0.0-3.0-6.0-1.0-2.71","5654171504212700054a12ad","6662009ae78f21dd82fcd179","66620bc3107cf8ff6cb193b4","null","","null","","","","","","","","./tasks/HMM-beads/Images/WhiteBeadChoiceWrong.png","","","","","","","","","",""
"image-keyboard-response","352","560139","0.0-3.0-6.0-1.0-0.72","5654171504212700054a12ad","6662009ae78f21dd82fcd179","66620bc3107cf8ff6cb193b4","93","","f","","","","","","","","./tasks/HMM-beads/Images/NewTrialBC.png","lowH","1","72","0","0","0","0","true","",""
"image-keyboard-response","353","560454","0.0-3.0-6.0-1.0-1.72","5654171504212700054a12ad","6662009ae78f21dd82fcd179","66620bc3107cf8ff6cb193b4","null","","null","","","","","","","","./tasks/HMM-beads/Images/BlackBeadChoice.png","","","","","","","","","",""
"image-keyboard-response","354","560969","0.0-3.0-6.0-1.0-2.72","5654171504212700054a12ad","6662009ae78f21dd82fcd179","66620bc3107cf8ff6cb193b4","null","","null","","","","","","","","./tasks/HMM-beads/Images/BlackBeadChoiceCorrect.png","","","","","","","","","",""
"image-keyboard-response","355","561085","0.0-3.0-6.0-1.0-0.73","5654171504212700054a12ad","6662009ae78f21dd82fcd179","66620bc3107cf8ff6cb193b4","110","","f","","","","","","","","./tasks/HMM-beads/Images/NewTrialBC.png","lowH","1","73","0","1","0","0","false","",""
"image-keyboard-response","356","561395","0.0-3.0-6.0-1.0-1.73","5654171504212700054a12ad","6662009ae78f21dd82fcd179","66620bc3107cf8ff6cb193b4","null","","null","","","","","","","","./tasks/HMM-beads/Images/BlackBeadChoice.png","","","","","","","","","",""
"image-keyboard-response","357","561907","0.0-3.0-6.0-1.0-2.73","5654171504212700054a12ad","6662009ae78f21dd82fcd179","66620bc3107cf8ff6cb193b4","null","","null","","","","","","","","./tasks/HMM-beads/Images/BlackBeadChoiceWrong.png","","","","","","","","","",""
"image-keyboard-response","358","562013","0.0-3.0-6.0-1.0-0.74","5654171504212700054a12ad","6662009ae78f21dd82fcd179","66620bc3107cf8ff6cb193b4","100","","j","","","","","","","","./tasks/HMM-beads/Images/NewTrialWC.png","lowH","1","74","0","0","1","1","false","",""
"image-keyboard-response","359","562333","0.0-3.0-6.0-1.0-1.74","5654171504212700054a12ad","6662009ae78f21dd82fcd179","66620bc3107cf8ff6cb193b4","null","","null","","","","","","","","./tasks/HMM-beads/Images/WhiteBeadChoice.png","","","","","","","","","",""
"image-keyboard-response","360","562852","0.0-3.0-6.0-1.0-2.74","5654171504212700054a12ad","6662009ae78f21dd82fcd179","66620bc3107cf8ff6cb193b4","null","","null","","","","","","","","./tasks/HMM-beads/Images/WhiteBeadChoiceWrong.png","","","","","","","","","",""
"image-keyboard-response","361","562963","0.0-3.0-6.0-1.0-0.75","5654171504212700054a12ad","6662009ae78f21dd82fcd179","66620bc3107cf8ff6cb193b4","104","","f","","","","","","","","./tasks/HMM-beads/Images/NewTrialBC.png","lowH","1","75","0","1","0","0","false","",""
"image-keyboard-response","362","563284","0.0-3.0-6.0-1.0-1.75","5654171504212700054a12ad","6662009ae78f21dd82fcd179","66620bc3107cf8ff6cb193b4","null","","null","","","","","","","","./tasks/HMM-beads/Images/BlackBeadChoice.png","","","","","","","","","",""
"image-keyboard-response","363","563806","0.0-3.0-6.0-1.0-2.75","5654171504212700054a12ad","6662009ae78f21dd82fcd179","66620bc3107cf8ff6cb193b4","null","","null","","","","","","","","./tasks/HMM-beads/Images/BlackBeadChoiceWrong.png","","","","","","","","","",""
"image-keyboard-response","364","563934","0.0-3.0-6.0-1.0-0.76","5654171504212700054a12ad","6662009ae78f21dd82fcd179","66620bc3107cf8ff6cb193b4","121","","j","","","","","","","","./tasks/HMM-beads/Images/NewTrialWC.png","lowH","1","76","0","1","1","1","true","",""
"image-keyboard-response","365","564254","0.0-3.0-6.0-1.0-1.76","5654171504212700054a12ad","6662009ae78f21dd82fcd179","66620bc3107cf8ff6cb193b4","null","","null","","","","","","","","./tasks/HMM-beads/Images/WhiteBeadChoice.png","","","","","","","","","",""
"image-keyboard-response","366","564774","0.0-3.0-6.0-1.0-2.76","5654171504212700054a12ad","6662009ae78f21dd82fcd179","66620bc3107cf8ff6cb193b4","null","","null","","","","","","","","./tasks/HMM-beads/Images/WhiteBeadChoiceCorrect.png","","","","","","","","","",""
"image-keyboard-response","367","564878","0.0-3.0-6.0-1.0-0.77","5654171504212700054a12ad","6662009ae78f21dd82fcd179","66620bc3107cf8ff6cb193b4","97","","j","","","","","","","","./tasks/HMM-beads/Images/NewTrialWC.png","lowH","1","77","0","0","1","1","false","",""
"image-keyboard-response","368","565194","0.0-3.0-6.0-1.0-1.77","5654171504212700054a12ad","6662009ae78f21dd82fcd179","66620bc3107cf8ff6cb193b4","null","","null","","","","","","","","./tasks/HMM-beads/Images/WhiteBeadChoice.png","","","","","","","","","",""
"image-keyboard-response","369","565710","0.0-3.0-6.0-1.0-2.77","5654171504212700054a12ad","6662009ae78f21dd82fcd179","66620bc3107cf8ff6cb193b4","null","","null","","","","","","","","./tasks/HMM-beads/Images/WhiteBeadChoiceWrong.png","","","","","","","","","",""
"image-keyboard-response","370","565772","0.0-3.0-6.0-1.0-0.78","5654171504212700054a12ad","6662009ae78f21dd82fcd179","66620bc3107cf8ff6cb193b4","55","","f","","","","","","","","./tasks/HMM-beads/Images/NewTrialBC.png","lowH","1","78","0","0","0","0","true","",""
"image-keyboard-response","371","566086","0.0-3.0-6.0-1.0-1.78","5654171504212700054a12ad","6662009ae78f21dd82fcd179","66620bc3107cf8ff6cb193b4","null","","null","","","","","","","","./tasks/HMM-beads/Images/BlackBeadChoice.png","","","","","","","","","",""
"image-keyboard-response","372","566605","0.0-3.0-6.0-1.0-2.78","5654171504212700054a12ad","6662009ae78f21dd82fcd179","66620bc3107cf8ff6cb193b4","null","","null","","","","","","","","./tasks/HMM-beads/Images/BlackBeadChoiceCorrect.png","","","","","","","","","",""
"image-keyboard-response","373","566786","0.0-3.0-6.0-1.0-0.79","5654171504212700054a12ad","6662009ae78f21dd82fcd179","66620bc3107cf8ff6cb193b4","174","","f","","","","","","","","./tasks/HMM-beads/Images/NewTrialBC.png","lowH","1","79","0","0","0","0","true","",""
"image-keyboard-response","374","567101","0.0-3.0-6.0-1.0-1.79","5654171504212700054a12ad","6662009ae78f21dd82fcd179","66620bc3107cf8ff6cb193b4","null","","null","","","","","","","","./tasks/HMM-beads/Images/BlackBeadChoice.png","","","","","","","","","",""
