"trial_type","trial_index","time_elapsed","internal_node_id","subject_id","study_id","session_id","rt","url","response","question_order","view_history","success","timeout","failed_images","failed_audio","failed_video","stimulus","block","block_rep","trial_number","jar","bead","previous_bead","choice","correct","lowH_score","total_bonus"
"pavlovia","0","3162","0.0-0.0","5d2e4267565e1200017efb42","6662009ae78f21dd82fcd179","66620939a4351551705574b9","","","","","","","","","","","","","","","","","","","","",""
"external-html","1","106825","0.0-1.0-0.0","5d2e4267565e1200017efb42","6662009ae78f21dd82fcd179","66620939a4351551705574b9","103524","new_consent.html","","","","","","","","","","","","","","","","","","",""
"survey-multi-choice","2","111273","0.0-1.0-1.0","5d2e4267565e1200017efb42","6662009ae78f21dd82fcd179","66620939a4351551705574b9","4445","","{""Q0"":""Female"",""Q1"":""White""}","[0,1]","","","","","","","","","","","","","","","","",""
"survey-text","3","114048","0.0-1.0-2.0","5d2e4267565e1200017efb42","6662009ae78f21dd82fcd179","66620939a4351551705574b9","2770","","{""Q0"":""40""}","","","","","","","","","","","","","","","","","",""
"instructions","4","115584","0.0-2.0","5d2e4267565e1200017efb42","6662009ae78f21dd82fcd179","66620939a4351551705574b9","1419","","","","[{""page_index"":0,""viewing_time"":1419}]","","","","","","","","","","","","","","","",""
"preload","5","119402","0.0-3.0-0.0","5d2e4267565e1200017efb42","6662009ae78f21dd82fcd179","66620939a4351551705574b9","","","","","","true","false","[]","[]","[]","","","","","","","","","","",""
"instructions","6","308632","0.0-3.0-1.0","5d2e4267565e1200017efb42","6662009ae78f21dd82fcd179","66620939a4351551705574b9","189229","","","","[{""page_index"":0,""viewing_time"":121317},{""page_index"":1,""viewing_time"":5160},{""page_index"":2,""viewing_time"":3016},{""page_index"":3,""viewing_time"":2176},{""page_index"":4,""viewing_time"":12872},{""page_index"":5,""viewing_time"":16656},{""page_index"":6,""viewing_time"":4464},{""page_index"":7,""viewing_time"":5544},{""page_index"":8,""viewing_time"":5688},{""page_index"":9,""viewing_time"":6504},{""page_index"":10,""viewing_time"":4576},{""page_index"":11,""viewing_time"":1256}]","","","","","","","","","","","","","","","",""
"html-button-response","7","312368","0.0-3.0-2.0-0.0-0.0","5d2e4267565e1200017efb42","6662009ae78f21dd82fcd179","66620939a4351551705574b9","3735","","1","","","","","","","","<div align=center>Your goal is to predict…?<br><br></div>","","","","","","","","","",""
"html-button-response","8","318176","0.0-3.0-2.0-1.0-0.0","5d2e4267565e1200017efb42","6662009ae78f21dd82fcd179","66620939a4351551705574b9","3968","","2","","","","","","","","<div align=center>In the jar with mostly white beads, there are ___% white beads and ___% black beads?<br><br></div>","","","","","","","","","",""
"html-button-response","9","331392","0.0-3.0-2.0-2.0-0.0","5d2e4267565e1200017efb42","6662009ae78f21dd82fcd179","66620939a4351551705574b9","12143","","0","","","","","","","","<div align=center>When there is a 1% probability that the jars will switch, the next bead will most likely be drawn from the…<br><br></div>","","","","","","","","","",""
"html-button-response","10","338016","0.0-3.0-2.0-3.0-0.0","5d2e4267565e1200017efb42","6662009ae78f21dd82fcd179","66620939a4351551705574b9","5391","","1","","","","","","","","<div align=center>When there is a 99% probability that the jars will switch, the next bead will most likely be drawn from the…<br><br></div>","","","","","","","","","",""
"instructions","11","346472","0.0-3.0-3.0","5d2e4267565e1200017efb42","6662009ae78f21dd82fcd179","66620939a4351551705574b9","7528","","","","[{""page_index"":0,""viewing_time"":7528}]","","","","","","","","","","","","","","","",""
"html-keyboard-response","12","348784","0.0-3.0-4.0-0.0","5d2e4267565e1200017efb42","6662009ae78f21dd82fcd179","66620939a4351551705574b9","2312",""," ","","","","","","","","<div align=center>In this practice block, there will be a <b>1% chance</b> that the jar on the next trial will be different from the jar on the current trial.<br><br></div>","","","","","","","","","",""
"image-keyboard-response","13","350873","0.0-3.0-4.0-1.0-0.0","5d2e4267565e1200017efb42","6662009ae78f21dd82fcd179","66620939a4351551705574b9","2087","","f","","","","","","","","./tasks/HMM-beads/Images/NoChoice.png","practice","0","0","0","0","9","0","true","",""
"image-keyboard-response","14","351183","0.0-3.0-4.0-1.0-1.0","5d2e4267565e1200017efb42","6662009ae78f21dd82fcd179","66620939a4351551705574b9","null","","null","","","","","","","","./tasks/HMM-beads/Images/BlackBeadChoice.png","","","","","","","","","",""
"image-keyboard-response","15","351699","0.0-3.0-4.0-1.0-2.0","5d2e4267565e1200017efb42","6662009ae78f21dd82fcd179","66620939a4351551705574b9","null","","null","","","","","","","","./tasks/HMM-beads/Images/BlackBeadChoiceCorrect.png","","","","","","","","","",""
"image-keyboard-response","16","354033","0.0-3.0-4.0-1.0-0.1","5d2e4267565e1200017efb42","6662009ae78f21dd82fcd179","66620939a4351551705574b9","2332","","j","","","","","","","","./tasks/HMM-beads/Images/NewTrialBC.png","practice","0","1","0","0","0","1","false","",""
"image-keyboard-response","17","354339","0.0-3.0-4.0-1.0-1.1","5d2e4267565e1200017efb42","6662009ae78f21dd82fcd179","66620939a4351551705574b9","null","","null","","","","","","","","./tasks/HMM-beads/Images/WhiteBeadChoice.png","","","","","","","","","",""
"image-keyboard-response","18","354856","0.0-3.0-4.0-1.0-2.1","5d2e4267565e1200017efb42","6662009ae78f21dd82fcd179","66620939a4351551705574b9","null","","null","","","","","","","","./tasks/HMM-beads/Images/WhiteBeadChoiceWrong.png","","","","","","","","","",""
"image-keyboard-response","19","355696","0.0-3.0-4.0-1.0-0.2","5d2e4267565e1200017efb42","6662009ae78f21dd82fcd179","66620939a4351551705574b9","839","","f","","","","","","","","./tasks/HMM-beads/Images/NewTrialBC.png","practice","0","2","0","1","0","0","false","",""
"image-keyboard-response","20","356011","0.0-3.0-4.0-1.0-1.2","5d2e4267565e1200017efb42","6662009ae78f21dd82fcd179","66620939a4351551705574b9","null","","null","","","","","","","","./tasks/HMM-beads/Images/BlackBeadChoice.png","","","","","","","","","",""
"image-keyboard-response","21","356528","0.0-3.0-4.0-1.0-2.2","5d2e4267565e1200017efb42","6662009ae78f21dd82fcd179","66620939a4351551705574b9","null","","null","","","","","","","","./tasks/HMM-beads/Images/BlackBeadChoiceWrong.png","","","","","","","","","",""
"image-keyboard-response","22","357600","0.0-3.0-4.0-1.0-0.3","5d2e4267565e1200017efb42","6662009ae78f21dd82fcd179","66620939a4351551705574b9","1071","","j","","","","","","","","./tasks/HMM-beads/Images/NewTrialWC.png","practice","0","3","0","0","1","1","false","",""
"image-keyboard-response","23","357902","0.0-3.0-4.0-1.0-1.3","5d2e4267565e1200017efb42","6662009ae78f21dd82fcd179","66620939a4351551705574b9","null","","null","","","","","","","","./tasks/HMM-beads/Images/WhiteBeadChoice.png","","","","","","","","","",""
"image-keyboard-response","24","358418","0.0-3.0-4.0-1.0-2.3","5d2e4267565e1200017efb42","6662009ae78f21dd82fcd179","66620939a4351551705574b9","null","","null","","","","","","","","./tasks/HMM-beads/Images/WhiteBeadChoiceWrong.png","","","","","","","","","",""
"image-keyboard-response","25","358776","0.0-3.0-4.0-1.0-0.4","5d2e4267565e1200017efb42","6662009ae78f21dd82fcd179","66620939a4351551705574b9","357","","f","","","","","","","","./tasks/HMM-beads/Images/NewTrialBC.png","practice","0","4","0","0","0","0","true","",""
"image-keyboard-response","26","359089","0.0-3.0-4.0-1.0-1.4","5d2e4267565e1200017efb42","6662009ae78f21dd82fcd179","66620939a4351551705574b9","null","","null","","","","","","","","./tasks/HMM-beads/Images/BlackBeadChoice.png","","","","","","","","","",""
"image-keyboard-response","27","359632","0.0-3.0-4.0-1.0-2.4","5d2e4267565e1200017efb42","6662009ae78f21dd82fcd179","66620939a4351551705574b9","null","","null","","","","","","","","./tasks/HMM-beads/Images/BlackBeadChoiceCorrect.png","","","","","","","","","",""
"image-keyboard-response","28","359791","0.0-3.0-4.0-1.0-0.5","5d2e4267565e1200017efb42","6662009ae78f21dd82fcd179","66620939a4351551705574b9","156","","f","","","","","","","","./tasks/HMM-beads/Images/NewTrialBC.png","practice","0","5","0","1","0","0","false","",""
"image-keyboard-response","29","360105","0.0-3.0-4.0-1.0-1.5","5d2e4267565e1200017efb42","6662009ae78f21dd82fcd179","66620939a4351551705574b9","null","","null","","","","","","","","./tasks/HMM-beads/Images/BlackBeadChoice.png","","","","","","","","","",""
"image-keyboard-response","30","360621","0.0-3.0-4.0-1.0-2.5","5d2e4267565e1200017efb42","6662009ae78f21dd82fcd179","66620939a4351551705574b9","null","","null","","","","","","","","./tasks/HMM-beads/Images/BlackBeadChoiceWrong.png","","","","","","","","","",""
"image-keyboard-response","31","361296","0.0-3.0-4.0-1.0-0.6","5d2e4267565e1200017efb42","6662009ae78f21dd82fcd179","66620939a4351551705574b9","674","","j","","","","","","","","./tasks/HMM-beads/Images/NewTrialWC.png","practice","0","6","0","0","1","1","false","",""
"image-keyboard-response","32","361606","0.0-3.0-4.0-1.0-1.6","5d2e4267565e1200017efb42","6662009ae78f21dd82fcd179","66620939a4351551705574b9","null","","null","","","","","","","","./tasks/HMM-beads/Images/WhiteBeadChoice.png","","","","","","","","","",""
"image-keyboard-response","33","362120","0.0-3.0-4.0-1.0-2.6","5d2e4267565e1200017efb42","6662009ae78f21dd82fcd179","66620939a4351551705574b9","null","","null","","","","","","","","./tasks/HMM-beads/Images/WhiteBeadChoiceWrong.png","","","","","","","","","",""
"image-keyboard-response","34","362265","0.0-3.0-4.0-1.0-0.7","5d2e4267565e1200017efb42","6662009ae78f21dd82fcd179","66620939a4351551705574b9","142","","f","","","","","","","","./tasks/HMM-beads/Images/NewTrialBC.png","practice","0","7","0","0","0","0","true","",""
"image-keyboard-response","35","362574","0.0-3.0-4.0-1.0-1.7","5d2e4267565e1200017efb42","6662009ae78f21dd82fcd179","66620939a4351551705574b9","null","","null","","","","","","","","./tasks/HMM-beads/Images/BlackBeadChoice.png","","","","","","","","","",""
"image-keyboard-response","36","363090","0.0-3.0-4.0-1.0-2.7","5d2e4267565e1200017efb42","6662009ae78f21dd82fcd179","66620939a4351551705574b9","null","","null","","","","","","","","./tasks/HMM-beads/Images/BlackBeadChoiceCorrect.png","","","","","","","","","",""
"image-keyboard-response","37","363808","0.0-3.0-4.0-1.0-0.8","5d2e4267565e1200017efb42","6662009ae78f21dd82fcd179","66620939a4351551705574b9","716","","f","","","","","","","","./tasks/HMM-beads/Images/NewTrialBC.png","practice","0","8","0","0","0","0","true","",""
"image-keyboard-response","38","364121","0.0-3.0-4.0-1.0-1.8","5d2e4267565e1200017efb42","6662009ae78f21dd82fcd179","66620939a4351551705574b9","null","","null","","","","","","","","./tasks/HMM-beads/Images/BlackBeadChoice.png","","","","","","","","","",""
"image-keyboard-response","39","364637","0.0-3.0-4.0-1.0-2.8","5d2e4267565e1200017efb42","6662009ae78f21dd82fcd179","66620939a4351551705574b9","null","","null","","","","","","","","./tasks/HMM-beads/Images/BlackBeadChoiceCorrect.png","","","","","","","","","",""
"image-keyboard-response","40","365728","0.0-3.0-4.0-1.0-0.9","5d2e4267565e1200017efb42","6662009ae78f21dd82fcd179","66620939a4351551705574b9","1090","","f","","","","","","","","./tasks/HMM-beads/Images/NewTrialBC.png","practice","0","9","0","1","0","0","false","",""
"image-keyboard-response","41","366042","0.0-3.0-4.0-1.0-1.9","5d2e4267565e1200017efb42","6662009ae78f21dd82fcd179","66620939a4351551705574b9","null","","null","","","","","","","","./tasks/HMM-beads/Images/BlackBeadChoice.png","","","","","","","","","",""
"image-keyboard-response","42","366544","0.0-3.0-4.0-1.0-2.9","5d2e4267565e1200017efb42","6662009ae78f21dd82fcd179","66620939a4351551705574b9","null","","null","","","","","","","","./tasks/HMM-beads/Images/BlackBeadChoiceWrong.png","","","","","","","","","",""
"image-keyboard-response","43","369217","0.0-3.0-4.0-1.0-0.10","5d2e4267565e1200017efb42","6662009ae78f21dd82fcd179","66620939a4351551705574b9","2671","","f","","","","","","","","./tasks/HMM-beads/Images/NewTrialWC.png","practice","0","10","0","0","1","0","true","",""
"image-keyboard-response","44","369527","0.0-3.0-4.0-1.0-1.10","5d2e4267565e1200017efb42","6662009ae78f21dd82fcd179","66620939a4351551705574b9","null","","null","","","","","","","","./tasks/HMM-beads/Images/BlackBeadChoice.png","","","","","","","","","",""
"image-keyboard-response","45","370042","0.0-3.0-4.0-1.0-2.10","5d2e4267565e1200017efb42","6662009ae78f21dd82fcd179","66620939a4351551705574b9","null","","null","","","","","","","","./tasks/HMM-beads/Images/BlackBeadChoiceCorrect.png","","","","","","","","","",""
"image-keyboard-response","46","371153","0.0-3.0-4.0-1.0-0.11","5d2e4267565e1200017efb42","6662009ae78f21dd82fcd179","66620939a4351551705574b9","1109","","f","","","","","","","","./tasks/HMM-beads/Images/NewTrialBC.png","practice","0","11","0","1","0","0","false","",""
"image-keyboard-response","47","371465","0.0-3.0-4.0-1.0-1.11","5d2e4267565e1200017efb42","6662009ae78f21dd82fcd179","66620939a4351551705574b9","null","","null","","","","","","","","./tasks/HMM-beads/Images/BlackBeadChoice.png","","","","","","","","","",""
"image-keyboard-response","48","371979","0.0-3.0-4.0-1.0-2.11","5d2e4267565e1200017efb42","6662009ae78f21dd82fcd179","66620939a4351551705574b9","null","","null","","","","","","","","./tasks/HMM-beads/Images/BlackBeadChoiceWrong.png","","","","","","","","","",""
"image-keyboard-response","49","372793","0.0-3.0-4.0-1.0-0.12","5d2e4267565e1200017efb42","6662009ae78f21dd82fcd179","66620939a4351551705574b9","812","","f","","","","","","","","./tasks/HMM-beads/Images/NewTrialWC.png","practice","0","12","0","0","1","0","true","",""
"image-keyboard-response","50","373105","0.0-3.0-4.0-1.0-1.12","5d2e4267565e1200017efb42","6662009ae78f21dd82fcd179","66620939a4351551705574b9","null","","null","","","","","","","","./tasks/HMM-beads/Images/BlackBeadChoice.png","","","","","","","","","",""
"image-keyboard-response","51","373620","0.0-3.0-4.0-1.0-2.12","5d2e4267565e1200017efb42","6662009ae78f21dd82fcd179","66620939a4351551705574b9","null","","null","","","","","","","","./tasks/HMM-beads/Images/BlackBeadChoiceCorrect.png","","","","","","","","","",""
"image-keyboard-response","52","375063","0.0-3.0-4.0-1.0-0.13","5d2e4267565e1200017efb42","6662009ae78f21dd82fcd179","66620939a4351551705574b9","1442","","f","","","","","","","","./tasks/HMM-beads/Images/NewTrialBC.png","practice","0","13","0","0","0","0","true","",""
"image-keyboard-response","53","375370","0.0-3.0-4.0-1.0-1.13","5d2e4267565e1200017efb42","6662009ae78f21dd82fcd179","66620939a4351551705574b9","null","","null","","","","","","","","./tasks/HMM-beads/Images/BlackBeadChoice.png","","","","","","","","","",""
"image-keyboard-response","54","375886","0.0-3.0-4.0-1.0-2.13","5d2e4267565e1200017efb42","6662009ae78f21dd82fcd179","66620939a4351551705574b9","null","","null","","","","","","","","./tasks/HMM-beads/Images/BlackBeadChoiceCorrect.png","","","","","","","","","",""
"image-keyboard-response","55","376360","0.0-3.0-4.0-1.0-0.14","5d2e4267565e1200017efb42","6662009ae78f21dd82fcd179","66620939a4351551705574b9","473","","f","","","","","","","","./tasks/HMM-beads/Images/NewTrialBC.png","practice","0","14","0","0","0","0","true","",""
"image-keyboard-response","56","376667","0.0-3.0-4.0-1.0-1.14","5d2e4267565e1200017efb42","6662009ae78f21dd82fcd179","66620939a4351551705574b9","null","","null","","","","","","","","./tasks/HMM-beads/Images/BlackBeadChoice.png","","","","","","","","","",""
"image-keyboard-response","57","377183","0.0-3.0-4.0-1.0-2.14","5d2e4267565e1200017efb42","6662009ae78f21dd82fcd179","66620939a4351551705574b9","null","","null","","","","","","","","./tasks/HMM-beads/Images/BlackBeadChoiceCorrect.png","","","","","","","","","",""
"image-keyboard-response","58","377609","0.0-3.0-4.0-1.0-0.15","5d2e4267565e1200017efb42","6662009ae78f21dd82fcd179","66620939a4351551705574b9","423","","f","","","","","","","","./tasks/HMM-beads/Images/NewTrialBC.png","practice","0","15","0","0","0","0","true","",""
"image-keyboard-response","59","377913","0.0-3.0-4.0-1.0-1.15","5d2e4267565e1200017efb42","6662009ae78f21dd82fcd179","66620939a4351551705574b9","null","","null","","","","","","","","./tasks/HMM-beads/Images/BlackBeadChoice.png","","","","","","","","","",""
"image-keyboard-response","60","378418","0.0-3.0-4.0-1.0-2.15","5d2e4267565e1200017efb42","6662009ae78f21dd82fcd179","66620939a4351551705574b9","null","","null","","","","","","","","./tasks/HMM-beads/Images/BlackBeadChoiceCorrect.png","","","","","","","","","",""
"image-keyboard-response","61","378608","0.0-3.0-4.0-1.0-0.16","5d2e4267565e1200017efb42","6662009ae78f21dd82fcd179","66620939a4351551705574b9","189","","f","","","","","","","","./tasks/HMM-beads/Images/NewTrialBC.png","practice","0","16","0","0","0","0","true","",""
"image-keyboard-response","62","378918","0.0-3.0-4.0-1.0-1.16","5d2e4267565e1200017efb42","6662009ae78f21dd82fcd179","66620939a4351551705574b9","null","","null","","","","","","","","./tasks/HMM-beads/Images/BlackBeadChoice.png","","","","","","","","","",""
"image-keyboard-response","63","379433","0.0-3.0-4.0-1.0-2.16","5d2e4267565e1200017efb42","6662009ae78f21dd82fcd179","66620939a4351551705574b9","null","","null","","","","","","","","./tasks/HMM-beads/Images/BlackBeadChoiceCorrect.png","","","","","","","","","",""
"image-keyboard-response","64","379801","0.0-3.0-4.0-1.0-0.17","5d2e4267565e1200017efb42","6662009ae78f21dd82fcd179","66620939a4351551705574b9","366","","f","","","","","","","","./tasks/HMM-beads/Images/NewTrialBC.png","practice","0","17","0","0","0","0","true","",""
"image-keyboard-response","65","380106","0.0-3.0-4.0-1.0-1.17","5d2e4267565e1200017efb42","6662009ae78f21dd82fcd179","66620939a4351551705574b9","null","","null","","","","","","","","./tasks/HMM-beads/Images/BlackBeadChoice.png","","","","","","","","","",""
"image-keyboard-response","66","380619","0.0-3.0-4.0-1.0-2.17","5d2e4267565e1200017efb42","6662009ae78f21dd82fcd179","66620939a4351551705574b9","null","","null","","","","","","","","./tasks/HMM-beads/Images/BlackBeadChoiceCorrect.png","","","","","","","","","",""
"image-keyboard-response","67","381135","0.0-3.0-4.0-1.0-0.18","5d2e4267565e1200017efb42","6662009ae78f21dd82fcd179","66620939a4351551705574b9","514","","f","","","","","","","","./tasks/HMM-beads/Images/NewTrialBC.png","practice","0","18","0","1","0","0","false","",""
"image-keyboard-response","68","381449","0.0-3.0-4.0-1.0-1.18","5d2e4267565e1200017efb42","6662009ae78f21dd82fcd179","66620939a4351551705574b9","null","","null","","","","","","","","./tasks/HMM-beads/Images/BlackBeadChoice.png","","","","","","","","","",""
"image-keyboard-response","69","381965","0.0-3.0-4.0-1.0-2.18","5d2e4267565e1200017efb42","6662009ae78f21dd82fcd179","66620939a4351551705574b9","null","","null","","","","","","","","./tasks/HMM-beads/Images/BlackBeadChoiceWrong.png","","","","","","","","","",""
"image-keyboard-response","70","382841","0.0-3.0-4.0-1.0-0.19","5d2e4267565e1200017efb42","6662009ae78f21dd82fcd179","66620939a4351551705574b9","875","","f","","","","","","","","./tasks/HMM-beads/Images/NewTrialWC.png","practice","0","19","0","0","1","0","true","",""
"image-keyboard-response","71","383168","0.0-3.0-4.0-1.0-1.19","5d2e4267565e1200017efb42","6662009ae78f21dd82fcd179","66620939a4351551705574b9","null","","null","","","","","","","","./tasks/HMM-beads/Images/BlackBeadChoice.png","","","","","","","","","",""
"image-keyboard-response","72","383683","0.0-3.0-4.0-1.0-2.19","5d2e4267565e1200017efb42","6662009ae78f21dd82fcd179","66620939a4351551705574b9","null","","null","","","","","","","","./tasks/HMM-beads/Images/BlackBeadChoiceCorrect.png","","","","","","","","","",""
"image-keyboard-response","73","384137","0.0-3.0-4.0-1.0-0.20","5d2e4267565e1200017efb42","6662009ae78f21dd82fcd179","66620939a4351551705574b9","452","","f","","","","","","","","./tasks/HMM-beads/Images/NewTrialBC.png","practice","0","20","0","0","0","0","true","",""
"image-keyboard-response","74","384450","0.0-3.0-4.0-1.0-1.20","5d2e4267565e1200017efb42","6662009ae78f21dd82fcd179","66620939a4351551705574b9","null","","null","","","","","","","","./tasks/HMM-beads/Images/BlackBeadChoice.png","","","","","","","","","",""
"image-keyboard-response","75","384966","0.0-3.0-4.0-1.0-2.20","5d2e4267565e1200017efb42","6662009ae78f21dd82fcd179","66620939a4351551705574b9","null","","null","","","","","","","","./tasks/HMM-beads/Images/BlackBeadChoiceCorrect.png","","","","","","","","","",""
"image-keyboard-response","76","385359","0.0-3.0-4.0-1.0-0.21","5d2e4267565e1200017efb42","6662009ae78f21dd82fcd179","66620939a4351551705574b9","392","","f","","","","","","","","./tasks/HMM-beads/Images/NewTrialBC.png","practice","0","21","0","1","0","0","false","",""
"image-keyboard-response","77","385668","0.0-3.0-4.0-1.0-1.21","5d2e4267565e1200017efb42","6662009ae78f21dd82fcd179","66620939a4351551705574b9","null","","null","","","","","","","","./tasks/HMM-beads/Images/BlackBeadChoice.png","","","","","","","","","",""
"image-keyboard-response","78","386184","0.0-3.0-4.0-1.0-2.21","5d2e4267565e1200017efb42","6662009ae78f21dd82fcd179","66620939a4351551705574b9","null","","null","","","","","","","","./tasks/HMM-beads/Images/BlackBeadChoiceWrong.png","","","","","","","","","",""
"image-keyboard-response","79","386568","0.0-3.0-4.0-1.0-0.22","5d2e4267565e1200017efb42","6662009ae78f21dd82fcd179","66620939a4351551705574b9","382","","f","","","","","","","","./tasks/HMM-beads/Images/NewTrialWC.png","practice","0","22","1","1","1","0","false","",""
"image-keyboard-response","80","386870","0.0-3.0-4.0-1.0-1.22","5d2e4267565e1200017efb42","6662009ae78f21dd82fcd179","66620939a4351551705574b9","null","","null","","","","","","","","./tasks/HMM-beads/Images/BlackBeadChoice.png","","","","","","","","","",""
"image-keyboard-response","81","387371","0.0-3.0-4.0-1.0-2.22","5d2e4267565e1200017efb42","6662009ae78f21dd82fcd179","66620939a4351551705574b9","null","","null","","","","","","","","./tasks/HMM-beads/Images/BlackBeadChoiceWrong.png","","","","","","","","","",""
"image-keyboard-response","82","387840","0.0-3.0-4.0-1.0-0.23","5d2e4267565e1200017efb42","6662009ae78f21dd82fcd179","66620939a4351551705574b9","468","","j","","","","","","","","./tasks/HMM-beads/Images/NewTrialWC.png","practice","0","23","1","0","1","1","false","",""
"image-keyboard-response","83","388152","0.0-3.0-4.0-1.0-1.23","5d2e4267565e1200017efb42","6662009ae78f21dd82fcd179","66620939a4351551705574b9","null","","null","","","","","","","","./tasks/HMM-beads/Images/WhiteBeadChoice.png","","","","","","","","","",""
"image-keyboard-response","84","388663","0.0-3.0-4.0-1.0-2.23","5d2e4267565e1200017efb42","6662009ae78f21dd82fcd179","66620939a4351551705574b9","null","","null","","","","","","","","./tasks/HMM-beads/Images/WhiteBeadChoiceWrong.png","","","","","","","","","",""
"image-keyboard-response","85","389672","0.0-3.0-4.0-1.0-0.24","5d2e4267565e1200017efb42","6662009ae78f21dd82fcd179","66620939a4351551705574b9","1008","","f","","","","","","","","./tasks/HMM-beads/Images/NewTrialBC.png","practice","0","24","1","1","0","0","false","",""
"image-keyboard-response","86","389980","0.0-3.0-4.0-1.0-1.24","5d2e4267565e1200017efb42","6662009ae78f21dd82fcd179","66620939a4351551705574b9","null","","null","","","","","","","","./tasks/HMM-beads/Images/BlackBeadChoice.png","","","","","","","","","",""
"image-keyboard-response","87","390496","0.0-3.0-4.0-1.0-2.24","5d2e4267565e1200017efb42","6662009ae78f21dd82fcd179","66620939a4351551705574b9","null","","null","","","","","","","","./tasks/HMM-beads/Images/BlackBeadChoiceWrong.png","","","","","","","","","",""
"image-keyboard-response","88","390527","0.0-3.0-4.0-1.0-0.25","5d2e4267565e1200017efb42","6662009ae78f21dd82fcd179","66620939a4351551705574b9","30","","f","","","","","","","","./tasks/HMM-beads/Images/NewTrialWC.png","practice","0","25","1","1","1","0","false","",""
"image-keyboard-response","89","390840","0.0-3.0-4.0-1.0-1.25","5d2e4267565e1200017efb42","6662009ae78f21dd82fcd179","66620939a4351551705574b9","null","","null","","","","","","","","./tasks/HMM-beads/Images/BlackBeadChoice.png","","","","","","","","","",""
"image-keyboard-response","90","391355","0.0-3.0-4.0-1.0-2.25","5d2e4267565e1200017efb42","6662009ae78f21dd82fcd179","66620939a4351551705574b9","null","","null","","","","","","","","./tasks/HMM-beads/Images/BlackBeadChoiceWrong.png","","","","","","","","","",""
"image-keyboard-response","91","392167","0.0-3.0-4.0-1.0-0.26","5d2e4267565e1200017efb42","6662009ae78f21dd82fcd179","66620939a4351551705574b9","812","","j","","","","","","","","./tasks/HMM-beads/Images/NewTrialWC.png","practice","0","26","1","1","1","1","true","",""
"image-keyboard-response","92","392479","0.0-3.0-4.0-1.0-1.26","5d2e4267565e1200017efb42","6662009ae78f21dd82fcd179","66620939a4351551705574b9","null","","null","","","","","","","","./tasks/HMM-beads/Images/WhiteBeadChoice.png","","","","","","","","","",""
"image-keyboard-response","93","392996","0.0-3.0-4.0-1.0-2.26","5d2e4267565e1200017efb42","6662009ae78f21dd82fcd179","66620939a4351551705574b9","null","","null","","","","","","","","./tasks/HMM-beads/Images/WhiteBeadChoiceCorrect.png","","","","","","","","","",""
"image-keyboard-response","94","393448","0.0-3.0-4.0-1.0-0.27","5d2e4267565e1200017efb42","6662009ae78f21dd82fcd179","66620939a4351551705574b9","451","","j","","","","","","","","./tasks/HMM-beads/Images/NewTrialWC.png","practice","0","27","1","1","1","1","true","",""
"image-keyboard-response","95","393761","0.0-3.0-4.0-1.0-1.27","5d2e4267565e1200017efb42","6662009ae78f21dd82fcd179","66620939a4351551705574b9","null","","null","","","","","","","","./tasks/HMM-beads/Images/WhiteBeadChoice.png","","","","","","","","","",""
"image-keyboard-response","96","394277","0.0-3.0-4.0-1.0-2.27","5d2e4267565e1200017efb42","6662009ae78f21dd82fcd179","66620939a4351551705574b9","null","","null","","","","","","","","./tasks/HMM-beads/Images/WhiteBeadChoiceCorrect.png","","","","","","","","","",""
"image-keyboard-response","97","394519","0.0-3.0-4.0-1.0-0.28","5d2e4267565e1200017efb42","6662009ae78f21dd82fcd179","66620939a4351551705574b9","241","","j","","","","","","","","./tasks/HMM-beads/Images/NewTrialWC.png","practice","0","28","1","0","1","1","false","",""
"image-keyboard-response","98","394825","0.0-3.0-4.0-1.0-1.28","5d2e4267565e1200017efb42","6662009ae78f21dd82fcd179","66620939a4351551705574b9","null","","null","","","","","","","","./tasks/HMM-beads/Images/WhiteBeadChoice.png","","","","","","","","","",""
"image-keyboard-response","99","395340","0.0-3.0-4.0-1.0-2.28","5d2e4267565e1200017efb42","6662009ae78f21dd82fcd179","66620939a4351551705574b9","null","","null","","","","","","","","./tasks/HMM-beads/Images/WhiteBeadChoiceWrong.png","","","","","","","","","",""
"image-keyboard-response","100","395784","0.0-3.0-4.0-1.0-0.29","5d2e4267565e1200017efb42","6662009ae78f21dd82fcd179","66620939a4351551705574b9","443","","j","","","","","","","","./tasks/HMM-beads/Images/NewTrialBC.png","practice","0","29","1","1","0","1","true","",""
"image-keyboard-response","101","396091","0.0-3.0-4.0-1.0-1.29","5d2e4267565e1200017efb42","6662009ae78f21dd82fcd179","66620939a4351551705574b9","null","","null","","","","","","","","./tasks/HMM-beads/Images/WhiteBeadChoice.png","","","","","","","","","",""
"image-keyboard-response","102","396605","0.0-3.0-4.0-1.0-2.29","5d2e4267565e1200017efb42","6662009ae78f21dd82fcd179","66620939a4351551705574b9","null","","null","","","","","","","","./tasks/HMM-beads/Images/WhiteBeadChoiceCorrect.png","","","","","","","","","",""
"image-keyboard-response","103","396928","0.0-3.0-4.0-1.0-0.30","5d2e4267565e1200017efb42","6662009ae78f21dd82fcd179","66620939a4351551705574b9","323","","j","","","","","","","","./tasks/HMM-beads/Images/NewTrialWC.png","practice","0","30","1","0","1","1","false","",""
"image-keyboard-response","104","397247","0.0-3.0-4.0-1.0-1.30","5d2e4267565e1200017efb42","6662009ae78f21dd82fcd179","66620939a4351551705574b9","null","","null","","","","","","","","./tasks/HMM-beads/Images/WhiteBeadChoice.png","","","","","","","","","",""
"image-keyboard-response","105","397763","0.0-3.0-4.0-1.0-2.30","5d2e4267565e1200017efb42","6662009ae78f21dd82fcd179","66620939a4351551705574b9","null","","null","","","","","","","","./tasks/HMM-beads/Images/WhiteBeadChoiceWrong.png","","","","","","","","","",""
"image-keyboard-response","106","397983","0.0-3.0-4.0-1.0-0.31","5d2e4267565e1200017efb42","6662009ae78f21dd82fcd179","66620939a4351551705574b9","218","","j","","","","","","","","./tasks/HMM-beads/Images/NewTrialBC.png","practice","0","31","1","1","0","1","true","",""
"image-keyboard-response","107","398292","0.0-3.0-4.0-1.0-1.31","5d2e4267565e1200017efb42","6662009ae78f21dd82fcd179","66620939a4351551705574b9","null","","null","","","","","","","","./tasks/HMM-beads/Images/WhiteBeadChoice.png","","","","","","","","","",""
"image-keyboard-response","108","398808","0.0-3.0-4.0-1.0-2.31","5d2e4267565e1200017efb42","6662009ae78f21dd82fcd179","66620939a4351551705574b9","null","","null","","","","","","","","./tasks/HMM-beads/Images/WhiteBeadChoiceCorrect.png","","","","","","","","","",""
"image-keyboard-response","109","399087","0.0-3.0-4.0-1.0-0.32","5d2e4267565e1200017efb42","6662009ae78f21dd82fcd179","66620939a4351551705574b9","278","","j","","","","","","","","./tasks/HMM-beads/Images/NewTrialWC.png","practice","0","32","1","1","1","1","true","",""
"image-keyboard-response","110","399402","0.0-3.0-4.0-1.0-1.32","5d2e4267565e1200017efb42","6662009ae78f21dd82fcd179","66620939a4351551705574b9","null","","null","","","","","","","","./tasks/HMM-beads/Images/WhiteBeadChoice.png","","","","","","","","","",""
"image-keyboard-response","111","399917","0.0-3.0-4.0-1.0-2.32","5d2e4267565e1200017efb42","6662009ae78f21dd82fcd179","66620939a4351551705574b9","null","","null","","","","","","","","./tasks/HMM-beads/Images/WhiteBeadChoiceCorrect.png","","","","","","","","","",""
"image-keyboard-response","112","400143","0.0-3.0-4.0-1.0-0.33","5d2e4267565e1200017efb42","6662009ae78f21dd82fcd179","66620939a4351551705574b9","225","","j","","","","","","","","./tasks/HMM-beads/Images/NewTrialWC.png","practice","0","33","1","1","1","1","true","",""
"image-keyboard-response","113","400449","0.0-3.0-4.0-1.0-1.33","5d2e4267565e1200017efb42","6662009ae78f21dd82fcd179","66620939a4351551705574b9","null","","null","","","","","","","","./tasks/HMM-beads/Images/WhiteBeadChoice.png","","","","","","","","","",""
"image-keyboard-response","114","400965","0.0-3.0-4.0-1.0-2.33","5d2e4267565e1200017efb42","6662009ae78f21dd82fcd179","66620939a4351551705574b9","null","","null","","","","","","","","./tasks/HMM-beads/Images/WhiteBeadChoiceCorrect.png","","","","","","","","","",""
"image-keyboard-response","115","401360","0.0-3.0-4.0-1.0-0.34","5d2e4267565e1200017efb42","6662009ae78f21dd82fcd179","66620939a4351551705574b9","393","","j","","","","","","","","./tasks/HMM-beads/Images/NewTrialWC.png","practice","0","34","1","1","1","1","true","",""
"image-keyboard-response","116","401668","0.0-3.0-4.0-1.0-1.34","5d2e4267565e1200017efb42","6662009ae78f21dd82fcd179","66620939a4351551705574b9","null","","null","","","","","","","","./tasks/HMM-beads/Images/WhiteBeadChoice.png","","","","","","","","","",""
"image-keyboard-response","117","402184","0.0-3.0-4.0-1.0-2.34","5d2e4267565e1200017efb42","6662009ae78f21dd82fcd179","66620939a4351551705574b9","null","","null","","","","","","","","./tasks/HMM-beads/Images/WhiteBeadChoiceCorrect.png","","","","","","","","","",""
"image-keyboard-response","118","402536","0.0-3.0-4.0-1.0-0.35","5d2e4267565e1200017efb42","6662009ae78f21dd82fcd179","66620939a4351551705574b9","350","","j","","","","","","","","./tasks/HMM-beads/Images/NewTrialWC.png","practice","0","35","1","1","1","1","true","",""
"image-keyboard-response","119","402840","0.0-3.0-4.0-1.0-1.35","5d2e4267565e1200017efb42","6662009ae78f21dd82fcd179","66620939a4351551705574b9","null","","null","","","","","","","","./tasks/HMM-beads/Images/WhiteBeadChoice.png","","","","","","","","","",""
"image-keyboard-response","120","403355","0.0-3.0-4.0-1.0-2.35","5d2e4267565e1200017efb42","6662009ae78f21dd82fcd179","66620939a4351551705574b9","null","","null","","","","","","","","./tasks/HMM-beads/Images/WhiteBeadChoiceCorrect.png","","","","","","","","","",""
"image-keyboard-response","121","403695","0.0-3.0-4.0-1.0-0.36","5d2e4267565e1200017efb42","6662009ae78f21dd82fcd179","66620939a4351551705574b9","339","","j","","","","","","","","./tasks/HMM-beads/Images/NewTrialWC.png","practice","0","36","1","0","1","1","false","",""
"image-keyboard-response","122","403997","0.0-3.0-4.0-1.0-1.36","5d2e4267565e1200017efb42","6662009ae78f21dd82fcd179","66620939a4351551705574b9","null","","null","","","","","","","","./tasks/HMM-beads/Images/WhiteBeadChoice.png","","","","","","","","","",""
"image-keyboard-response","123","404542","0.0-3.0-4.0-1.0-2.36","5d2e4267565e1200017efb42","6662009ae78f21dd82fcd179","66620939a4351551705574b9","null","","null","","","","","","","","./tasks/HMM-beads/Images/WhiteBeadChoiceWrong.png","","","","","","","","","",""
"image-keyboard-response","124","405792","0.0-3.0-4.0-1.0-0.37","5d2e4267565e1200017efb42","6662009ae78f21dd82fcd179","66620939a4351551705574b9","1248","","j","","","","","","","","./tasks/HMM-beads/Images/NewTrialBC.png","practice","0","37","1","1","0","1","true","",""
"image-keyboard-response","125","406096","0.0-3.0-4.0-1.0-1.37","5d2e4267565e1200017efb42","6662009ae78f21dd82fcd179","66620939a4351551705574b9","null","","null","","","","","","","","./tasks/HMM-beads/Images/WhiteBeadChoice.png","","","","","","","","","",""
"image-keyboard-response","126","406609","0.0-3.0-4.0-1.0-2.37","5d2e4267565e1200017efb42","6662009ae78f21dd82fcd179","66620939a4351551705574b9","null","","null","","","","","","","","./tasks/HMM-beads/Images/WhiteBeadChoiceCorrect.png","","","","","","","","","",""
"image-keyboard-response","127","407551","0.0-3.0-4.0-1.0-0.38","5d2e4267565e1200017efb42","6662009ae78f21dd82fcd179","66620939a4351551705574b9","942","","j","","","","","","","","./tasks/HMM-beads/Images/NewTrialWC.png","practice","0","38","1","1","1","1","true","",""
"image-keyboard-response","128","407856","0.0-3.0-4.0-1.0-1.38","5d2e4267565e1200017efb42","6662009ae78f21dd82fcd179","66620939a4351551705574b9","null","","null","","","","","","","","./tasks/HMM-beads/Images/WhiteBeadChoice.png","","","","","","","","","",""
"image-keyboard-response","129","408371","0.0-3.0-4.0-1.0-2.38","5d2e4267565e1200017efb42","6662009ae78f21dd82fcd179","66620939a4351551705574b9","null","","null","","","","","","","","./tasks/HMM-beads/Images/WhiteBeadChoiceCorrect.png","","","","","","","","","",""
"image-keyboard-response","130","409393","0.0-3.0-4.0-1.0-0.39","5d2e4267565e1200017efb42","6662009ae78f21dd82fcd179","66620939a4351551705574b9","1020","","j","","","","","","","","./tasks/HMM-beads/Images/NewTrialWC.png","practice","0","39","1","1","1","1","true","",""
"image-keyboard-response","131","409698","0.0-3.0-4.0-1.0-1.39","5d2e4267565e1200017efb42","6662009ae78f21dd82fcd179","66620939a4351551705574b9","null","","null","","","","","","","","./tasks/HMM-beads/Images/WhiteBeadChoice.png","","","","","","","","","",""
"image-keyboard-response","132","410200","0.0-3.0-4.0-1.0-2.39","5d2e4267565e1200017efb42","6662009ae78f21dd82fcd179","66620939a4351551705574b9","null","","null","","","","","","","","./tasks/HMM-beads/Images/WhiteBeadChoiceCorrect.png","","","","","","","","","",""
"html-keyboard-response","133","422818","0.0-3.0-4.0-2.0","5d2e4267565e1200017efb42","6662009ae78f21dd82fcd179","66620939a4351551705574b9","12616",""," ","","","","","","","","","","","","","","","","","",""
"instructions","134","434535","0.0-3.0-5.0","5d2e4267565e1200017efb42","6662009ae78f21dd82fcd179","66620939a4351551705574b9","11716","","","","[{""page_index"":0,""viewing_time"":9043},{""page_index"":1,""viewing_time"":2672}]","","","","","","","","","","","","","","","",""
"html-keyboard-response","135","441217","0.0-3.0-6.0-0.0","5d2e4267565e1200017efb42","6662009ae78f21dd82fcd179","66620939a4351551705574b9","6680",""," ","","","","","","","","<div align=center>In this block, there will be a <b>1% chance</b> that the jar on the next trial will be different from the jar on the current trial.<br><br></div>","","","","","","","","","",""
"image-keyboard-response","136","442545","0.0-3.0-6.0-1.0-0.0","5d2e4267565e1200017efb42","6662009ae78f21dd82fcd179","66620939a4351551705574b9","1326","","f","","","","","","","","./tasks/HMM-beads/Images/NoChoice.png","lowH","1","0","1","0","9","0","true","",""
"image-keyboard-response","137","442856","0.0-3.0-6.0-1.0-1.0","5d2e4267565e1200017efb42","6662009ae78f21dd82fcd179","66620939a4351551705574b9","null","","null","","","","","","","","./tasks/HMM-beads/Images/BlackBeadChoice.png","","","","","","","","","",""
"image-keyboard-response","138","443371","0.0-3.0-6.0-1.0-2.0","5d2e4267565e1200017efb42","6662009ae78f21dd82fcd179","66620939a4351551705574b9","null","","null","","","","","","","","./tasks/HMM-beads/Images/BlackBeadChoiceCorrect.png","","","","","","","","","",""
"image-keyboard-response","139","444193","0.0-3.0-6.0-1.0-0.1","5d2e4267565e1200017efb42","6662009ae78f21dd82fcd179","66620939a4351551705574b9","821","","f","","","","","","","","./tasks/HMM-beads/Images/NewTrialBC.png","lowH","1","1","1","1","0","0","false","",""
"image-keyboard-response","140","444496","0.0-3.0-6.0-1.0-1.1","5d2e4267565e1200017efb42","6662009ae78f21dd82fcd179","66620939a4351551705574b9","null","","null","","","","","","","","./tasks/HMM-beads/Images/BlackBeadChoice.png","","","","","","","","","",""
"image-keyboard-response","141","445012","0.0-3.0-6.0-1.0-2.1","5d2e4267565e1200017efb42","6662009ae78f21dd82fcd179","66620939a4351551705574b9","null","","null","","","","","","","","./tasks/HMM-beads/Images/BlackBeadChoiceWrong.png","","","","","","","","","",""
"image-keyboard-response","142","445641","0.0-3.0-6.0-1.0-0.2","5d2e4267565e1200017efb42","6662009ae78f21dd82fcd179","66620939a4351551705574b9","628","","f","","","","","","","","./tasks/HMM-beads/Images/NewTrialWC.png","lowH","1","2","1","1","1","0","false","",""
"image-keyboard-response","143","445950","0.0-3.0-6.0-1.0-1.2","5d2e4267565e1200017efb42","6662009ae78f21dd82fcd179","66620939a4351551705574b9","null","","null","","","","","","","","./tasks/HMM-beads/Images/BlackBeadChoice.png","","","","","","","","","",""
"image-keyboard-response","144","446464","0.0-3.0-6.0-1.0-2.2","5d2e4267565e1200017efb42","6662009ae78f21dd82fcd179","66620939a4351551705574b9","null","","null","","","","","","","","./tasks/HMM-beads/Images/BlackBeadChoiceWrong.png","","","","","","","","","",""
"image-keyboard-response","145","446897","0.0-3.0-6.0-1.0-0.3","5d2e4267565e1200017efb42","6662009ae78f21dd82fcd179","66620939a4351551705574b9","431","","f","","","","","","","","./tasks/HMM-beads/Images/NewTrialWC.png","lowH","1","3","1","1","1","0","false","",""
"image-keyboard-response","146","447200","0.0-3.0-6.0-1.0-1.3","5d2e4267565e1200017efb42","6662009ae78f21dd82fcd179","66620939a4351551705574b9","null","","null","","","","","","","","./tasks/HMM-beads/Images/BlackBeadChoice.png","","","","","","","","","",""
"image-keyboard-response","147","447715","0.0-3.0-6.0-1.0-2.3","5d2e4267565e1200017efb42","6662009ae78f21dd82fcd179","66620939a4351551705574b9","null","","null","","","","","","","","./tasks/HMM-beads/Images/BlackBeadChoiceWrong.png","","","","","","","","","",""
"image-keyboard-response","148","448159","0.0-3.0-6.0-1.0-0.4","5d2e4267565e1200017efb42","6662009ae78f21dd82fcd179","66620939a4351551705574b9","444","","j","","","","","","","","./tasks/HMM-beads/Images/NewTrialWC.png","lowH","1","4","1","1","1","1","true","",""
"image-keyboard-response","149","448480","0.0-3.0-6.0-1.0-1.4","5d2e4267565e1200017efb42","6662009ae78f21dd82fcd179","66620939a4351551705574b9","null","","null","","","","","","","","./tasks/HMM-beads/Images/WhiteBeadChoice.png","","","","","","","","","",""
"image-keyboard-response","150","448996","0.0-3.0-6.0-1.0-2.4","5d2e4267565e1200017efb42","6662009ae78f21dd82fcd179","66620939a4351551705574b9","null","","null","","","","","","","","./tasks/HMM-beads/Images/WhiteBeadChoiceCorrect.png","","","","","","","","","",""
"image-keyboard-response","151","449624","0.0-3.0-6.0-1.0-0.5","5d2e4267565e1200017efb42","6662009ae78f21dd82fcd179","66620939a4351551705574b9","627","","j","","","","","","","","./tasks/HMM-beads/Images/NewTrialWC.png","lowH","1","5","1","1","1","1","true","",""
"image-keyboard-response","152","449935","0.0-3.0-6.0-1.0-1.5","5d2e4267565e1200017efb42","6662009ae78f21dd82fcd179","66620939a4351551705574b9","null","","null","","","","","","","","./tasks/HMM-beads/Images/WhiteBeadChoice.png","","","","","","","","","",""
"image-keyboard-response","153","450450","0.0-3.0-6.0-1.0-2.5","5d2e4267565e1200017efb42","6662009ae78f21dd82fcd179","66620939a4351551705574b9","null","","null","","","","","","","","./tasks/HMM-beads/Images/WhiteBeadChoiceCorrect.png","","","","","","","","","",""
"image-keyboard-response","154","451081","0.0-3.0-6.0-1.0-0.6","5d2e4267565e1200017efb42","6662009ae78f21dd82fcd179","66620939a4351551705574b9","629","","j","","","","","","","","./tasks/HMM-beads/Images/NewTrialWC.png","lowH","1","6","1","0","1","1","false","",""
"image-keyboard-response","155","451387","0.0-3.0-6.0-1.0-1.6","5d2e4267565e1200017efb42","6662009ae78f21dd82fcd179","66620939a4351551705574b9","null","","null","","","","","","","","./tasks/HMM-beads/Images/WhiteBeadChoice.png","","","","","","","","","",""
"image-keyboard-response","156","451905","0.0-3.0-6.0-1.0-2.6","5d2e4267565e1200017efb42","6662009ae78f21dd82fcd179","66620939a4351551705574b9","null","","null","","","","","","","","./tasks/HMM-beads/Images/WhiteBeadChoiceWrong.png","","","","","","","","","",""
"image-keyboard-response","157","452199","0.0-3.0-6.0-1.0-0.7","5d2e4267565e1200017efb42","6662009ae78f21dd82fcd179","66620939a4351551705574b9","293","","j","","","","","","","","./tasks/HMM-beads/Images/NewTrialBC.png","lowH","1","7","1","1","0","1","true","",""
"image-keyboard-response","158","452512","0.0-3.0-6.0-1.0-1.7","5d2e4267565e1200017efb42","6662009ae78f21dd82fcd179","66620939a4351551705574b9","null","","null","","","","","","","","./tasks/HMM-beads/Images/WhiteBeadChoice.png","","","","","","","","","",""
"image-keyboard-response","159","453028","0.0-3.0-6.0-1.0-2.7","5d2e4267565e1200017efb42","6662009ae78f21dd82fcd179","66620939a4351551705574b9","null","","null","","","","","","","","./tasks/HMM-beads/Images/WhiteBeadChoiceCorrect.png","","","","","","","","","",""
"image-keyboard-response","160","453327","0.0-3.0-6.0-1.0-0.8","5d2e4267565e1200017efb42","6662009ae78f21dd82fcd179","66620939a4351551705574b9","299","","j","","","","","","","","./tasks/HMM-beads/Images/NewTrialWC.png","lowH","1","8","1","1","1","1","true","",""
"image-keyboard-response","161","453638","0.0-3.0-6.0-1.0-1.8","5d2e4267565e1200017efb42","6662009ae78f21dd82fcd179","66620939a4351551705574b9","null","","null","","","","","","","","./tasks/HMM-beads/Images/WhiteBeadChoice.png","","","","","","","","","",""
"image-keyboard-response","162","454153","0.0-3.0-6.0-1.0-2.8","5d2e4267565e1200017efb42","6662009ae78f21dd82fcd179","66620939a4351551705574b9","null","","null","","","","","","","","./tasks/HMM-beads/Images/WhiteBeadChoiceCorrect.png","","","","","","","","","",""
"image-keyboard-response","163","454711","0.0-3.0-6.0-1.0-0.9","5d2e4267565e1200017efb42","6662009ae78f21dd82fcd179","66620939a4351551705574b9","558","","j","","","","","","","","./tasks/HMM-beads/Images/NewTrialWC.png","lowH","1","9","1","1","1","1","true","",""
"image-keyboard-response","164","455028","0.0-3.0-6.0-1.0-1.9","5d2e4267565e1200017efb42","6662009ae78f21dd82fcd179","66620939a4351551705574b9","null","","null","","","","","","","","./tasks/HMM-beads/Images/WhiteBeadChoice.png","","","","","","","","","",""
"image-keyboard-response","165","455544","0.0-3.0-6.0-1.0-2.9","5d2e4267565e1200017efb42","6662009ae78f21dd82fcd179","66620939a4351551705574b9","null","","null","","","","","","","","./tasks/HMM-beads/Images/WhiteBeadChoiceCorrect.png","","","","","","","","","",""
"image-keyboard-response","166","455905","0.0-3.0-6.0-1.0-0.10","5d2e4267565e1200017efb42","6662009ae78f21dd82fcd179","66620939a4351551705574b9","360","","j","","","","","","","","./tasks/HMM-beads/Images/NewTrialWC.png","lowH","1","10","1","1","1","1","true","",""
"image-keyboard-response","167","456214","0.0-3.0-6.0-1.0-1.10","5d2e4267565e1200017efb42","6662009ae78f21dd82fcd179","66620939a4351551705574b9","null","","null","","","","","","","","./tasks/HMM-beads/Images/WhiteBeadChoice.png","","","","","","","","","",""
"image-keyboard-response","168","456730","0.0-3.0-6.0-1.0-2.10","5d2e4267565e1200017efb42","6662009ae78f21dd82fcd179","66620939a4351551705574b9","null","","null","","","","","","","","./tasks/HMM-beads/Images/WhiteBeadChoiceCorrect.png","","","","","","","","","",""
"image-keyboard-response","169","457336","0.0-3.0-6.0-1.0-0.11","5d2e4267565e1200017efb42","6662009ae78f21dd82fcd179","66620939a4351551705574b9","605","","j","","","","","","","","./tasks/HMM-beads/Images/NewTrialWC.png","lowH","1","11","1","1","1","1","true","",""
"image-keyboard-response","170","457652","0.0-3.0-6.0-1.0-1.11","5d2e4267565e1200017efb42","6662009ae78f21dd82fcd179","66620939a4351551705574b9","null","","null","","","","","","","","./tasks/HMM-beads/Images/WhiteBeadChoice.png","","","","","","","","","",""
"image-keyboard-response","171","458153","0.0-3.0-6.0-1.0-2.11","5d2e4267565e1200017efb42","6662009ae78f21dd82fcd179","66620939a4351551705574b9","null","","null","","","","","","","","./tasks/HMM-beads/Images/WhiteBeadChoiceCorrect.png","","","","","","","","","",""
"image-keyboard-response","172","458716","0.0-3.0-6.0-1.0-0.12","5d2e4267565e1200017efb42","6662009ae78f21dd82fcd179","66620939a4351551705574b9","562","","j","","","","","","","","./tasks/HMM-beads/Images/NewTrialWC.png","lowH","1","12","1","1","1","1","true","",""
"image-keyboard-response","173","459027","0.0-3.0-6.0-1.0-1.12","5d2e4267565e1200017efb42","6662009ae78f21dd82fcd179","66620939a4351551705574b9","null","","null","","","","","","","","./tasks/HMM-beads/Images/WhiteBeadChoice.png","","","","","","","","","",""
"image-keyboard-response","174","459538","0.0-3.0-6.0-1.0-2.12","5d2e4267565e1200017efb42","6662009ae78f21dd82fcd179","66620939a4351551705574b9","null","","null","","","","","","","","./tasks/HMM-beads/Images/WhiteBeadChoiceCorrect.png","","","","","","","","","",""
"image-keyboard-response","175","460296","0.0-3.0-6.0-1.0-0.13","5d2e4267565e1200017efb42","6662009ae78f21dd82fcd179","66620939a4351551705574b9","757","","j","","","","","","","","./tasks/HMM-beads/Images/NewTrialWC.png","lowH","1","13","1","0","1","1","false","",""
"image-keyboard-response","176","460606","0.0-3.0-6.0-1.0-1.13","5d2e4267565e1200017efb42","6662009ae78f21dd82fcd179","66620939a4351551705574b9","null","","null","","","","","","","","./tasks/HMM-beads/Images/WhiteBeadChoice.png","","","","","","","","","",""
"image-keyboard-response","177","461122","0.0-3.0-6.0-1.0-2.13","5d2e4267565e1200017efb42","6662009ae78f21dd82fcd179","66620939a4351551705574b9","null","","null","","","","","","","","./tasks/HMM-beads/Images/WhiteBeadChoiceWrong.png","","","","","","","","","",""
"image-keyboard-response","178","461833","0.0-3.0-6.0-1.0-0.14","5d2e4267565e1200017efb42","6662009ae78f21dd82fcd179","66620939a4351551705574b9","710","","j","","","","","","","","./tasks/HMM-beads/Images/NewTrialBC.png","lowH","1","14","1","0","0","1","false","",""
"image-keyboard-response","179","462137","0.0-3.0-6.0-1.0-1.14","5d2e4267565e1200017efb42","6662009ae78f21dd82fcd179","66620939a4351551705574b9","null","","null","","","","","","","","./tasks/HMM-beads/Images/WhiteBeadChoice.png","","","","","","","","","",""
"image-keyboard-response","180","462653","0.0-3.0-6.0-1.0-2.14","5d2e4267565e1200017efb42","6662009ae78f21dd82fcd179","66620939a4351551705574b9","null","","null","","","","","","","","./tasks/HMM-beads/Images/WhiteBeadChoiceWrong.png","","","","","","","","","",""
"image-keyboard-response","181","463641","0.0-3.0-6.0-1.0-0.15","5d2e4267565e1200017efb42","6662009ae78f21dd82fcd179","66620939a4351551705574b9","986","","f","","","","","","","","./tasks/HMM-beads/Images/NewTrialBC.png","lowH","1","15","1","1","0","0","false","",""
"image-keyboard-response","182","463950","0.0-3.0-6.0-1.0-1.15","5d2e4267565e1200017efb42","6662009ae78f21dd82fcd179","66620939a4351551705574b9","null","","null","","","","","","","","./tasks/HMM-beads/Images/BlackBeadChoice.png","","","","","","","","","",""
"image-keyboard-response","183","464468","0.0-3.0-6.0-1.0-2.15","5d2e4267565e1200017efb42","6662009ae78f21dd82fcd179","66620939a4351551705574b9","null","","null","","","","","","","","./tasks/HMM-beads/Images/BlackBeadChoiceWrong.png","","","","","","","","","",""
"image-keyboard-response","184","464903","0.0-3.0-6.0-1.0-0.16","5d2e4267565e1200017efb42","6662009ae78f21dd82fcd179","66620939a4351551705574b9","435","","j","","","","","","","","./tasks/HMM-beads/Images/NewTrialWC.png","lowH","1","16","1","1","1","1","true","",""
"image-keyboard-response","185","465240","0.0-3.0-6.0-1.0-1.16","5d2e4267565e1200017efb42","6662009ae78f21dd82fcd179","66620939a4351551705574b9","null","","null","","","","","","","","./tasks/HMM-beads/Images/WhiteBeadChoice.png","","","","","","","","","",""
"image-keyboard-response","186","465746","0.0-3.0-6.0-1.0-2.16","5d2e4267565e1200017efb42","6662009ae78f21dd82fcd179","66620939a4351551705574b9","null","","null","","","","","","","","./tasks/HMM-beads/Images/WhiteBeadChoiceCorrect.png","","","","","","","","","",""
"image-keyboard-response","187","466081","0.0-3.0-6.0-1.0-0.17","5d2e4267565e1200017efb42","6662009ae78f21dd82fcd179","66620939a4351551705574b9","333","","j","","","","","","","","./tasks/HMM-beads/Images/NewTrialWC.png","lowH","1","17","1","1","1","1","true","",""
"image-keyboard-response","188","466388","0.0-3.0-6.0-1.0-1.17","5d2e4267565e1200017efb42","6662009ae78f21dd82fcd179","66620939a4351551705574b9","null","","null","","","","","","","","./tasks/HMM-beads/Images/WhiteBeadChoice.png","","","","","","","","","",""
"image-keyboard-response","189","466902","0.0-3.0-6.0-1.0-2.17","5d2e4267565e1200017efb42","6662009ae78f21dd82fcd179","66620939a4351551705574b9","null","","null","","","","","","","","./tasks/HMM-beads/Images/WhiteBeadChoiceCorrect.png","","","","","","","","","",""
"image-keyboard-response","190","467193","0.0-3.0-6.0-1.0-0.18","5d2e4267565e1200017efb42","6662009ae78f21dd82fcd179","66620939a4351551705574b9","290","","j","","","","","","","","./tasks/HMM-beads/Images/NewTrialWC.png","lowH","1","18","1","1","1","1","true","",""
"image-keyboard-response","191","467513","0.0-3.0-6.0-1.0-1.18","5d2e4267565e1200017efb42","6662009ae78f21dd82fcd179","66620939a4351551705574b9","null","","null","","","","","","","","./tasks/HMM-beads/Images/WhiteBeadChoice.png","","","","","","","","","",""
"image-keyboard-response","192","468028","0.0-3.0-6.0-1.0-2.18","5d2e4267565e1200017efb42","6662009ae78f21dd82fcd179","66620939a4351551705574b9","null","","null","","","","","","","","./tasks/HMM-beads/Images/WhiteBeadChoiceCorrect.png","","","","","","","","","",""
"image-keyboard-response","193","468207","0.0-3.0-6.0-1.0-0.19","5d2e4267565e1200017efb42","6662009ae78f21dd82fcd179","66620939a4351551705574b9","178","","j","","","","","","","","./tasks/HMM-beads/Images/NewTrialWC.png","lowH","1","19","1","1","1","1","true","",""
"image-keyboard-response","194","468513","0.0-3.0-6.0-1.0-1.19","5d2e4267565e1200017efb42","6662009ae78f21dd82fcd179","66620939a4351551705574b9","null","","null","","","","","","","","./tasks/HMM-beads/Images/WhiteBeadChoice.png","","","","","","","","","",""
"image-keyboard-response","195","469016","0.0-3.0-6.0-1.0-2.19","5d2e4267565e1200017efb42","6662009ae78f21dd82fcd179","66620939a4351551705574b9","null","","null","","","","","","","","./tasks/HMM-beads/Images/WhiteBeadChoiceCorrect.png","","","","","","","","","",""
"image-keyboard-response","196","469241","0.0-3.0-6.0-1.0-0.20","5d2e4267565e1200017efb42","6662009ae78f21dd82fcd179","66620939a4351551705574b9","224","","j","","","","","","","","./tasks/HMM-beads/Images/NewTrialWC.png","lowH","1","20","1","1","1","1","true","",""
"image-keyboard-response","197","469559","0.0-3.0-6.0-1.0-1.20","5d2e4267565e1200017efb42","6662009ae78f21dd82fcd179","66620939a4351551705574b9","null","","null","","","","","","","","./tasks/HMM-beads/Images/WhiteBeadChoice.png","","","","","","","","","",""
"image-keyboard-response","198","470074","0.0-3.0-6.0-1.0-2.20","5d2e4267565e1200017efb42","6662009ae78f21dd82fcd179","66620939a4351551705574b9","null","","null","","","","","","","","./tasks/HMM-beads/Images/WhiteBeadChoiceCorrect.png","","","","","","","","","",""
"image-keyboard-response","199","470080","0.0-3.0-6.0-1.0-0.21","5d2e4267565e1200017efb42","6662009ae78f21dd82fcd179","66620939a4351551705574b9","5","","j","","","","","","","","./tasks/HMM-beads/Images/NewTrialWC.png","lowH","1","21","1","1","1","1","true","",""
"image-keyboard-response","200","470387","0.0-3.0-6.0-1.0-1.21","5d2e4267565e1200017efb42","6662009ae78f21dd82fcd179","66620939a4351551705574b9","null","","null","","","","","","","","./tasks/HMM-beads/Images/WhiteBeadChoice.png","","","","","","","","","",""
"image-keyboard-response","201","470903","0.0-3.0-6.0-1.0-2.21","5d2e4267565e1200017efb42","6662009ae78f21dd82fcd179","66620939a4351551705574b9","null","","null","","","","","","","","./tasks/HMM-beads/Images/WhiteBeadChoiceCorrect.png","","","","","","","","","",""
"image-keyboard-response","202","471215","0.0-3.0-6.0-1.0-0.22","5d2e4267565e1200017efb42","6662009ae78f21dd82fcd179","66620939a4351551705574b9","311","","j","","","","","","","","./tasks/HMM-beads/Images/NewTrialWC.png","lowH","1","22","1","1","1","1","true","",""
"image-keyboard-response","203","471527","0.0-3.0-6.0-1.0-1.22","5d2e4267565e1200017efb42","6662009ae78f21dd82fcd179","66620939a4351551705574b9","null","","null","","","","","","","","./tasks/HMM-beads/Images/WhiteBeadChoice.png","","","","","","","","","",""
"image-keyboard-response","204","472043","0.0-3.0-6.0-1.0-2.22","5d2e4267565e1200017efb42","6662009ae78f21dd82fcd179","66620939a4351551705574b9","null","","null","","","","","","","","./tasks/HMM-beads/Images/WhiteBeadChoiceCorrect.png","","","","","","","","","",""
"image-keyboard-response","205","472104","0.0-3.0-6.0-1.0-0.23","5d2e4267565e1200017efb42","6662009ae78f21dd82fcd179","66620939a4351551705574b9","60","","j","","","","","","","","./tasks/HMM-beads/Images/NewTrialWC.png","lowH","1","23","1","1","1","1","true","",""
"image-keyboard-response","206","472418","0.0-3.0-6.0-1.0-1.23","5d2e4267565e1200017efb42","6662009ae78f21dd82fcd179","66620939a4351551705574b9","null","","null","","","","","","","","./tasks/HMM-beads/Images/WhiteBeadChoice.png","","","","","","","","","",""
"image-keyboard-response","207","472932","0.0-3.0-6.0-1.0-2.23","5d2e4267565e1200017efb42","6662009ae78f21dd82fcd179","66620939a4351551705574b9","null","","null","","","","","","","","./tasks/HMM-beads/Images/WhiteBeadChoiceCorrect.png","","","","","","","","","",""
"image-keyboard-response","208","473265","0.0-3.0-6.0-1.0-0.24","5d2e4267565e1200017efb42","6662009ae78f21dd82fcd179","66620939a4351551705574b9","331","","j","","","","","","","","./tasks/HMM-beads/Images/NewTrialWC.png","lowH","1","24","1","0","1","1","false","",""
"image-keyboard-response","209","473574","0.0-3.0-6.0-1.0-1.24","5d2e4267565e1200017efb42","6662009ae78f21dd82fcd179","66620939a4351551705574b9","null","","null","","","","","","","","./tasks/HMM-beads/Images/WhiteBeadChoice.png","","","","","","","","","",""
"image-keyboard-response","210","474090","0.0-3.0-6.0-1.0-2.24","5d2e4267565e1200017efb42","6662009ae78f21dd82fcd179","66620939a4351551705574b9","null","","null","","","","","","","","./tasks/HMM-beads/Images/WhiteBeadChoiceWrong.png","","","","","","","","","",""
"image-keyboard-response","211","474649","0.0-3.0-6.0-1.0-0.25","5d2e4267565e1200017efb42","6662009ae78f21dd82fcd179","66620939a4351551705574b9","557","","j","","","","","","","","./tasks/HMM-beads/Images/NewTrialBC.png","lowH","1","25","1","1","0","1","true","",""
"image-keyboard-response","212","474950","0.0-3.0-6.0-1.0-1.25","5d2e4267565e1200017efb42","6662009ae78f21dd82fcd179","66620939a4351551705574b9","null","","null","","","","","","","","./tasks/HMM-beads/Images/WhiteBeadChoice.png","","","","","","","","","",""
"image-keyboard-response","213","475466","0.0-3.0-6.0-1.0-2.25","5d2e4267565e1200017efb42","6662009ae78f21dd82fcd179","66620939a4351551705574b9","null","","null","","","","","","","","./tasks/HMM-beads/Images/WhiteBeadChoiceCorrect.png","","","","","","","","","",""
"image-keyboard-response","214","476265","0.0-3.0-6.0-1.0-0.26","5d2e4267565e1200017efb42","6662009ae78f21dd82fcd179","66620939a4351551705574b9","798","","j","","","","","","","","./tasks/HMM-beads/Images/NewTrialWC.png","lowH","1","26","1","0","1","1","false","",""
"image-keyboard-response","215","476575","0.0-3.0-6.0-1.0-1.26","5d2e4267565e1200017efb42","6662009ae78f21dd82fcd179","66620939a4351551705574b9","null","","null","","","","","","","","./tasks/HMM-beads/Images/WhiteBeadChoice.png","","","","","","","","","",""
"image-keyboard-response","216","477091","0.0-3.0-6.0-1.0-2.26","5d2e4267565e1200017efb42","6662009ae78f21dd82fcd179","66620939a4351551705574b9","null","","null","","","","","","","","./tasks/HMM-beads/Images/WhiteBeadChoiceWrong.png","","","","","","","","","",""
"image-keyboard-response","217","477128","0.0-3.0-6.0-1.0-0.27","5d2e4267565e1200017efb42","6662009ae78f21dd82fcd179","66620939a4351551705574b9","36","","j","","","","","","","","./tasks/HMM-beads/Images/NewTrialBC.png","lowH","1","27","1","1","0","1","true","",""
"image-keyboard-response","218","477434","0.0-3.0-6.0-1.0-1.27","5d2e4267565e1200017efb42","6662009ae78f21dd82fcd179","66620939a4351551705574b9","null","","null","","","","","","","","./tasks/HMM-beads/Images/WhiteBeadChoice.png","","","","","","","","","",""
"image-keyboard-response","219","477949","0.0-3.0-6.0-1.0-2.27","5d2e4267565e1200017efb42","6662009ae78f21dd82fcd179","66620939a4351551705574b9","null","","null","","","","","","","","./tasks/HMM-beads/Images/WhiteBeadChoiceCorrect.png","","","","","","","","","",""
"image-keyboard-response","220","478241","0.0-3.0-6.0-1.0-0.28","5d2e4267565e1200017efb42","6662009ae78f21dd82fcd179","66620939a4351551705574b9","291","","j","","","","","","","","./tasks/HMM-beads/Images/NewTrialWC.png","lowH","1","28","1","1","1","1","true","",""
"image-keyboard-response","221","478544","0.0-3.0-6.0-1.0-1.28","5d2e4267565e1200017efb42","6662009ae78f21dd82fcd179","66620939a4351551705574b9","null","","null","","","","","","","","./tasks/HMM-beads/Images/WhiteBeadChoice.png","","","","","","","","","",""
"image-keyboard-response","222","479058","0.0-3.0-6.0-1.0-2.28","5d2e4267565e1200017efb42","6662009ae78f21dd82fcd179","66620939a4351551705574b9","null","","null","","","","","","","","./tasks/HMM-beads/Images/WhiteBeadChoiceCorrect.png","","","","","","","","","",""
"image-keyboard-response","223","479168","0.0-3.0-6.0-1.0-0.29","5d2e4267565e1200017efb42","6662009ae78f21dd82fcd179","66620939a4351551705574b9","108","","j","","","","","","","","./tasks/HMM-beads/Images/NewTrialWC.png","lowH","1","29","1","1","1","1","true","",""
"image-keyboard-response","224","479485","0.0-3.0-6.0-1.0-1.29","5d2e4267565e1200017efb42","6662009ae78f21dd82fcd179","66620939a4351551705574b9","null","","null","","","","","","","","./tasks/HMM-beads/Images/WhiteBeadChoice.png","","","","","","","","","",""
"image-keyboard-response","225","479996","0.0-3.0-6.0-1.0-2.29","5d2e4267565e1200017efb42","6662009ae78f21dd82fcd179","66620939a4351551705574b9","null","","null","","","","","","","","./tasks/HMM-beads/Images/WhiteBeadChoiceCorrect.png","","","","","","","","","",""
"image-keyboard-response","226","480329","0.0-3.0-6.0-1.0-0.30","5d2e4267565e1200017efb42","6662009ae78f21dd82fcd179","66620939a4351551705574b9","331","","j","","","","","","","","./tasks/HMM-beads/Images/NewTrialWC.png","lowH","1","30","1","1","1","1","true","",""
"image-keyboard-response","227","480636","0.0-3.0-6.0-1.0-1.30","5d2e4267565e1200017efb42","6662009ae78f21dd82fcd179","66620939a4351551705574b9","null","","null","","","","","","","","./tasks/HMM-beads/Images/WhiteBeadChoice.png","","","","","","","","","",""
"image-keyboard-response","228","481152","0.0-3.0-6.0-1.0-2.30","5d2e4267565e1200017efb42","6662009ae78f21dd82fcd179","66620939a4351551705574b9","null","","null","","","","","","","","./tasks/HMM-beads/Images/WhiteBeadChoiceCorrect.png","","","","","","","","","",""
"image-keyboard-response","229","481481","0.0-3.0-6.0-1.0-0.31","5d2e4267565e1200017efb42","6662009ae78f21dd82fcd179","66620939a4351551705574b9","327","","j","","","","","","","","./tasks/HMM-beads/Images/NewTrialWC.png","lowH","1","31","1","1","1","1","true","",""
"image-keyboard-response","230","481794","0.0-3.0-6.0-1.0-1.31","5d2e4267565e1200017efb42","6662009ae78f21dd82fcd179","66620939a4351551705574b9","null","","null","","","","","","","","./tasks/HMM-beads/Images/WhiteBeadChoice.png","","","","","","","","","",""
"image-keyboard-response","231","482307","0.0-3.0-6.0-1.0-2.31","5d2e4267565e1200017efb42","6662009ae78f21dd82fcd179","66620939a4351551705574b9","null","","null","","","","","","","","./tasks/HMM-beads/Images/WhiteBeadChoiceCorrect.png","","","","","","","","","",""
"image-keyboard-response","232","482650","0.0-3.0-6.0-1.0-0.32","5d2e4267565e1200017efb42","6662009ae78f21dd82fcd179","66620939a4351551705574b9","342","","j","","","","","","","","./tasks/HMM-beads/Images/NewTrialWC.png","lowH","1","32","1","1","1","1","true","",""
"image-keyboard-response","233","482980","0.0-3.0-6.0-1.0-1.32","5d2e4267565e1200017efb42","6662009ae78f21dd82fcd179","66620939a4351551705574b9","null","","null","","","","","","","","./tasks/HMM-beads/Images/WhiteBeadChoice.png","","","","","","","","","",""
"image-keyboard-response","234","483497","0.0-3.0-6.0-1.0-2.32","5d2e4267565e1200017efb42","6662009ae78f21dd82fcd179","66620939a4351551705574b9","null","","null","","","","","","","","./tasks/HMM-beads/Images/WhiteBeadChoiceCorrect.png","","","","","","","","","",""
"image-keyboard-response","235","483905","0.0-3.0-6.0-1.0-0.33","5d2e4267565e1200017efb42","6662009ae78f21dd82fcd179","66620939a4351551705574b9","406","","j","","","","","","","","./tasks/HMM-beads/Images/NewTrialWC.png","lowH","1","33","1","1","1","1","true","",""
"image-keyboard-response","236","484215","0.0-3.0-6.0-1.0-1.33","5d2e4267565e1200017efb42","6662009ae78f21dd82fcd179","66620939a4351551705574b9","null","","null","","","","","","","","./tasks/HMM-beads/Images/WhiteBeadChoice.png","","","","","","","","","",""
"image-keyboard-response","237","484717","0.0-3.0-6.0-1.0-2.33","5d2e4267565e1200017efb42","6662009ae78f21dd82fcd179","66620939a4351551705574b9","null","","null","","","","","","","","./tasks/HMM-beads/Images/WhiteBeadChoiceCorrect.png","","","","","","","","","",""
"image-keyboard-response","238","485063","0.0-3.0-6.0-1.0-0.34","5d2e4267565e1200017efb42","6662009ae78f21dd82fcd179","66620939a4351551705574b9","346","","j","","","","","","","","./tasks/HMM-beads/Images/NewTrialWC.png","lowH","1","34","1","1","1","1","true","",""
"image-keyboard-response","239","485371","0.0-3.0-6.0-1.0-1.34","5d2e4267565e1200017efb42","6662009ae78f21dd82fcd179","66620939a4351551705574b9","null","","null","","","","","","","","./tasks/HMM-beads/Images/WhiteBeadChoice.png","","","","","","","","","",""
"image-keyboard-response","240","485887","0.0-3.0-6.0-1.0-2.34","5d2e4267565e1200017efb42","6662009ae78f21dd82fcd179","66620939a4351551705574b9","null","","null","","","","","","","","./tasks/HMM-beads/Images/WhiteBeadChoiceCorrect.png","","","","","","","","","",""
"image-keyboard-response","241","486273","0.0-3.0-6.0-1.0-0.35","5d2e4267565e1200017efb42","6662009ae78f21dd82fcd179","66620939a4351551705574b9","384","","j","","","","","","","","./tasks/HMM-beads/Images/NewTrialWC.png","lowH","1","35","1","1","1","1","true","",""
"image-keyboard-response","242","486590","0.0-3.0-6.0-1.0-1.35","5d2e4267565e1200017efb42","6662009ae78f21dd82fcd179","66620939a4351551705574b9","null","","null","","","","","","","","./tasks/HMM-beads/Images/WhiteBeadChoice.png","","","","","","","","","",""
"image-keyboard-response","243","487105","0.0-3.0-6.0-1.0-2.35","5d2e4267565e1200017efb42","6662009ae78f21dd82fcd179","66620939a4351551705574b9","null","","null","","","","","","","","./tasks/HMM-beads/Images/WhiteBeadChoiceCorrect.png","","","","","","","","","",""
"image-keyboard-response","244","487391","0.0-3.0-6.0-1.0-0.36","5d2e4267565e1200017efb42","6662009ae78f21dd82fcd179","66620939a4351551705574b9","285","","j","","","","","","","","./tasks/HMM-beads/Images/NewTrialWC.png","lowH","1","36","1","1","1","1","true","",""
"image-keyboard-response","245","487700","0.0-3.0-6.0-1.0-1.36","5d2e4267565e1200017efb42","6662009ae78f21dd82fcd179","66620939a4351551705574b9","null","","null","","","","","","","","./tasks/HMM-beads/Images/WhiteBeadChoice.png","","","","","","","","","",""
"image-keyboard-response","246","488215","0.0-3.0-6.0-1.0-2.36","5d2e4267565e1200017efb42","6662009ae78f21dd82fcd179","66620939a4351551705574b9","null","","null","","","","","","","","./tasks/HMM-beads/Images/WhiteBeadChoiceCorrect.png","","","","","","","","","",""
"image-keyboard-response","247","488544","0.0-3.0-6.0-1.0-0.37","5d2e4267565e1200017efb42","6662009ae78f21dd82fcd179","66620939a4351551705574b9","327","","j","","","","","","","","./tasks/HMM-beads/Images/NewTrialWC.png","lowH","1","37","1","1","1","1","true","",""
"image-keyboard-response","248","488855","0.0-3.0-6.0-1.0-1.37","5d2e4267565e1200017efb42","6662009ae78f21dd82fcd179","66620939a4351551705574b9","null","","null","","","","","","","","./tasks/HMM-beads/Images/WhiteBeadChoice.png","","","","","","","","","",""
"image-keyboard-response","249","489371","0.0-3.0-6.0-1.0-2.37","5d2e4267565e1200017efb42","6662009ae78f21dd82fcd179","66620939a4351551705574b9","null","","null","","","","","","","","./tasks/HMM-beads/Images/WhiteBeadChoiceCorrect.png","","","","","","","","","",""
"image-keyboard-response","250","490024","0.0-3.0-6.0-1.0-0.38","5d2e4267565e1200017efb42","6662009ae78f21dd82fcd179","66620939a4351551705574b9","652","","j","","","","","","","","./tasks/HMM-beads/Images/NewTrialWC.png","lowH","1","38","1","1","1","1","true","",""
"image-keyboard-response","251","490340","0.0-3.0-6.0-1.0-1.38","5d2e4267565e1200017efb42","6662009ae78f21dd82fcd179","66620939a4351551705574b9","null","","null","","","","","","","","./tasks/HMM-beads/Images/WhiteBeadChoice.png","","","","","","","","","",""
"image-keyboard-response","252","490841","0.0-3.0-6.0-1.0-2.38","5d2e4267565e1200017efb42","6662009ae78f21dd82fcd179","66620939a4351551705574b9","null","","null","","","","","","","","./tasks/HMM-beads/Images/WhiteBeadChoiceCorrect.png","","","","","","","","","",""
"image-keyboard-response","253","491071","0.0-3.0-6.0-1.0-0.39","5d2e4267565e1200017efb42","6662009ae78f21dd82fcd179","66620939a4351551705574b9","230","","j","","","","","","","","./tasks/HMM-beads/Images/NewTrialWC.png","lowH","1","39","1","1","1","1","true","",""
"image-keyboard-response","254","491372","0.0-3.0-6.0-1.0-1.39","5d2e4267565e1200017efb42","6662009ae78f21dd82fcd179","66620939a4351551705574b9","null","","null","","","","","","","","./tasks/HMM-beads/Images/WhiteBeadChoice.png","","","","","","","","","",""
"image-keyboard-response","255","492952","0.0-3.0-6.0-1.0-2.39","5d2e4267565e1200017efb42","6662009ae78f21dd82fcd179","66620939a4351551705574b9","null","","null","","","","","","","","./tasks/HMM-beads/Images/WhiteBeadChoiceCorrect.png","","","","","","","","","",""
"image-keyboard-response","256","494119","0.0-3.0-6.0-1.0-0.40","5d2e4267565e1200017efb42","6662009ae78f21dd82fcd179","66620939a4351551705574b9","1166","","j","","","","","","","","./tasks/HMM-beads/Images/NewTrialWC.png","lowH","1","40","1","1","1","1","true","",""
"image-keyboard-response","257","494434","0.0-3.0-6.0-1.0-1.40","5d2e4267565e1200017efb42","6662009ae78f21dd82fcd179","66620939a4351551705574b9","null","","null","","","","","","","","./tasks/HMM-beads/Images/WhiteBeadChoice.png","","","","","","","","","",""
"image-keyboard-response","258","494949","0.0-3.0-6.0-1.0-2.40","5d2e4267565e1200017efb42","6662009ae78f21dd82fcd179","66620939a4351551705574b9","null","","null","","","","","","","","./tasks/HMM-beads/Images/WhiteBeadChoiceCorrect.png","","","","","","","","","",""
"image-keyboard-response","259","495320","0.0-3.0-6.0-1.0-0.41","5d2e4267565e1200017efb42","6662009ae78f21dd82fcd179","66620939a4351551705574b9","368","","j","","","","","","","","./tasks/HMM-beads/Images/NewTrialWC.png","lowH","1","41","1","1","1","1","true","",""
"image-keyboard-response","260","495622","0.0-3.0-6.0-1.0-1.41","5d2e4267565e1200017efb42","6662009ae78f21dd82fcd179","66620939a4351551705574b9","null","","null","","","","","","","","./tasks/HMM-beads/Images/WhiteBeadChoice.png","","","","","","","","","",""
"image-keyboard-response","261","496137","0.0-3.0-6.0-1.0-2.41","5d2e4267565e1200017efb42","6662009ae78f21dd82fcd179","66620939a4351551705574b9","null","","null","","","","","","","","./tasks/HMM-beads/Images/WhiteBeadChoiceCorrect.png","","","","","","","","","",""
"image-keyboard-response","262","496561","0.0-3.0-6.0-1.0-0.42","5d2e4267565e1200017efb42","6662009ae78f21dd82fcd179","66620939a4351551705574b9","422","","j","","","","","","","","./tasks/HMM-beads/Images/NewTrialWC.png","lowH","1","42","1","1","1","1","true","",""
"image-keyboard-response","263","496872","0.0-3.0-6.0-1.0-1.42","5d2e4267565e1200017efb42","6662009ae78f21dd82fcd179","66620939a4351551705574b9","null","","null","","","","","","","","./tasks/HMM-beads/Images/WhiteBeadChoice.png","","","","","","","","","",""
"image-keyboard-response","264","497388","0.0-3.0-6.0-1.0-2.42","5d2e4267565e1200017efb42","6662009ae78f21dd82fcd179","66620939a4351551705574b9","null","","null","","","","","","","","./tasks/HMM-beads/Images/WhiteBeadChoiceCorrect.png","","","","","","","","","",""
"image-keyboard-response","265","497847","0.0-3.0-6.0-1.0-0.43","5d2e4267565e1200017efb42","6662009ae78f21dd82fcd179","66620939a4351551705574b9","459","","j","","","","","","","","./tasks/HMM-beads/Images/NewTrialWC.png","lowH","1","43","1","1","1","1","true","",""
"image-keyboard-response","266","498151","0.0-3.0-6.0-1.0-1.43","5d2e4267565e1200017efb42","6662009ae78f21dd82fcd179","66620939a4351551705574b9","null","","null","","","","","","","","./tasks/HMM-beads/Images/WhiteBeadChoice.png","","","","","","","","","",""
"image-keyboard-response","267","498660","0.0-3.0-6.0-1.0-2.43","5d2e4267565e1200017efb42","6662009ae78f21dd82fcd179","66620939a4351551705574b9","null","","null","","","","","","","","./tasks/HMM-beads/Images/WhiteBeadChoiceCorrect.png","","","","","","","","","",""
"image-keyboard-response","268","499033","0.0-3.0-6.0-1.0-0.44","5d2e4267565e1200017efb42","6662009ae78f21dd82fcd179","66620939a4351551705574b9","372","","j","","","","","","","","./tasks/HMM-beads/Images/NewTrialWC.png","lowH","1","44","1","1","1","1","true","",""
"image-keyboard-response","269","499341","0.0-3.0-6.0-1.0-1.44","5d2e4267565e1200017efb42","6662009ae78f21dd82fcd179","66620939a4351551705574b9","null","","null","","","","","","","","./tasks/HMM-beads/Images/WhiteBeadChoice.png","","","","","","","","","",""
"image-keyboard-response","270","499855","0.0-3.0-6.0-1.0-2.44","5d2e4267565e1200017efb42","6662009ae78f21dd82fcd179","66620939a4351551705574b9","null","","null","","","","","","","","./tasks/HMM-beads/Images/WhiteBeadChoiceCorrect.png","","","","","","","","","",""
"image-keyboard-response","271","500257","0.0-3.0-6.0-1.0-0.45","5d2e4267565e1200017efb42","6662009ae78f21dd82fcd179","66620939a4351551705574b9","401","","j","","","","","","","","./tasks/HMM-beads/Images/NewTrialWC.png","lowH","1","45","1","1","1","1","true","",""
"image-keyboard-response","272","500575","0.0-3.0-6.0-1.0-1.45","5d2e4267565e1200017efb42","6662009ae78f21dd82fcd179","66620939a4351551705574b9","null","","null","","","","","","","","./tasks/HMM-beads/Images/WhiteBeadChoice.png","","","","","","","","","",""
"image-keyboard-response","273","501087","0.0-3.0-6.0-1.0-2.45","5d2e4267565e1200017efb42","6662009ae78f21dd82fcd179","66620939a4351551705574b9","null","","null","","","","","","","","./tasks/HMM-beads/Images/WhiteBeadChoiceCorrect.png","","","","","","","","","",""
"image-keyboard-response","274","501472","0.0-3.0-6.0-1.0-0.46","5d2e4267565e1200017efb42","6662009ae78f21dd82fcd179","66620939a4351551705574b9","383","","j","","","","","","","","./tasks/HMM-beads/Images/NewTrialWC.png","lowH","1","46","1","1","1","1","true","",""
"image-keyboard-response","275","501777","0.0-3.0-6.0-1.0-1.46","5d2e4267565e1200017efb42","6662009ae78f21dd82fcd179","66620939a4351551705574b9","null","","null","","","","","","","","./tasks/HMM-beads/Images/WhiteBeadChoice.png","","","","","","","","","",""
"image-keyboard-response","276","502294","0.0-3.0-6.0-1.0-2.46","5d2e4267565e1200017efb42","6662009ae78f21dd82fcd179","66620939a4351551705574b9","null","","null","","","","","","","","./tasks/HMM-beads/Images/WhiteBeadChoiceCorrect.png","","","","","","","","","",""
"image-keyboard-response","277","503168","0.0-3.0-6.0-1.0-0.47","5d2e4267565e1200017efb42","6662009ae78f21dd82fcd179","66620939a4351551705574b9","872","","j","","","","","","","","./tasks/HMM-beads/Images/NewTrialWC.png","lowH","1","47","1","0","1","1","false","",""
"image-keyboard-response","278","504305","0.0-3.0-6.0-1.0-1.47","5d2e4267565e1200017efb42","6662009ae78f21dd82fcd179","66620939a4351551705574b9","null","","null","","","","","","","","./tasks/HMM-beads/Images/WhiteBeadChoice.png","","","","","","","","","",""
"image-keyboard-response","279","504814","0.0-3.0-6.0-1.0-2.47","5d2e4267565e1200017efb42","6662009ae78f21dd82fcd179","66620939a4351551705574b9","null","","null","","","","","","","","./tasks/HMM-beads/Images/WhiteBeadChoiceWrong.png","","","","","","","","","",""
"image-keyboard-response","280","506065","0.0-3.0-6.0-1.0-0.48","5d2e4267565e1200017efb42","6662009ae78f21dd82fcd179","66620939a4351551705574b9","1249","","j","","","","","","","","./tasks/HMM-beads/Images/NewTrialBC.png","lowH","1","48","1","0","0","1","false","",""
"image-keyboard-response","281","506374","0.0-3.0-6.0-1.0-1.48","5d2e4267565e1200017efb42","6662009ae78f21dd82fcd179","66620939a4351551705574b9","null","","null","","","","","","","","./tasks/HMM-beads/Images/WhiteBeadChoice.png","","","","","","","","","",""
"image-keyboard-response","282","506885","0.0-3.0-6.0-1.0-2.48","5d2e4267565e1200017efb42","6662009ae78f21dd82fcd179","66620939a4351551705574b9","null","","null","","","","","","","","./tasks/HMM-beads/Images/WhiteBeadChoiceWrong.png","","","","","","","","","",""
"image-keyboard-response","283","507217","0.0-3.0-6.0-1.0-0.49","5d2e4267565e1200017efb42","6662009ae78f21dd82fcd179","66620939a4351551705574b9","330","","j","","","","","","","","./tasks/HMM-beads/Images/NewTrialBC.png","lowH","1","49","1","0","0","1","false","",""
"image-keyboard-response","284","507525","0.0-3.0-6.0-1.0-1.49","5d2e4267565e1200017efb42","6662009ae78f21dd82fcd179","66620939a4351551705574b9","null","","null","","","","","","","","./tasks/HMM-beads/Images/WhiteBeadChoice.png","","","","","","","","","",""
"image-keyboard-response","285","508034","0.0-3.0-6.0-1.0-2.49","5d2e4267565e1200017efb42","6662009ae78f21dd82fcd179","66620939a4351551705574b9","null","","null","","","","","","","","./tasks/HMM-beads/Images/WhiteBeadChoiceWrong.png","","","","","","","","","",""
"image-keyboard-response","286","508665","0.0-3.0-6.0-1.0-0.50","5d2e4267565e1200017efb42","6662009ae78f21dd82fcd179","66620939a4351551705574b9","629","","j","","","","","","","","./tasks/HMM-beads/Images/NewTrialBC.png","lowH","1","50","1","1","0","1","true","",""
"image-keyboard-response","287","508975","0.0-3.0-6.0-1.0-1.50","5d2e4267565e1200017efb42","6662009ae78f21dd82fcd179","66620939a4351551705574b9","null","","null","","","","","","","","./tasks/HMM-beads/Images/WhiteBeadChoice.png","","","","","","","","","",""
"image-keyboard-response","288","509486","0.0-3.0-6.0-1.0-2.50","5d2e4267565e1200017efb42","6662009ae78f21dd82fcd179","66620939a4351551705574b9","null","","null","","","","","","","","./tasks/HMM-beads/Images/WhiteBeadChoiceCorrect.png","","","","","","","","","",""
"image-keyboard-response","289","509856","0.0-3.0-6.0-1.0-0.51","5d2e4267565e1200017efb42","6662009ae78f21dd82fcd179","66620939a4351551705574b9","369","","j","","","","","","","","./tasks/HMM-beads/Images/NewTrialWC.png","lowH","1","51","1","1","1","1","true","",""
"image-keyboard-response","290","510164","0.0-3.0-6.0-1.0-1.51","5d2e4267565e1200017efb42","6662009ae78f21dd82fcd179","66620939a4351551705574b9","null","","null","","","","","","","","./tasks/HMM-beads/Images/WhiteBeadChoice.png","","","","","","","","","",""
"image-keyboard-response","291","510674","0.0-3.0-6.0-1.0-2.51","5d2e4267565e1200017efb42","6662009ae78f21dd82fcd179","66620939a4351551705574b9","null","","null","","","","","","","","./tasks/HMM-beads/Images/WhiteBeadChoiceCorrect.png","","","","","","","","","",""
"image-keyboard-response","292","511135","0.0-3.0-6.0-1.0-0.52","5d2e4267565e1200017efb42","6662009ae78f21dd82fcd179","66620939a4351551705574b9","460","","j","","","","","","","","./tasks/HMM-beads/Images/NewTrialWC.png","lowH","1","52","1","1","1","1","true","",""
"image-keyboard-response","293","511444","0.0-3.0-6.0-1.0-1.52","5d2e4267565e1200017efb42","6662009ae78f21dd82fcd179","66620939a4351551705574b9","null","","null","","","","","","","","./tasks/HMM-beads/Images/WhiteBeadChoice.png","","","","","","","","","",""
"image-keyboard-response","294","511945","0.0-3.0-6.0-1.0-2.52","5d2e4267565e1200017efb42","6662009ae78f21dd82fcd179","66620939a4351551705574b9","null","","null","","","","","","","","./tasks/HMM-beads/Images/WhiteBeadChoiceCorrect.png","","","","","","","","","",""
"image-keyboard-response","295","512336","0.0-3.0-6.0-1.0-0.53","5d2e4267565e1200017efb42","6662009ae78f21dd82fcd179","66620939a4351551705574b9","389","","j","","","","","","","","./tasks/HMM-beads/Images/NewTrialWC.png","lowH","1","53","1","1","1","1","true","",""
"image-keyboard-response","296","512644","0.0-3.0-6.0-1.0-1.53","5d2e4267565e1200017efb42","6662009ae78f21dd82fcd179","66620939a4351551705574b9","null","","null","","","","","","","","./tasks/HMM-beads/Images/WhiteBeadChoice.png","","","","","","","","","",""
"image-keyboard-response","297","513155","0.0-3.0-6.0-1.0-2.53","5d2e4267565e1200017efb42","6662009ae78f21dd82fcd179","66620939a4351551705574b9","null","","null","","","","","","","","./tasks/HMM-beads/Images/WhiteBeadChoiceCorrect.png","","","","","","","","","",""
"image-keyboard-response","298","513487","0.0-3.0-6.0-1.0-0.54","5d2e4267565e1200017efb42","6662009ae78f21dd82fcd179","66620939a4351551705574b9","332","","j","","","","","","","","./tasks/HMM-beads/Images/NewTrialWC.png","lowH","1","54","1","1","1","1","true","",""
"image-keyboard-response","299","513795","0.0-3.0-6.0-1.0-1.54","5d2e4267565e1200017efb42","6662009ae78f21dd82fcd179","66620939a4351551705574b9","null","","null","","","","","","","","./tasks/HMM-beads/Images/WhiteBeadChoice.png","","","","","","","","","",""
"image-keyboard-response","300","514296","0.0-3.0-6.0-1.0-2.54","5d2e4267565e1200017efb42","6662009ae78f21dd82fcd179","66620939a4351551705574b9","null","","null","","","","","","","","./tasks/HMM-beads/Images/WhiteBeadChoiceCorrect.png","","","","","","","","","",""
"image-keyboard-response","301","514720","0.0-3.0-6.0-1.0-0.55","5d2e4267565e1200017efb42","6662009ae78f21dd82fcd179","66620939a4351551705574b9","423","","j","","","","","","","","./tasks/HMM-beads/Images/NewTrialWC.png","lowH","1","55","1","1","1","1","true","",""
"image-keyboard-response","302","515025","0.0-3.0-6.0-1.0-1.55","5d2e4267565e1200017efb42","6662009ae78f21dd82fcd179","66620939a4351551705574b9","null","","null","","","","","","","","./tasks/HMM-beads/Images/WhiteBeadChoice.png","","","","","","","","","",""
"image-keyboard-response","303","515536","0.0-3.0-6.0-1.0-2.55","5d2e4267565e1200017efb42","6662009ae78f21dd82fcd179","66620939a4351551705574b9","null","","null","","","","","","","","./tasks/HMM-beads/Images/WhiteBeadChoiceCorrect.png","","","","","","","","","",""
"image-keyboard-response","304","516392","0.0-3.0-6.0-1.0-0.56","5d2e4267565e1200017efb42","6662009ae78f21dd82fcd179","66620939a4351551705574b9","854","","j","","","","","","","","./tasks/HMM-beads/Images/NewTrialWC.png","lowH","1","56","1","1","1","1","true","",""
"image-keyboard-response","305","516695","0.0-3.0-6.0-1.0-1.56","5d2e4267565e1200017efb42","6662009ae78f21dd82fcd179","66620939a4351551705574b9","null","","null","","","","","","","","./tasks/HMM-beads/Images/WhiteBeadChoice.png","","","","","","","","","",""
"image-keyboard-response","306","517204","0.0-3.0-6.0-1.0-2.56","5d2e4267565e1200017efb42","6662009ae78f21dd82fcd179","66620939a4351551705574b9","null","","null","","","","","","","","./tasks/HMM-beads/Images/WhiteBeadChoiceCorrect.png","","","","","","","","","",""
"image-keyboard-response","307","518001","0.0-3.0-6.0-1.0-0.57","5d2e4267565e1200017efb42","6662009ae78f21dd82fcd179","66620939a4351551705574b9","794","","j","","","","","","","","./tasks/HMM-beads/Images/NewTrialWC.png","lowH","1","57","1","1","1","1","true","",""
"image-keyboard-response","308","518306","0.0-3.0-6.0-1.0-1.57","5d2e4267565e1200017efb42","6662009ae78f21dd82fcd179","66620939a4351551705574b9","null","","null","","","","","","","","./tasks/HMM-beads/Images/WhiteBeadChoice.png","","","","","","","","","",""
"image-keyboard-response","309","518814","0.0-3.0-6.0-1.0-2.57","5d2e4267565e1200017efb42","6662009ae78f21dd82fcd179","66620939a4351551705574b9","null","","null","","","","","","","","./tasks/HMM-beads/Images/WhiteBeadChoiceCorrect.png","","","","","","","","","",""
"image-keyboard-response","310","519553","0.0-3.0-6.0-1.0-0.58","5d2e4267565e1200017efb42","6662009ae78f21dd82fcd179","66620939a4351551705574b9","737","","j","","","","","","","","./tasks/HMM-beads/Images/NewTrialWC.png","lowH","1","58","1","1","1","1","true","",""
"image-keyboard-response","311","519865","0.0-3.0-6.0-1.0-1.58","5d2e4267565e1200017efb42","6662009ae78f21dd82fcd179","66620939a4351551705574b9","null","","null","","","","","","","","./tasks/HMM-beads/Images/WhiteBeadChoice.png","","","","","","","","","",""
"image-keyboard-response","312","520374","0.0-3.0-6.0-1.0-2.58","5d2e4267565e1200017efb42","6662009ae78f21dd82fcd179","66620939a4351551705574b9","null","","null","","","","","","","","./tasks/HMM-beads/Images/WhiteBeadChoiceCorrect.png","","","","","","","","","",""
"image-keyboard-response","313","521040","0.0-3.0-6.0-1.0-0.59","5d2e4267565e1200017efb42","6662009ae78f21dd82fcd179","66620939a4351551705574b9","665","","j","","","","","","","","./tasks/HMM-beads/Images/NewTrialWC.png","lowH","1","59","1","0","1","1","false","",""
"image-keyboard-response","314","521344","0.0-3.0-6.0-1.0-1.59","5d2e4267565e1200017efb42","6662009ae78f21dd82fcd179","66620939a4351551705574b9","null","","null","","","","","","","","./tasks/HMM-beads/Images/WhiteBeadChoice.png","","","","","","","","","",""
"image-keyboard-response","315","521854","0.0-3.0-6.0-1.0-2.59","5d2e4267565e1200017efb42","6662009ae78f21dd82fcd179","66620939a4351551705574b9","null","","null","","","","","","","","./tasks/HMM-beads/Images/WhiteBeadChoiceWrong.png","","","","","","","","","",""
"image-keyboard-response","316","522391","0.0-3.0-6.0-1.0-0.60","5d2e4267565e1200017efb42","6662009ae78f21dd82fcd179","66620939a4351551705574b9","536","","j","","","","","","","","./tasks/HMM-beads/Images/NewTrialBC.png","lowH","1","60","1","1","0","1","true","",""
"image-keyboard-response","317","522695","0.0-3.0-6.0-1.0-1.60","5d2e4267565e1200017efb42","6662009ae78f21dd82fcd179","66620939a4351551705574b9","null","","null","","","","","","","","./tasks/HMM-beads/Images/WhiteBeadChoice.png","","","","","","","","","",""
"image-keyboard-response","318","523204","0.0-3.0-6.0-1.0-2.60","5d2e4267565e1200017efb42","6662009ae78f21dd82fcd179","66620939a4351551705574b9","null","","null","","","","","","","","./tasks/HMM-beads/Images/WhiteBeadChoiceCorrect.png","","","","","","","","","",""
"image-keyboard-response","319","523839","0.0-3.0-6.0-1.0-0.61","5d2e4267565e1200017efb42","6662009ae78f21dd82fcd179","66620939a4351551705574b9","634","","j","","","","","","","","./tasks/HMM-beads/Images/NewTrialWC.png","lowH","1","61","1","1","1","1","true","",""
"image-keyboard-response","320","524146","0.0-3.0-6.0-1.0-1.61","5d2e4267565e1200017efb42","6662009ae78f21dd82fcd179","66620939a4351551705574b9","null","","null","","","","","","","","./tasks/HMM-beads/Images/WhiteBeadChoice.png","","","","","","","","","",""
"image-keyboard-response","321","524655","0.0-3.0-6.0-1.0-2.61","5d2e4267565e1200017efb42","6662009ae78f21dd82fcd179","66620939a4351551705574b9","null","","null","","","","","","","","./tasks/HMM-beads/Images/WhiteBeadChoiceCorrect.png","","","","","","","","","",""
"image-keyboard-response","322","525839","0.0-3.0-6.0-1.0-0.62","5d2e4267565e1200017efb42","6662009ae78f21dd82fcd179","66620939a4351551705574b9","1184","","j","","","","","","","","./tasks/HMM-beads/Images/NewTrialWC.png","lowH","1","62","1","0","1","1","false","",""
"image-keyboard-response","323","526145","0.0-3.0-6.0-1.0-1.62","5d2e4267565e1200017efb42","6662009ae78f21dd82fcd179","66620939a4351551705574b9","null","","null","","","","","","","","./tasks/HMM-beads/Images/WhiteBeadChoice.png","","","","","","","","","",""
"image-keyboard-response","324","526654","0.0-3.0-6.0-1.0-2.62","5d2e4267565e1200017efb42","6662009ae78f21dd82fcd179","66620939a4351551705574b9","null","","null","","","","","","","","./tasks/HMM-beads/Images/WhiteBeadChoiceWrong.png","","","","","","","","","",""
"image-keyboard-response","325","527071","0.0-3.0-6.0-1.0-0.63","5d2e4267565e1200017efb42","6662009ae78f21dd82fcd179","66620939a4351551705574b9","416","","j","","","","","","","","./tasks/HMM-beads/Images/NewTrialBC.png","lowH","1","63","1","1","0","1","true","",""
"image-keyboard-response","326","527375","0.0-3.0-6.0-1.0-1.63","5d2e4267565e1200017efb42","6662009ae78f21dd82fcd179","66620939a4351551705574b9","null","","null","","","","","","","","./tasks/HMM-beads/Images/WhiteBeadChoice.png","","","","","","","","","",""
"image-keyboard-response","327","527884","0.0-3.0-6.0-1.0-2.63","5d2e4267565e1200017efb42","6662009ae78f21dd82fcd179","66620939a4351551705574b9","null","","null","","","","","","","","./tasks/HMM-beads/Images/WhiteBeadChoiceCorrect.png","","","","","","","","","",""
"image-keyboard-response","328","528527","0.0-3.0-6.0-1.0-0.64","5d2e4267565e1200017efb42","6662009ae78f21dd82fcd179","66620939a4351551705574b9","642","","j","","","","","","","","./tasks/HMM-beads/Images/NewTrialWC.png","lowH","1","64","1","1","1","1","true","",""
"image-keyboard-response","329","528835","0.0-3.0-6.0-1.0-1.64","5d2e4267565e1200017efb42","6662009ae78f21dd82fcd179","66620939a4351551705574b9","null","","null","","","","","","","","./tasks/HMM-beads/Images/WhiteBeadChoice.png","","","","","","","","","",""
"image-keyboard-response","330","529345","0.0-3.0-6.0-1.0-2.64","5d2e4267565e1200017efb42","6662009ae78f21dd82fcd179","66620939a4351551705574b9","null","","null","","","","","","","","./tasks/HMM-beads/Images/WhiteBeadChoiceCorrect.png","","","","","","","","","",""
"image-keyboard-response","331","529583","0.0-3.0-6.0-1.0-0.65","5d2e4267565e1200017efb42","6662009ae78f21dd82fcd179","66620939a4351551705574b9","237","","j","","","","","","","","./tasks/HMM-beads/Images/NewTrialWC.png","lowH","1","65","1","1","1","1","true","",""
"image-keyboard-response","332","529884","0.0-3.0-6.0-1.0-1.65","5d2e4267565e1200017efb42","6662009ae78f21dd82fcd179","66620939a4351551705574b9","null","","null","","","","","","","","./tasks/HMM-beads/Images/WhiteBeadChoice.png","","","","","","","","","",""
"image-keyboard-response","333","530395","0.0-3.0-6.0-1.0-2.65","5d2e4267565e1200017efb42","6662009ae78f21dd82fcd179","66620939a4351551705574b9","null","","null","","","","","","","","./tasks/HMM-beads/Images/WhiteBeadChoiceCorrect.png","","","","","","","","","",""
"image-keyboard-response","334","531039","0.0-3.0-6.0-1.0-0.66","5d2e4267565e1200017efb42","6662009ae78f21dd82fcd179","66620939a4351551705574b9","644","","j","","","","","","","","./tasks/HMM-beads/Images/NewTrialWC.png","lowH","1","66","1","1","1","1","true","",""
"image-keyboard-response","335","531345","0.0-3.0-6.0-1.0-1.66","5d2e4267565e1200017efb42","6662009ae78f21dd82fcd179","66620939a4351551705574b9","null","","null","","","","","","","","./tasks/HMM-beads/Images/WhiteBeadChoice.png","","","","","","","","","",""
"image-keyboard-response","336","531855","0.0-3.0-6.0-1.0-2.66","5d2e4267565e1200017efb42","6662009ae78f21dd82fcd179","66620939a4351551705574b9","null","","null","","","","","","","","./tasks/HMM-beads/Images/WhiteBeadChoiceCorrect.png","","","","","","","","","",""
"image-keyboard-response","337","532328","0.0-3.0-6.0-1.0-0.67","5d2e4267565e1200017efb42","6662009ae78f21dd82fcd179","66620939a4351551705574b9","471","","j","","","","","","","","./tasks/HMM-beads/Images/NewTrialWC.png","lowH","1","67","1","0","1","1","false","",""
"image-keyboard-response","338","532635","0.0-3.0-6.0-1.0-1.67","5d2e4267565e1200017efb42","6662009ae78f21dd82fcd179","66620939a4351551705574b9","null","","null","","","","","","","","./tasks/HMM-beads/Images/WhiteBeadChoice.png","","","","","","","","","",""
"image-keyboard-response","339","533144","0.0-3.0-6.0-1.0-2.67","5d2e4267565e1200017efb42","6662009ae78f21dd82fcd179","66620939a4351551705574b9","null","","null","","","","","","","","./tasks/HMM-beads/Images/WhiteBeadChoiceWrong.png","","","","","","","","","",""
"image-keyboard-response","340","533681","0.0-3.0-6.0-1.0-0.68","5d2e4267565e1200017efb42","6662009ae78f21dd82fcd179","66620939a4351551705574b9","535","","j","","","","","","","","./tasks/HMM-beads/Images/NewTrialBC.png","lowH","1","68","1","1","0","1","true","",""
"image-keyboard-response","341","533986","0.0-3.0-6.0-1.0-1.68","5d2e4267565e1200017efb42","6662009ae78f21dd82fcd179","66620939a4351551705574b9","null","","null","","","","","","","","./tasks/HMM-beads/Images/WhiteBeadChoice.png","","","","","","","","","",""
"image-keyboard-response","342","534494","0.0-3.0-6.0-1.0-2.68","5d2e4267565e1200017efb42","6662009ae78f21dd82fcd179","66620939a4351551705574b9","null","","null","","","","","","","","./tasks/HMM-beads/Images/WhiteBeadChoiceCorrect.png","","","","","","","","","",""
"image-keyboard-response","343","534945","0.0-3.0-6.0-1.0-0.69","5d2e4267565e1200017efb42","6662009ae78f21dd82fcd179","66620939a4351551705574b9","449","","j","","","","","","","","./tasks/HMM-beads/Images/NewTrialWC.png","lowH","1","69","0","1","1","1","true","",""
"image-keyboard-response","344","535254","0.0-3.0-6.0-1.0-1.69","5d2e4267565e1200017efb42","6662009ae78f21dd82fcd179","66620939a4351551705574b9","null","","null","","","","","","","","./tasks/HMM-beads/Images/WhiteBeadChoice.png","","","","","","","","","",""
"image-keyboard-response","345","535766","0.0-3.0-6.0-1.0-2.69","5d2e4267565e1200017efb42","6662009ae78f21dd82fcd179","66620939a4351551705574b9","null","","null","","","","","","","","./tasks/HMM-beads/Images/WhiteBeadChoiceCorrect.png","","","","","","","","","",""
"image-keyboard-response","346","536296","0.0-3.0-6.0-1.0-0.70","5d2e4267565e1200017efb42","6662009ae78f21dd82fcd179","66620939a4351551705574b9","528","","j","","","","","","","","./tasks/HMM-beads/Images/NewTrialWC.png","lowH","1","70","0","1","1","1","true","",""
"image-keyboard-response","347","536604","0.0-3.0-6.0-1.0-1.70","5d2e4267565e1200017efb42","6662009ae78f21dd82fcd179","66620939a4351551705574b9","null","","null","","","","","","","","./tasks/HMM-beads/Images/WhiteBeadChoice.png","","","","","","","","","",""
"image-keyboard-response","348","537105","0.0-3.0-6.0-1.0-2.70","5d2e4267565e1200017efb42","6662009ae78f21dd82fcd179","66620939a4351551705574b9","null","","null","","","","","","","","./tasks/HMM-beads/Images/WhiteBeadChoiceCorrect.png","","","","","","","","","",""
"image-keyboard-response","349","537361","0.0-3.0-6.0-1.0-0.71","5d2e4267565e1200017efb42","6662009ae78f21dd82fcd179","66620939a4351551705574b9","253","","j","","","","","","","","./tasks/HMM-beads/Images/NewTrialWC.png","lowH","1","71","0","0","1","1","false","",""
"image-keyboard-response","350","537664","0.0-3.0-6.0-1.0-1.71","5d2e4267565e1200017efb42","6662009ae78f21dd82fcd179","66620939a4351551705574b9","null","","null","","","","","","","","./tasks/HMM-beads/Images/WhiteBeadChoice.png","","","","","","","","","",""
"image-keyboard-response","351","538175","0.0-3.0-6.0-1.0-2.71","5d2e4267565e1200017efb42","6662009ae78f21dd82fcd179","66620939a4351551705574b9","null","","null","","","","","","","","./tasks/HMM-beads/Images/WhiteBeadChoiceWrong.png","","","","","","","","","",""
"image-keyboard-response","352","538585","0.0-3.0-6.0-1.0-0.72","5d2e4267565e1200017efb42","6662009ae78f21dd82fcd179","66620939a4351551705574b9","409","","j","","","","","","","","./tasks/HMM-beads/Images/NewTrialBC.png","lowH","1","72","0","0","0","1","false","",""
"image-keyboard-response","353","538895","0.0-3.0-6.0-1.0-1.72","5d2e4267565e1200017efb42","6662009ae78f21dd82fcd179","66620939a4351551705574b9","null","","null","","","","","","","","./tasks/HMM-beads/Images/WhiteBeadChoice.png","","","","","","","","","",""
"image-keyboard-response","354","539404","0.0-3.0-6.0-1.0-2.72","5d2e4267565e1200017efb42","6662009ae78f21dd82fcd179","66620939a4351551705574b9","null","","null","","","","","","","","./tasks/HMM-beads/Images/WhiteBeadChoiceWrong.png","","","","","","","","","",""
"image-keyboard-response","355","539760","0.0-3.0-6.0-1.0-0.73","5d2e4267565e1200017efb42","6662009ae78f21dd82fcd179","66620939a4351551705574b9","354","","j","","","","","","","","./tasks/HMM-beads/Images/NewTrialBC.png","lowH","1","73","0","1","0","1","true","",""
"image-keyboard-response","356","540064","0.0-3.0-6.0-1.0-1.73","5d2e4267565e1200017efb42","6662009ae78f21dd82fcd179","66620939a4351551705574b9","null","","null","","","","","","","","./tasks/HMM-beads/Images/WhiteBeadChoice.png","","","","","","","","","",""
"image-keyboard-response","357","540575","0.0-3.0-6.0-1.0-2.73","5d2e4267565e1200017efb42","6662009ae78f21dd82fcd179","66620939a4351551705574b9","null","","null","","","","","","","","./tasks/HMM-beads/Images/WhiteBeadChoiceCorrect.png","","","","","","","","","",""
"image-keyboard-response","358","540993","0.0-3.0-6.0-1.0-0.74","5d2e4267565e1200017efb42","6662009ae78f21dd82fcd179","66620939a4351551705574b9","417","","j","","","","","","","","./tasks/HMM-beads/Images/NewTrialWC.png","lowH","1","74","0","0","1","1","false","",""
"image-keyboard-response","359","541295","0.0-3.0-6.0-1.0-1.74","5d2e4267565e1200017efb42","6662009ae78f21dd82fcd179","66620939a4351551705574b9","null","","null","","","","","","","","./tasks/HMM-beads/Images/WhiteBeadChoice.png","","","","","","","","","",""
"image-keyboard-response","360","541804","0.0-3.0-6.0-1.0-2.74","5d2e4267565e1200017efb42","6662009ae78f21dd82fcd179","66620939a4351551705574b9","null","","null","","","","","","","","./tasks/HMM-beads/Images/WhiteBeadChoiceWrong.png","","","","","","","","","",""
"image-keyboard-response","361","542089","0.0-3.0-6.0-1.0-0.75","5d2e4267565e1200017efb42","6662009ae78f21dd82fcd179","66620939a4351551705574b9","282","","j","","","","","","","","./tasks/HMM-beads/Images/NewTrialBC.png","lowH","1","75","0","1","0","1","true","",""
"image-keyboard-response","362","542394","0.0-3.0-6.0-1.0-1.75","5d2e4267565e1200017efb42","6662009ae78f21dd82fcd179","66620939a4351551705574b9","null","","null","","","","","","","","./tasks/HMM-beads/Images/WhiteBeadChoice.png","","","","","","","","","",""
"image-keyboard-response","363","542906","0.0-3.0-6.0-1.0-2.75","5d2e4267565e1200017efb42","6662009ae78f21dd82fcd179","66620939a4351551705574b9","null","","null","","","","","","","","./tasks/HMM-beads/Images/WhiteBeadChoiceCorrect.png","","","","","","","","","",""
"image-keyboard-response","364","543231","0.0-3.0-6.0-1.0-0.76","5d2e4267565e1200017efb42","6662009ae78f21dd82fcd179","66620939a4351551705574b9","325","","j","","","","","","","","./tasks/HMM-beads/Images/NewTrialWC.png","lowH","1","76","0","1","1","1","true","",""
"image-keyboard-response","365","543534","0.0-3.0-6.0-1.0-1.76","5d2e4267565e1200017efb42","6662009ae78f21dd82fcd179","66620939a4351551705574b9","null","","null","","","","","","","","./tasks/HMM-beads/Images/WhiteBeadChoice.png","","","","","","","","","",""
"image-keyboard-response","366","544045","0.0-3.0-6.0-1.0-2.76","5d2e4267565e1200017efb42","6662009ae78f21dd82fcd179","66620939a4351551705574b9","null","","null","","","","","","","","./tasks/HMM-beads/Images/WhiteBeadChoiceCorrect.png","","","","","","","","","",""
"image-keyboard-response","367","544479","0.0-3.0-6.0-1.0-0.77","5d2e4267565e1200017efb42","6662009ae78f21dd82fcd179","66620939a4351551705574b9","433","","j","","","","","","","","./tasks/HMM-beads/Images/NewTrialWC.png","lowH","1","77","0","0","1","1","false","",""
"image-keyboard-response","368","544784","0.0-3.0-6.0-1.0-1.77","5d2e4267565e1200017efb42","6662009ae78f21dd82fcd179","66620939a4351551705574b9","null","","null","","","","","","","","./tasks/HMM-beads/Images/WhiteBeadChoice.png","","","","","","","","","",""
"image-keyboard-response","369","545294","0.0-3.0-6.0-1.0-2.77","5d2e4267565e1200017efb42","6662009ae78f21dd82fcd179","66620939a4351551705574b9","null","","null","","","","","","","","./tasks/HMM-beads/Images/WhiteBeadChoiceWrong.png","","","","","","","","","",""
"image-keyboard-response","370","545528","0.0-3.0-6.0-1.0-0.78","5d2e4267565e1200017efb42","6662009ae78f21dd82fcd179","66620939a4351551705574b9","232","","j","","","","","","","","./tasks/HMM-beads/Images/NewTrialBC.png","lowH","1","78","0","0","0","1","false","",""
"image-keyboard-response","371","545835","0.0-3.0-6.0-1.0-1.78","5d2e4267565e1200017efb42","6662009ae78f21dd82fcd179","66620939a4351551705574b9","null","","null","","","","","","","","./tasks/HMM-beads/Images/WhiteBeadChoice.png","","","","","","","","","",""
"image-keyboard-response","372","546344","0.0-3.0-6.0-1.0-2.78","5d2e4267565e1200017efb42","6662009ae78f21dd82fcd179","66620939a4351551705574b9","null","","null","","","","","","","","./tasks/HMM-beads/Images/WhiteBeadChoiceWrong.png","","","","","","","","","",""
"image-keyboard-response","373","546872","0.0-3.0-6.0-1.0-0.79","5d2e4267565e1200017efb42","6662009ae78f21dd82fcd179","66620939a4351551705574b9","527","","j","","","","","","","","./tasks/HMM-beads/Images/NewTrialBC.png","lowH","1","79","0","0","0","1","false","",""
"image-keyboard-response","374","547175","0.0-3.0-6.0-1.0-1.79","5d2e4267565e1200017efb42","6662009ae78f21dd82fcd179","66620939a4351551705574b9","null","","null","","","","","","","","./tasks/HMM-beads/Images/WhiteBeadChoice.png","","","","","","","","","",""
