"trial_type","trial_index","time_elapsed","internal_node_id","subject_id","study_id","session_id","rt","url","response","question_order","view_history","success","timeout","failed_images","failed_audio","failed_video","stimulus","block","block_rep","trial_number","jar","bead","previous_bead","choice","correct","lowH_score","total_bonus"
"pavlovia","0","1069","0.0-0.0","5e6033dbfb4665381e27f2fc","6662009ae78f21dd82fcd179","66620d156bd723c39068f897","","","","","","","","","","","","","","","","","","","","",""
"external-html","1","5101","0.0-1.0-0.0","5e6033dbfb4665381e27f2fc","6662009ae78f21dd82fcd179","66620d156bd723c39068f897","3869","new_consent.html","","","","","","","","","","","","","","","","","","",""
"survey-multi-choice","2","9419","0.0-1.0-1.0","5e6033dbfb4665381e27f2fc","6662009ae78f21dd82fcd179","66620d156bd723c39068f897","4315","","{""Q0"":""Female"",""Q1"":""White""}","[0,1]","","","","","","","","","","","","","","","","",""
"survey-text","3","12903","0.0-1.0-2.0","5e6033dbfb4665381e27f2fc","6662009ae78f21dd82fcd179","66620d156bd723c39068f897","3478","","{""Q0"":""42""}","","","","","","","","","","","","","","","","","",""
"instructions","4","14035","0.0-2.0","5e6033dbfb4665381e27f2fc","6662009ae78f21dd82fcd179","66620d156bd723c39068f897","1029","","","","[{""page_index"":0,""viewing_time"":1028}]","","","","","","","","","","","","","","","",""
"preload","5","14997","0.0-3.0-0.0","5e6033dbfb4665381e27f2fc","6662009ae78f21dd82fcd179","66620d156bd723c39068f897","","","","","","true","false","[]","[]","[]","","","","","","","","","","",""
"instructions","6","105801","0.0-3.0-1.0","5e6033dbfb4665381e27f2fc","6662009ae78f21dd82fcd179","66620d156bd723c39068f897","90805","","","","[{""page_index"":0,""viewing_time"":12004},{""page_index"":1,""viewing_time"":5466},{""page_index"":2,""viewing_time"":3550},{""page_index"":3,""viewing_time"":2167},{""page_index"":4,""viewing_time"":8434},{""page_index"":5,""viewing_time"":24350},{""page_index"":6,""viewing_time"":7417},{""page_index"":7,""viewing_time"":4634},{""page_index"":8,""viewing_time"":7950},{""page_index"":9,""viewing_time"":7284},{""page_index"":10,""viewing_time"":6183},{""page_index"":11,""viewing_time"":1366}]","","","","","","","","","","","","","","","",""
"html-button-response","7","108717","0.0-3.0-2.0-0.0-0.0","5e6033dbfb4665381e27f2fc","6662009ae78f21dd82fcd179","66620d156bd723c39068f897","2914","","1","","","","","","","","<div align=center>Your goal is to predict…?<br><br></div>","","","","","","","","","",""
"html-button-response","8","116051","0.0-3.0-2.0-1.0-0.0","5e6033dbfb4665381e27f2fc","6662009ae78f21dd82fcd179","66620d156bd723c39068f897","5664","","2","","","","","","","","<div align=center>In the jar with mostly white beads, there are ___% white beads and ___% black beads?<br><br></div>","","","","","","","","","",""
"html-button-response","9","123969","0.0-3.0-2.0-2.0-0.0","5e6033dbfb4665381e27f2fc","6662009ae78f21dd82fcd179","66620d156bd723c39068f897","6532","","0","","","","","","","","<div align=center>When there is a 1% probability that the jars will switch, the next bead will most likely be drawn from the…<br><br></div>","","","","","","","","","",""
"html-button-response","10","127135","0.0-3.0-2.0-3.0-0.0","5e6033dbfb4665381e27f2fc","6662009ae78f21dd82fcd179","66620d156bd723c39068f897","1848","","1","","","","","","","","<div align=center>When there is a 99% probability that the jars will switch, the next bead will most likely be drawn from the…<br><br></div>","","","","","","","","","",""
"instructions","11","138318","0.0-3.0-3.0","5e6033dbfb4665381e27f2fc","6662009ae78f21dd82fcd179","66620d156bd723c39068f897","9733","","","","[{""page_index"":0,""viewing_time"":9732}]","","","","","","","","","","","","","","","",""
"html-keyboard-response","12","144002","0.0-3.0-4.0-0.0","5e6033dbfb4665381e27f2fc","6662009ae78f21dd82fcd179","66620d156bd723c39068f897","5681",""," ","","","","","","","","<div align=center>In this practice block, there will be a <b>1% chance</b> that the jar on the next trial will be different from the jar on the current trial.<br><br></div>","","","","","","","","","",""
"image-keyboard-response","13","148808","0.0-3.0-4.0-1.0-0.0","5e6033dbfb4665381e27f2fc","6662009ae78f21dd82fcd179","66620d156bd723c39068f897","4802","","f","","","","","","","","./tasks/HMM-beads/Images/NoChoice.png","practice","0","0","0","0","9","0","true","",""
"image-keyboard-response","14","149113","0.0-3.0-4.0-1.0-1.0","5e6033dbfb4665381e27f2fc","6662009ae78f21dd82fcd179","66620d156bd723c39068f897","null","","null","","","","","","","","./tasks/HMM-beads/Images/BlackBeadChoice.png","","","","","","","","","",""
"image-keyboard-response","15","149617","0.0-3.0-4.0-1.0-2.0","5e6033dbfb4665381e27f2fc","6662009ae78f21dd82fcd179","66620d156bd723c39068f897","null","","null","","","","","","","","./tasks/HMM-beads/Images/BlackBeadChoiceCorrect.png","","","","","","","","","",""
"image-keyboard-response","16","153846","0.0-3.0-4.0-1.0-0.1","5e6033dbfb4665381e27f2fc","6662009ae78f21dd82fcd179","66620d156bd723c39068f897","4226","","f","","","","","","","","./tasks/HMM-beads/Images/NewTrialBC.png","practice","0","1","0","0","0","0","true","",""
"image-keyboard-response","17","154150","0.0-3.0-4.0-1.0-1.1","5e6033dbfb4665381e27f2fc","6662009ae78f21dd82fcd179","66620d156bd723c39068f897","null","","null","","","","","","","","./tasks/HMM-beads/Images/BlackBeadChoice.png","","","","","","","","","",""
"image-keyboard-response","18","154653","0.0-3.0-4.0-1.0-2.1","5e6033dbfb4665381e27f2fc","6662009ae78f21dd82fcd179","66620d156bd723c39068f897","null","","null","","","","","","","","./tasks/HMM-beads/Images/BlackBeadChoiceCorrect.png","","","","","","","","","",""
"image-keyboard-response","19","159262","0.0-3.0-4.0-1.0-0.2","5e6033dbfb4665381e27f2fc","6662009ae78f21dd82fcd179","66620d156bd723c39068f897","4607","","f","","","","","","","","./tasks/HMM-beads/Images/NewTrialBC.png","practice","0","2","0","1","0","0","false","",""
"image-keyboard-response","20","159565","0.0-3.0-4.0-1.0-1.2","5e6033dbfb4665381e27f2fc","6662009ae78f21dd82fcd179","66620d156bd723c39068f897","null","","null","","","","","","","","./tasks/HMM-beads/Images/BlackBeadChoice.png","","","","","","","","","",""
"image-keyboard-response","21","160069","0.0-3.0-4.0-1.0-2.2","5e6033dbfb4665381e27f2fc","6662009ae78f21dd82fcd179","66620d156bd723c39068f897","null","","null","","","","","","","","./tasks/HMM-beads/Images/BlackBeadChoiceWrong.png","","","","","","","","","",""
"image-keyboard-response","22","165746","0.0-3.0-4.0-1.0-0.3","5e6033dbfb4665381e27f2fc","6662009ae78f21dd82fcd179","66620d156bd723c39068f897","5675","","f","","","","","","","","./tasks/HMM-beads/Images/NewTrialWC.png","practice","0","3","0","0","1","0","true","",""
"image-keyboard-response","23","166049","0.0-3.0-4.0-1.0-1.3","5e6033dbfb4665381e27f2fc","6662009ae78f21dd82fcd179","66620d156bd723c39068f897","null","","null","","","","","","","","./tasks/HMM-beads/Images/BlackBeadChoice.png","","","","","","","","","",""
"image-keyboard-response","24","166552","0.0-3.0-4.0-1.0-2.3","5e6033dbfb4665381e27f2fc","6662009ae78f21dd82fcd179","66620d156bd723c39068f897","null","","null","","","","","","","","./tasks/HMM-beads/Images/BlackBeadChoiceCorrect.png","","","","","","","","","",""
"image-keyboard-response","25","167248","0.0-3.0-4.0-1.0-0.4","5e6033dbfb4665381e27f2fc","6662009ae78f21dd82fcd179","66620d156bd723c39068f897","693","","f","","","","","","","","./tasks/HMM-beads/Images/NewTrialBC.png","practice","0","4","0","0","0","0","true","",""
"image-keyboard-response","26","167552","0.0-3.0-4.0-1.0-1.4","5e6033dbfb4665381e27f2fc","6662009ae78f21dd82fcd179","66620d156bd723c39068f897","null","","null","","","","","","","","./tasks/HMM-beads/Images/BlackBeadChoice.png","","","","","","","","","",""
"image-keyboard-response","27","168056","0.0-3.0-4.0-1.0-2.4","5e6033dbfb4665381e27f2fc","6662009ae78f21dd82fcd179","66620d156bd723c39068f897","null","","null","","","","","","","","./tasks/HMM-beads/Images/BlackBeadChoiceCorrect.png","","","","","","","","","",""
"image-keyboard-response","28","168495","0.0-3.0-4.0-1.0-0.5","5e6033dbfb4665381e27f2fc","6662009ae78f21dd82fcd179","66620d156bd723c39068f897","438","","f","","","","","","","","./tasks/HMM-beads/Images/NewTrialBC.png","practice","0","5","0","1","0","0","false","",""
"image-keyboard-response","29","168799","0.0-3.0-4.0-1.0-1.5","5e6033dbfb4665381e27f2fc","6662009ae78f21dd82fcd179","66620d156bd723c39068f897","null","","null","","","","","","","","./tasks/HMM-beads/Images/BlackBeadChoice.png","","","","","","","","","",""
"image-keyboard-response","30","169302","0.0-3.0-4.0-1.0-2.5","5e6033dbfb4665381e27f2fc","6662009ae78f21dd82fcd179","66620d156bd723c39068f897","null","","null","","","","","","","","./tasks/HMM-beads/Images/BlackBeadChoiceWrong.png","","","","","","","","","",""
"image-keyboard-response","31","169637","0.0-3.0-4.0-1.0-0.6","5e6033dbfb4665381e27f2fc","6662009ae78f21dd82fcd179","66620d156bd723c39068f897","332","","f","","","","","","","","./tasks/HMM-beads/Images/NewTrialWC.png","practice","0","6","0","0","1","0","true","",""
"image-keyboard-response","32","169941","0.0-3.0-4.0-1.0-1.6","5e6033dbfb4665381e27f2fc","6662009ae78f21dd82fcd179","66620d156bd723c39068f897","null","","null","","","","","","","","./tasks/HMM-beads/Images/BlackBeadChoice.png","","","","","","","","","",""
"image-keyboard-response","33","170444","0.0-3.0-4.0-1.0-2.6","5e6033dbfb4665381e27f2fc","6662009ae78f21dd82fcd179","66620d156bd723c39068f897","null","","null","","","","","","","","./tasks/HMM-beads/Images/BlackBeadChoiceCorrect.png","","","","","","","","","",""
"image-keyboard-response","34","170748","0.0-3.0-4.0-1.0-0.7","5e6033dbfb4665381e27f2fc","6662009ae78f21dd82fcd179","66620d156bd723c39068f897","302","","f","","","","","","","","./tasks/HMM-beads/Images/NewTrialBC.png","practice","0","7","0","0","0","0","true","",""
"image-keyboard-response","35","171051","0.0-3.0-4.0-1.0-1.7","5e6033dbfb4665381e27f2fc","6662009ae78f21dd82fcd179","66620d156bd723c39068f897","null","","null","","","","","","","","./tasks/HMM-beads/Images/BlackBeadChoice.png","","","","","","","","","",""
"image-keyboard-response","36","171554","0.0-3.0-4.0-1.0-2.7","5e6033dbfb4665381e27f2fc","6662009ae78f21dd82fcd179","66620d156bd723c39068f897","null","","null","","","","","","","","./tasks/HMM-beads/Images/BlackBeadChoiceCorrect.png","","","","","","","","","",""
"image-keyboard-response","37","171886","0.0-3.0-4.0-1.0-0.8","5e6033dbfb4665381e27f2fc","6662009ae78f21dd82fcd179","66620d156bd723c39068f897","330","","f","","","","","","","","./tasks/HMM-beads/Images/NewTrialBC.png","practice","0","8","0","0","0","0","true","",""
"image-keyboard-response","38","172190","0.0-3.0-4.0-1.0-1.8","5e6033dbfb4665381e27f2fc","6662009ae78f21dd82fcd179","66620d156bd723c39068f897","null","","null","","","","","","","","./tasks/HMM-beads/Images/BlackBeadChoice.png","","","","","","","","","",""
"image-keyboard-response","39","172693","0.0-3.0-4.0-1.0-2.8","5e6033dbfb4665381e27f2fc","6662009ae78f21dd82fcd179","66620d156bd723c39068f897","null","","null","","","","","","","","./tasks/HMM-beads/Images/BlackBeadChoiceCorrect.png","","","","","","","","","",""
"image-keyboard-response","40","172941","0.0-3.0-4.0-1.0-0.9","5e6033dbfb4665381e27f2fc","6662009ae78f21dd82fcd179","66620d156bd723c39068f897","246","","f","","","","","","","","./tasks/HMM-beads/Images/NewTrialBC.png","practice","0","9","0","1","0","0","false","",""
"image-keyboard-response","41","173244","0.0-3.0-4.0-1.0-1.9","5e6033dbfb4665381e27f2fc","6662009ae78f21dd82fcd179","66620d156bd723c39068f897","null","","null","","","","","","","","./tasks/HMM-beads/Images/BlackBeadChoice.png","","","","","","","","","",""
"image-keyboard-response","42","173748","0.0-3.0-4.0-1.0-2.9","5e6033dbfb4665381e27f2fc","6662009ae78f21dd82fcd179","66620d156bd723c39068f897","null","","null","","","","","","","","./tasks/HMM-beads/Images/BlackBeadChoiceWrong.png","","","","","","","","","",""
"image-keyboard-response","43","174152","0.0-3.0-4.0-1.0-0.10","5e6033dbfb4665381e27f2fc","6662009ae78f21dd82fcd179","66620d156bd723c39068f897","401","","f","","","","","","","","./tasks/HMM-beads/Images/NewTrialWC.png","practice","0","10","0","0","1","0","true","",""
"image-keyboard-response","44","174456","0.0-3.0-4.0-1.0-1.10","5e6033dbfb4665381e27f2fc","6662009ae78f21dd82fcd179","66620d156bd723c39068f897","null","","null","","","","","","","","./tasks/HMM-beads/Images/BlackBeadChoice.png","","","","","","","","","",""
"image-keyboard-response","45","174958","0.0-3.0-4.0-1.0-2.10","5e6033dbfb4665381e27f2fc","6662009ae78f21dd82fcd179","66620d156bd723c39068f897","null","","null","","","","","","","","./tasks/HMM-beads/Images/BlackBeadChoiceCorrect.png","","","","","","","","","",""
"image-keyboard-response","46","175247","0.0-3.0-4.0-1.0-0.11","5e6033dbfb4665381e27f2fc","6662009ae78f21dd82fcd179","66620d156bd723c39068f897","287","","f","","","","","","","","./tasks/HMM-beads/Images/NewTrialBC.png","practice","0","11","0","1","0","0","false","",""
"image-keyboard-response","47","175550","0.0-3.0-4.0-1.0-1.11","5e6033dbfb4665381e27f2fc","6662009ae78f21dd82fcd179","66620d156bd723c39068f897","null","","null","","","","","","","","./tasks/HMM-beads/Images/BlackBeadChoice.png","","","","","","","","","",""
"image-keyboard-response","48","176054","0.0-3.0-4.0-1.0-2.11","5e6033dbfb4665381e27f2fc","6662009ae78f21dd82fcd179","66620d156bd723c39068f897","null","","null","","","","","","","","./tasks/HMM-beads/Images/BlackBeadChoiceWrong.png","","","","","","","","","",""
"image-keyboard-response","49","178050","0.0-3.0-4.0-1.0-0.12","5e6033dbfb4665381e27f2fc","6662009ae78f21dd82fcd179","66620d156bd723c39068f897","1994","","f","","","","","","","","./tasks/HMM-beads/Images/NewTrialWC.png","practice","0","12","0","0","1","0","true","",""
"image-keyboard-response","50","178354","0.0-3.0-4.0-1.0-1.12","5e6033dbfb4665381e27f2fc","6662009ae78f21dd82fcd179","66620d156bd723c39068f897","null","","null","","","","","","","","./tasks/HMM-beads/Images/BlackBeadChoice.png","","","","","","","","","",""
"image-keyboard-response","51","178859","0.0-3.0-4.0-1.0-2.12","5e6033dbfb4665381e27f2fc","6662009ae78f21dd82fcd179","66620d156bd723c39068f897","null","","null","","","","","","","","./tasks/HMM-beads/Images/BlackBeadChoiceCorrect.png","","","","","","","","","",""
"image-keyboard-response","52","179257","0.0-3.0-4.0-1.0-0.13","5e6033dbfb4665381e27f2fc","6662009ae78f21dd82fcd179","66620d156bd723c39068f897","396","","f","","","","","","","","./tasks/HMM-beads/Images/NewTrialBC.png","practice","0","13","0","0","0","0","true","",""
"image-keyboard-response","53","179559","0.0-3.0-4.0-1.0-1.13","5e6033dbfb4665381e27f2fc","6662009ae78f21dd82fcd179","66620d156bd723c39068f897","null","","null","","","","","","","","./tasks/HMM-beads/Images/BlackBeadChoice.png","","","","","","","","","",""
"image-keyboard-response","54","180063","0.0-3.0-4.0-1.0-2.13","5e6033dbfb4665381e27f2fc","6662009ae78f21dd82fcd179","66620d156bd723c39068f897","null","","null","","","","","","","","./tasks/HMM-beads/Images/BlackBeadChoiceCorrect.png","","","","","","","","","",""
"image-keyboard-response","55","180473","0.0-3.0-4.0-1.0-0.14","5e6033dbfb4665381e27f2fc","6662009ae78f21dd82fcd179","66620d156bd723c39068f897","408","","f","","","","","","","","./tasks/HMM-beads/Images/NewTrialBC.png","practice","0","14","0","0","0","0","true","",""
"image-keyboard-response","56","180776","0.0-3.0-4.0-1.0-1.14","5e6033dbfb4665381e27f2fc","6662009ae78f21dd82fcd179","66620d156bd723c39068f897","null","","null","","","","","","","","./tasks/HMM-beads/Images/BlackBeadChoice.png","","","","","","","","","",""
"image-keyboard-response","57","181281","0.0-3.0-4.0-1.0-2.14","5e6033dbfb4665381e27f2fc","6662009ae78f21dd82fcd179","66620d156bd723c39068f897","null","","null","","","","","","","","./tasks/HMM-beads/Images/BlackBeadChoiceCorrect.png","","","","","","","","","",""
"image-keyboard-response","58","183274","0.0-3.0-4.0-1.0-0.15","5e6033dbfb4665381e27f2fc","6662009ae78f21dd82fcd179","66620d156bd723c39068f897","1991","","j","","","","","","","","./tasks/HMM-beads/Images/NewTrialBC.png","practice","0","15","0","0","0","1","false","",""
"image-keyboard-response","59","183576","0.0-3.0-4.0-1.0-1.15","5e6033dbfb4665381e27f2fc","6662009ae78f21dd82fcd179","66620d156bd723c39068f897","null","","null","","","","","","","","./tasks/HMM-beads/Images/WhiteBeadChoice.png","","","","","","","","","",""
"image-keyboard-response","60","184080","0.0-3.0-4.0-1.0-2.15","5e6033dbfb4665381e27f2fc","6662009ae78f21dd82fcd179","66620d156bd723c39068f897","null","","null","","","","","","","","./tasks/HMM-beads/Images/WhiteBeadChoiceWrong.png","","","","","","","","","",""
"image-keyboard-response","61","184960","0.0-3.0-4.0-1.0-0.16","5e6033dbfb4665381e27f2fc","6662009ae78f21dd82fcd179","66620d156bd723c39068f897","878","","f","","","","","","","","./tasks/HMM-beads/Images/NewTrialBC.png","practice","0","16","0","0","0","0","true","",""
"image-keyboard-response","62","185264","0.0-3.0-4.0-1.0-1.16","5e6033dbfb4665381e27f2fc","6662009ae78f21dd82fcd179","66620d156bd723c39068f897","null","","null","","","","","","","","./tasks/HMM-beads/Images/BlackBeadChoice.png","","","","","","","","","",""
"image-keyboard-response","63","185767","0.0-3.0-4.0-1.0-2.16","5e6033dbfb4665381e27f2fc","6662009ae78f21dd82fcd179","66620d156bd723c39068f897","null","","null","","","","","","","","./tasks/HMM-beads/Images/BlackBeadChoiceCorrect.png","","","","","","","","","",""
"image-keyboard-response","64","186074","0.0-3.0-4.0-1.0-0.17","5e6033dbfb4665381e27f2fc","6662009ae78f21dd82fcd179","66620d156bd723c39068f897","305","","f","","","","","","","","./tasks/HMM-beads/Images/NewTrialBC.png","practice","0","17","0","0","0","0","true","",""
"image-keyboard-response","65","186376","0.0-3.0-4.0-1.0-1.17","5e6033dbfb4665381e27f2fc","6662009ae78f21dd82fcd179","66620d156bd723c39068f897","null","","null","","","","","","","","./tasks/HMM-beads/Images/BlackBeadChoice.png","","","","","","","","","",""
"image-keyboard-response","66","186880","0.0-3.0-4.0-1.0-2.17","5e6033dbfb4665381e27f2fc","6662009ae78f21dd82fcd179","66620d156bd723c39068f897","null","","null","","","","","","","","./tasks/HMM-beads/Images/BlackBeadChoiceCorrect.png","","","","","","","","","",""
"image-keyboard-response","67","187274","0.0-3.0-4.0-1.0-0.18","5e6033dbfb4665381e27f2fc","6662009ae78f21dd82fcd179","66620d156bd723c39068f897","392","","f","","","","","","","","./tasks/HMM-beads/Images/NewTrialBC.png","practice","0","18","0","1","0","0","false","",""
"image-keyboard-response","68","187578","0.0-3.0-4.0-1.0-1.18","5e6033dbfb4665381e27f2fc","6662009ae78f21dd82fcd179","66620d156bd723c39068f897","null","","null","","","","","","","","./tasks/HMM-beads/Images/BlackBeadChoice.png","","","","","","","","","",""
"image-keyboard-response","69","188081","0.0-3.0-4.0-1.0-2.18","5e6033dbfb4665381e27f2fc","6662009ae78f21dd82fcd179","66620d156bd723c39068f897","null","","null","","","","","","","","./tasks/HMM-beads/Images/BlackBeadChoiceWrong.png","","","","","","","","","",""
"image-keyboard-response","70","188702","0.0-3.0-4.0-1.0-0.19","5e6033dbfb4665381e27f2fc","6662009ae78f21dd82fcd179","66620d156bd723c39068f897","618","","f","","","","","","","","./tasks/HMM-beads/Images/NewTrialWC.png","practice","0","19","0","0","1","0","true","",""
"image-keyboard-response","71","189005","0.0-3.0-4.0-1.0-1.19","5e6033dbfb4665381e27f2fc","6662009ae78f21dd82fcd179","66620d156bd723c39068f897","null","","null","","","","","","","","./tasks/HMM-beads/Images/BlackBeadChoice.png","","","","","","","","","",""
"image-keyboard-response","72","189509","0.0-3.0-4.0-1.0-2.19","5e6033dbfb4665381e27f2fc","6662009ae78f21dd82fcd179","66620d156bd723c39068f897","null","","null","","","","","","","","./tasks/HMM-beads/Images/BlackBeadChoiceCorrect.png","","","","","","","","","",""
"image-keyboard-response","73","189840","0.0-3.0-4.0-1.0-0.20","5e6033dbfb4665381e27f2fc","6662009ae78f21dd82fcd179","66620d156bd723c39068f897","330","","f","","","","","","","","./tasks/HMM-beads/Images/NewTrialBC.png","practice","0","20","0","0","0","0","true","",""
"image-keyboard-response","74","190143","0.0-3.0-4.0-1.0-1.20","5e6033dbfb4665381e27f2fc","6662009ae78f21dd82fcd179","66620d156bd723c39068f897","null","","null","","","","","","","","./tasks/HMM-beads/Images/BlackBeadChoice.png","","","","","","","","","",""
"image-keyboard-response","75","190647","0.0-3.0-4.0-1.0-2.20","5e6033dbfb4665381e27f2fc","6662009ae78f21dd82fcd179","66620d156bd723c39068f897","null","","null","","","","","","","","./tasks/HMM-beads/Images/BlackBeadChoiceCorrect.png","","","","","","","","","",""
"image-keyboard-response","76","190874","0.0-3.0-4.0-1.0-0.21","5e6033dbfb4665381e27f2fc","6662009ae78f21dd82fcd179","66620d156bd723c39068f897","226","","f","","","","","","","","./tasks/HMM-beads/Images/NewTrialBC.png","practice","0","21","0","1","0","0","false","",""
"image-keyboard-response","77","191178","0.0-3.0-4.0-1.0-1.21","5e6033dbfb4665381e27f2fc","6662009ae78f21dd82fcd179","66620d156bd723c39068f897","null","","null","","","","","","","","./tasks/HMM-beads/Images/BlackBeadChoice.png","","","","","","","","","",""
"image-keyboard-response","78","191682","0.0-3.0-4.0-1.0-2.21","5e6033dbfb4665381e27f2fc","6662009ae78f21dd82fcd179","66620d156bd723c39068f897","null","","null","","","","","","","","./tasks/HMM-beads/Images/BlackBeadChoiceWrong.png","","","","","","","","","",""
"image-keyboard-response","79","192622","0.0-3.0-4.0-1.0-0.22","5e6033dbfb4665381e27f2fc","6662009ae78f21dd82fcd179","66620d156bd723c39068f897","937","","f","","","","","","","","./tasks/HMM-beads/Images/NewTrialWC.png","practice","0","22","1","1","1","0","false","",""
"image-keyboard-response","80","192925","0.0-3.0-4.0-1.0-1.22","5e6033dbfb4665381e27f2fc","6662009ae78f21dd82fcd179","66620d156bd723c39068f897","null","","null","","","","","","","","./tasks/HMM-beads/Images/BlackBeadChoice.png","","","","","","","","","",""
"image-keyboard-response","81","193429","0.0-3.0-4.0-1.0-2.22","5e6033dbfb4665381e27f2fc","6662009ae78f21dd82fcd179","66620d156bd723c39068f897","null","","null","","","","","","","","./tasks/HMM-beads/Images/BlackBeadChoiceWrong.png","","","","","","","","","",""
"image-keyboard-response","82","194057","0.0-3.0-4.0-1.0-0.23","5e6033dbfb4665381e27f2fc","6662009ae78f21dd82fcd179","66620d156bd723c39068f897","627","","f","","","","","","","","./tasks/HMM-beads/Images/NewTrialWC.png","practice","0","23","1","0","1","0","true","",""
"image-keyboard-response","83","194361","0.0-3.0-4.0-1.0-1.23","5e6033dbfb4665381e27f2fc","6662009ae78f21dd82fcd179","66620d156bd723c39068f897","null","","null","","","","","","","","./tasks/HMM-beads/Images/BlackBeadChoice.png","","","","","","","","","",""
"image-keyboard-response","84","194864","0.0-3.0-4.0-1.0-2.23","5e6033dbfb4665381e27f2fc","6662009ae78f21dd82fcd179","66620d156bd723c39068f897","null","","null","","","","","","","","./tasks/HMM-beads/Images/BlackBeadChoiceCorrect.png","","","","","","","","","",""
"image-keyboard-response","85","195199","0.0-3.0-4.0-1.0-0.24","5e6033dbfb4665381e27f2fc","6662009ae78f21dd82fcd179","66620d156bd723c39068f897","333","","f","","","","","","","","./tasks/HMM-beads/Images/NewTrialBC.png","practice","0","24","1","1","0","0","false","",""
"image-keyboard-response","86","195502","0.0-3.0-4.0-1.0-1.24","5e6033dbfb4665381e27f2fc","6662009ae78f21dd82fcd179","66620d156bd723c39068f897","null","","null","","","","","","","","./tasks/HMM-beads/Images/BlackBeadChoice.png","","","","","","","","","",""
"image-keyboard-response","87","196006","0.0-3.0-4.0-1.0-2.24","5e6033dbfb4665381e27f2fc","6662009ae78f21dd82fcd179","66620d156bd723c39068f897","null","","null","","","","","","","","./tasks/HMM-beads/Images/BlackBeadChoiceWrong.png","","","","","","","","","",""
"image-keyboard-response","88","196321","0.0-3.0-4.0-1.0-0.25","5e6033dbfb4665381e27f2fc","6662009ae78f21dd82fcd179","66620d156bd723c39068f897","313","","f","","","","","","","","./tasks/HMM-beads/Images/NewTrialWC.png","practice","0","25","1","1","1","0","false","",""
"image-keyboard-response","89","196625","0.0-3.0-4.0-1.0-1.25","5e6033dbfb4665381e27f2fc","6662009ae78f21dd82fcd179","66620d156bd723c39068f897","null","","null","","","","","","","","./tasks/HMM-beads/Images/BlackBeadChoice.png","","","","","","","","","",""
"image-keyboard-response","90","197128","0.0-3.0-4.0-1.0-2.25","5e6033dbfb4665381e27f2fc","6662009ae78f21dd82fcd179","66620d156bd723c39068f897","null","","null","","","","","","","","./tasks/HMM-beads/Images/BlackBeadChoiceWrong.png","","","","","","","","","",""
"image-keyboard-response","91","197403","0.0-3.0-4.0-1.0-0.26","5e6033dbfb4665381e27f2fc","6662009ae78f21dd82fcd179","66620d156bd723c39068f897","272","","f","","","","","","","","./tasks/HMM-beads/Images/NewTrialWC.png","practice","0","26","1","1","1","0","false","",""
"image-keyboard-response","92","197707","0.0-3.0-4.0-1.0-1.26","5e6033dbfb4665381e27f2fc","6662009ae78f21dd82fcd179","66620d156bd723c39068f897","null","","null","","","","","","","","./tasks/HMM-beads/Images/BlackBeadChoice.png","","","","","","","","","",""
"image-keyboard-response","93","198210","0.0-3.0-4.0-1.0-2.26","5e6033dbfb4665381e27f2fc","6662009ae78f21dd82fcd179","66620d156bd723c39068f897","null","","null","","","","","","","","./tasks/HMM-beads/Images/BlackBeadChoiceWrong.png","","","","","","","","","",""
"image-keyboard-response","94","199168","0.0-3.0-4.0-1.0-0.27","5e6033dbfb4665381e27f2fc","6662009ae78f21dd82fcd179","66620d156bd723c39068f897","956","","f","","","","","","","","./tasks/HMM-beads/Images/NewTrialWC.png","practice","0","27","1","1","1","0","false","",""
"image-keyboard-response","95","199472","0.0-3.0-4.0-1.0-1.27","5e6033dbfb4665381e27f2fc","6662009ae78f21dd82fcd179","66620d156bd723c39068f897","null","","null","","","","","","","","./tasks/HMM-beads/Images/BlackBeadChoice.png","","","","","","","","","",""
"image-keyboard-response","96","199976","0.0-3.0-4.0-1.0-2.27","5e6033dbfb4665381e27f2fc","6662009ae78f21dd82fcd179","66620d156bd723c39068f897","null","","null","","","","","","","","./tasks/HMM-beads/Images/BlackBeadChoiceWrong.png","","","","","","","","","",""
"image-keyboard-response","97","200368","0.0-3.0-4.0-1.0-0.28","5e6033dbfb4665381e27f2fc","6662009ae78f21dd82fcd179","66620d156bd723c39068f897","390","","j","","","","","","","","./tasks/HMM-beads/Images/NewTrialWC.png","practice","0","28","1","0","1","1","false","",""
"image-keyboard-response","98","200670","0.0-3.0-4.0-1.0-1.28","5e6033dbfb4665381e27f2fc","6662009ae78f21dd82fcd179","66620d156bd723c39068f897","null","","null","","","","","","","","./tasks/HMM-beads/Images/WhiteBeadChoice.png","","","","","","","","","",""
"image-keyboard-response","99","201174","0.0-3.0-4.0-1.0-2.28","5e6033dbfb4665381e27f2fc","6662009ae78f21dd82fcd179","66620d156bd723c39068f897","null","","null","","","","","","","","./tasks/HMM-beads/Images/WhiteBeadChoiceWrong.png","","","","","","","","","",""
"image-keyboard-response","100","201448","0.0-3.0-4.0-1.0-0.29","5e6033dbfb4665381e27f2fc","6662009ae78f21dd82fcd179","66620d156bd723c39068f897","272","","f","","","","","","","","./tasks/HMM-beads/Images/NewTrialBC.png","practice","0","29","1","1","0","0","false","",""
"image-keyboard-response","101","201750","0.0-3.0-4.0-1.0-1.29","5e6033dbfb4665381e27f2fc","6662009ae78f21dd82fcd179","66620d156bd723c39068f897","null","","null","","","","","","","","./tasks/HMM-beads/Images/BlackBeadChoice.png","","","","","","","","","",""
"image-keyboard-response","102","202254","0.0-3.0-4.0-1.0-2.29","5e6033dbfb4665381e27f2fc","6662009ae78f21dd82fcd179","66620d156bd723c39068f897","null","","null","","","","","","","","./tasks/HMM-beads/Images/BlackBeadChoiceWrong.png","","","","","","","","","",""
"image-keyboard-response","103","202506","0.0-3.0-4.0-1.0-0.30","5e6033dbfb4665381e27f2fc","6662009ae78f21dd82fcd179","66620d156bd723c39068f897","250","","j","","","","","","","","./tasks/HMM-beads/Images/NewTrialWC.png","practice","0","30","1","0","1","1","false","",""
"image-keyboard-response","104","202810","0.0-3.0-4.0-1.0-1.30","5e6033dbfb4665381e27f2fc","6662009ae78f21dd82fcd179","66620d156bd723c39068f897","null","","null","","","","","","","","./tasks/HMM-beads/Images/WhiteBeadChoice.png","","","","","","","","","",""
"image-keyboard-response","105","203313","0.0-3.0-4.0-1.0-2.30","5e6033dbfb4665381e27f2fc","6662009ae78f21dd82fcd179","66620d156bd723c39068f897","null","","null","","","","","","","","./tasks/HMM-beads/Images/WhiteBeadChoiceWrong.png","","","","","","","","","",""
"image-keyboard-response","106","203777","0.0-3.0-4.0-1.0-0.31","5e6033dbfb4665381e27f2fc","6662009ae78f21dd82fcd179","66620d156bd723c39068f897","462","","f","","","","","","","","./tasks/HMM-beads/Images/NewTrialBC.png","practice","0","31","1","1","0","0","false","",""
"image-keyboard-response","107","204080","0.0-3.0-4.0-1.0-1.31","5e6033dbfb4665381e27f2fc","6662009ae78f21dd82fcd179","66620d156bd723c39068f897","null","","null","","","","","","","","./tasks/HMM-beads/Images/BlackBeadChoice.png","","","","","","","","","",""
"image-keyboard-response","108","204584","0.0-3.0-4.0-1.0-2.31","5e6033dbfb4665381e27f2fc","6662009ae78f21dd82fcd179","66620d156bd723c39068f897","null","","null","","","","","","","","./tasks/HMM-beads/Images/BlackBeadChoiceWrong.png","","","","","","","","","",""
"image-keyboard-response","109","204900","0.0-3.0-4.0-1.0-0.32","5e6033dbfb4665381e27f2fc","6662009ae78f21dd82fcd179","66620d156bd723c39068f897","314","","f","","","","","","","","./tasks/HMM-beads/Images/NewTrialWC.png","practice","0","32","1","1","1","0","false","",""
"image-keyboard-response","110","205204","0.0-3.0-4.0-1.0-1.32","5e6033dbfb4665381e27f2fc","6662009ae78f21dd82fcd179","66620d156bd723c39068f897","null","","null","","","","","","","","./tasks/HMM-beads/Images/BlackBeadChoice.png","","","","","","","","","",""
"image-keyboard-response","111","205707","0.0-3.0-4.0-1.0-2.32","5e6033dbfb4665381e27f2fc","6662009ae78f21dd82fcd179","66620d156bd723c39068f897","null","","null","","","","","","","","./tasks/HMM-beads/Images/BlackBeadChoiceWrong.png","","","","","","","","","",""
"image-keyboard-response","112","206042","0.0-3.0-4.0-1.0-0.33","5e6033dbfb4665381e27f2fc","6662009ae78f21dd82fcd179","66620d156bd723c39068f897","333","","f","","","","","","","","./tasks/HMM-beads/Images/NewTrialWC.png","practice","0","33","1","1","1","0","false","",""
"image-keyboard-response","113","206346","0.0-3.0-4.0-1.0-1.33","5e6033dbfb4665381e27f2fc","6662009ae78f21dd82fcd179","66620d156bd723c39068f897","null","","null","","","","","","","","./tasks/HMM-beads/Images/BlackBeadChoice.png","","","","","","","","","",""
"image-keyboard-response","114","206849","0.0-3.0-4.0-1.0-2.33","5e6033dbfb4665381e27f2fc","6662009ae78f21dd82fcd179","66620d156bd723c39068f897","null","","null","","","","","","","","./tasks/HMM-beads/Images/BlackBeadChoiceWrong.png","","","","","","","","","",""
"image-keyboard-response","115","207185","0.0-3.0-4.0-1.0-0.34","5e6033dbfb4665381e27f2fc","6662009ae78f21dd82fcd179","66620d156bd723c39068f897","333","","j","","","","","","","","./tasks/HMM-beads/Images/NewTrialWC.png","practice","0","34","1","1","1","1","true","",""
"image-keyboard-response","116","207488","0.0-3.0-4.0-1.0-1.34","5e6033dbfb4665381e27f2fc","6662009ae78f21dd82fcd179","66620d156bd723c39068f897","null","","null","","","","","","","","./tasks/HMM-beads/Images/WhiteBeadChoice.png","","","","","","","","","",""
"image-keyboard-response","117","207992","0.0-3.0-4.0-1.0-2.34","5e6033dbfb4665381e27f2fc","6662009ae78f21dd82fcd179","66620d156bd723c39068f897","null","","null","","","","","","","","./tasks/HMM-beads/Images/WhiteBeadChoiceCorrect.png","","","","","","","","","",""
"image-keyboard-response","118","208337","0.0-3.0-4.0-1.0-0.35","5e6033dbfb4665381e27f2fc","6662009ae78f21dd82fcd179","66620d156bd723c39068f897","343","","j","","","","","","","","./tasks/HMM-beads/Images/NewTrialWC.png","practice","0","35","1","1","1","1","true","",""
"image-keyboard-response","119","208641","0.0-3.0-4.0-1.0-1.35","5e6033dbfb4665381e27f2fc","6662009ae78f21dd82fcd179","66620d156bd723c39068f897","null","","null","","","","","","","","./tasks/HMM-beads/Images/WhiteBeadChoice.png","","","","","","","","","",""
"image-keyboard-response","120","209144","0.0-3.0-4.0-1.0-2.35","5e6033dbfb4665381e27f2fc","6662009ae78f21dd82fcd179","66620d156bd723c39068f897","null","","null","","","","","","","","./tasks/HMM-beads/Images/WhiteBeadChoiceCorrect.png","","","","","","","","","",""
"image-keyboard-response","121","209399","0.0-3.0-4.0-1.0-0.36","5e6033dbfb4665381e27f2fc","6662009ae78f21dd82fcd179","66620d156bd723c39068f897","252","","j","","","","","","","","./tasks/HMM-beads/Images/NewTrialWC.png","practice","0","36","1","0","1","1","false","",""
"image-keyboard-response","122","209703","0.0-3.0-4.0-1.0-1.36","5e6033dbfb4665381e27f2fc","6662009ae78f21dd82fcd179","66620d156bd723c39068f897","null","","null","","","","","","","","./tasks/HMM-beads/Images/WhiteBeadChoice.png","","","","","","","","","",""
"image-keyboard-response","123","210207","0.0-3.0-4.0-1.0-2.36","5e6033dbfb4665381e27f2fc","6662009ae78f21dd82fcd179","66620d156bd723c39068f897","null","","null","","","","","","","","./tasks/HMM-beads/Images/WhiteBeadChoiceWrong.png","","","","","","","","","",""
"image-keyboard-response","124","210614","0.0-3.0-4.0-1.0-0.37","5e6033dbfb4665381e27f2fc","6662009ae78f21dd82fcd179","66620d156bd723c39068f897","405","","j","","","","","","","","./tasks/HMM-beads/Images/NewTrialBC.png","practice","0","37","1","1","0","1","true","",""
"image-keyboard-response","125","210916","0.0-3.0-4.0-1.0-1.37","5e6033dbfb4665381e27f2fc","6662009ae78f21dd82fcd179","66620d156bd723c39068f897","null","","null","","","","","","","","./tasks/HMM-beads/Images/WhiteBeadChoice.png","","","","","","","","","",""
"image-keyboard-response","126","211421","0.0-3.0-4.0-1.0-2.37","5e6033dbfb4665381e27f2fc","6662009ae78f21dd82fcd179","66620d156bd723c39068f897","null","","null","","","","","","","","./tasks/HMM-beads/Images/WhiteBeadChoiceCorrect.png","","","","","","","","","",""
"image-keyboard-response","127","211776","0.0-3.0-4.0-1.0-0.38","5e6033dbfb4665381e27f2fc","6662009ae78f21dd82fcd179","66620d156bd723c39068f897","354","","j","","","","","","","","./tasks/HMM-beads/Images/NewTrialWC.png","practice","0","38","1","1","1","1","true","",""
"image-keyboard-response","128","212079","0.0-3.0-4.0-1.0-1.38","5e6033dbfb4665381e27f2fc","6662009ae78f21dd82fcd179","66620d156bd723c39068f897","null","","null","","","","","","","","./tasks/HMM-beads/Images/WhiteBeadChoice.png","","","","","","","","","",""
"image-keyboard-response","129","212584","0.0-3.0-4.0-1.0-2.38","5e6033dbfb4665381e27f2fc","6662009ae78f21dd82fcd179","66620d156bd723c39068f897","null","","null","","","","","","","","./tasks/HMM-beads/Images/WhiteBeadChoiceCorrect.png","","","","","","","","","",""
"image-keyboard-response","130","212906","0.0-3.0-4.0-1.0-0.39","5e6033dbfb4665381e27f2fc","6662009ae78f21dd82fcd179","66620d156bd723c39068f897","321","","j","","","","","","","","./tasks/HMM-beads/Images/NewTrialWC.png","practice","0","39","1","1","1","1","true","",""
"image-keyboard-response","131","213210","0.0-3.0-4.0-1.0-1.39","5e6033dbfb4665381e27f2fc","6662009ae78f21dd82fcd179","66620d156bd723c39068f897","null","","null","","","","","","","","./tasks/HMM-beads/Images/WhiteBeadChoice.png","","","","","","","","","",""
"image-keyboard-response","132","213714","0.0-3.0-4.0-1.0-2.39","5e6033dbfb4665381e27f2fc","6662009ae78f21dd82fcd179","66620d156bd723c39068f897","null","","null","","","","","","","","./tasks/HMM-beads/Images/WhiteBeadChoiceCorrect.png","","","","","","","","","",""
"html-keyboard-response","133","216586","0.0-3.0-4.0-2.0","5e6033dbfb4665381e27f2fc","6662009ae78f21dd82fcd179","66620d156bd723c39068f897","2869",""," ","","","","","","","","","","","","","","","","","",""
"instructions","134","688305","0.0-3.0-5.0","5e6033dbfb4665381e27f2fc","6662009ae78f21dd82fcd179","66620d156bd723c39068f897","471725","","","","[{""page_index"":0,""viewing_time"":8313},{""page_index"":1,""viewing_time"":463410}]","","","","","","","","","","","","","","","",""
"html-keyboard-response","135","700826","0.0-3.0-6.0-0.0","5e6033dbfb4665381e27f2fc","6662009ae78f21dd82fcd179","66620d156bd723c39068f897","12520",""," ","","","","","","","","<div align=center>In this block, there will be a <b>1% chance</b> that the jar on the next trial will be different from the jar on the current trial.<br><br></div>","","","","","","","","","",""
"image-keyboard-response","136","703369","0.0-3.0-6.0-1.0-0.0","5e6033dbfb4665381e27f2fc","6662009ae78f21dd82fcd179","66620d156bd723c39068f897","2541","","f","","","","","","","","./tasks/HMM-beads/Images/NoChoice.png","lowH","1","0","1","0","9","0","true","",""
"image-keyboard-response","137","703671","0.0-3.0-6.0-1.0-1.0","5e6033dbfb4665381e27f2fc","6662009ae78f21dd82fcd179","66620d156bd723c39068f897","null","","null","","","","","","","","./tasks/HMM-beads/Images/BlackBeadChoice.png","","","","","","","","","",""
"image-keyboard-response","138","704176","0.0-3.0-6.0-1.0-2.0","5e6033dbfb4665381e27f2fc","6662009ae78f21dd82fcd179","66620d156bd723c39068f897","null","","null","","","","","","","","./tasks/HMM-beads/Images/BlackBeadChoiceCorrect.png","","","","","","","","","",""
"image-keyboard-response","139","704902","0.0-3.0-6.0-1.0-0.1","5e6033dbfb4665381e27f2fc","6662009ae78f21dd82fcd179","66620d156bd723c39068f897","724","","f","","","","","","","","./tasks/HMM-beads/Images/NewTrialBC.png","lowH","1","1","1","1","0","0","false","",""
"image-keyboard-response","140","705205","0.0-3.0-6.0-1.0-1.1","5e6033dbfb4665381e27f2fc","6662009ae78f21dd82fcd179","66620d156bd723c39068f897","null","","null","","","","","","","","./tasks/HMM-beads/Images/BlackBeadChoice.png","","","","","","","","","",""
"image-keyboard-response","141","705708","0.0-3.0-6.0-1.0-2.1","5e6033dbfb4665381e27f2fc","6662009ae78f21dd82fcd179","66620d156bd723c39068f897","null","","null","","","","","","","","./tasks/HMM-beads/Images/BlackBeadChoiceWrong.png","","","","","","","","","",""
"image-keyboard-response","142","706785","0.0-3.0-6.0-1.0-0.2","5e6033dbfb4665381e27f2fc","6662009ae78f21dd82fcd179","66620d156bd723c39068f897","1074","","f","","","","","","","","./tasks/HMM-beads/Images/NewTrialWC.png","lowH","1","2","1","1","1","0","false","",""
"image-keyboard-response","143","707088","0.0-3.0-6.0-1.0-1.2","5e6033dbfb4665381e27f2fc","6662009ae78f21dd82fcd179","66620d156bd723c39068f897","null","","null","","","","","","","","./tasks/HMM-beads/Images/BlackBeadChoice.png","","","","","","","","","",""
"image-keyboard-response","144","707591","0.0-3.0-6.0-1.0-2.2","5e6033dbfb4665381e27f2fc","6662009ae78f21dd82fcd179","66620d156bd723c39068f897","null","","null","","","","","","","","./tasks/HMM-beads/Images/BlackBeadChoiceWrong.png","","","","","","","","","",""
"image-keyboard-response","145","708336","0.0-3.0-6.0-1.0-0.3","5e6033dbfb4665381e27f2fc","6662009ae78f21dd82fcd179","66620d156bd723c39068f897","742","","j","","","","","","","","./tasks/HMM-beads/Images/NewTrialWC.png","lowH","1","3","1","1","1","1","true","",""
"image-keyboard-response","146","708639","0.0-3.0-6.0-1.0-1.3","5e6033dbfb4665381e27f2fc","6662009ae78f21dd82fcd179","66620d156bd723c39068f897","null","","null","","","","","","","","./tasks/HMM-beads/Images/WhiteBeadChoice.png","","","","","","","","","",""
"image-keyboard-response","147","709142","0.0-3.0-6.0-1.0-2.3","5e6033dbfb4665381e27f2fc","6662009ae78f21dd82fcd179","66620d156bd723c39068f897","null","","null","","","","","","","","./tasks/HMM-beads/Images/WhiteBeadChoiceCorrect.png","","","","","","","","","",""
"image-keyboard-response","148","709700","0.0-3.0-6.0-1.0-0.4","5e6033dbfb4665381e27f2fc","6662009ae78f21dd82fcd179","66620d156bd723c39068f897","556","","j","","","","","","","","./tasks/HMM-beads/Images/NewTrialWC.png","lowH","1","4","1","1","1","1","true","",""
"image-keyboard-response","149","710003","0.0-3.0-6.0-1.0-1.4","5e6033dbfb4665381e27f2fc","6662009ae78f21dd82fcd179","66620d156bd723c39068f897","null","","null","","","","","","","","./tasks/HMM-beads/Images/WhiteBeadChoice.png","","","","","","","","","",""
"image-keyboard-response","150","710507","0.0-3.0-6.0-1.0-2.4","5e6033dbfb4665381e27f2fc","6662009ae78f21dd82fcd179","66620d156bd723c39068f897","null","","null","","","","","","","","./tasks/HMM-beads/Images/WhiteBeadChoiceCorrect.png","","","","","","","","","",""
"image-keyboard-response","151","710932","0.0-3.0-6.0-1.0-0.5","5e6033dbfb4665381e27f2fc","6662009ae78f21dd82fcd179","66620d156bd723c39068f897","423","","j","","","","","","","","./tasks/HMM-beads/Images/NewTrialWC.png","lowH","1","5","1","1","1","1","true","",""
"image-keyboard-response","152","711235","0.0-3.0-6.0-1.0-1.5","5e6033dbfb4665381e27f2fc","6662009ae78f21dd82fcd179","66620d156bd723c39068f897","null","","null","","","","","","","","./tasks/HMM-beads/Images/WhiteBeadChoice.png","","","","","","","","","",""
"image-keyboard-response","153","711739","0.0-3.0-6.0-1.0-2.5","5e6033dbfb4665381e27f2fc","6662009ae78f21dd82fcd179","66620d156bd723c39068f897","null","","null","","","","","","","","./tasks/HMM-beads/Images/WhiteBeadChoiceCorrect.png","","","","","","","","","",""
"image-keyboard-response","154","712094","0.0-3.0-6.0-1.0-0.6","5e6033dbfb4665381e27f2fc","6662009ae78f21dd82fcd179","66620d156bd723c39068f897","353","","j","","","","","","","","./tasks/HMM-beads/Images/NewTrialWC.png","lowH","1","6","1","0","1","1","false","",""
"image-keyboard-response","155","712397","0.0-3.0-6.0-1.0-1.6","5e6033dbfb4665381e27f2fc","6662009ae78f21dd82fcd179","66620d156bd723c39068f897","null","","null","","","","","","","","./tasks/HMM-beads/Images/WhiteBeadChoice.png","","","","","","","","","",""
"image-keyboard-response","156","712900","0.0-3.0-6.0-1.0-2.6","5e6033dbfb4665381e27f2fc","6662009ae78f21dd82fcd179","66620d156bd723c39068f897","null","","null","","","","","","","","./tasks/HMM-beads/Images/WhiteBeadChoiceWrong.png","","","","","","","","","",""
"image-keyboard-response","157","713188","0.0-3.0-6.0-1.0-0.7","5e6033dbfb4665381e27f2fc","6662009ae78f21dd82fcd179","66620d156bd723c39068f897","286","","j","","","","","","","","./tasks/HMM-beads/Images/NewTrialBC.png","lowH","1","7","1","1","0","1","true","",""
"image-keyboard-response","158","713490","0.0-3.0-6.0-1.0-1.7","5e6033dbfb4665381e27f2fc","6662009ae78f21dd82fcd179","66620d156bd723c39068f897","null","","null","","","","","","","","./tasks/HMM-beads/Images/WhiteBeadChoice.png","","","","","","","","","",""
"image-keyboard-response","159","713994","0.0-3.0-6.0-1.0-2.7","5e6033dbfb4665381e27f2fc","6662009ae78f21dd82fcd179","66620d156bd723c39068f897","null","","null","","","","","","","","./tasks/HMM-beads/Images/WhiteBeadChoiceCorrect.png","","","","","","","","","",""
"image-keyboard-response","160","714336","0.0-3.0-6.0-1.0-0.8","5e6033dbfb4665381e27f2fc","6662009ae78f21dd82fcd179","66620d156bd723c39068f897","340","","j","","","","","","","","./tasks/HMM-beads/Images/NewTrialWC.png","lowH","1","8","1","1","1","1","true","",""
"image-keyboard-response","161","714640","0.0-3.0-6.0-1.0-1.8","5e6033dbfb4665381e27f2fc","6662009ae78f21dd82fcd179","66620d156bd723c39068f897","null","","null","","","","","","","","./tasks/HMM-beads/Images/WhiteBeadChoice.png","","","","","","","","","",""
"image-keyboard-response","162","715144","0.0-3.0-6.0-1.0-2.8","5e6033dbfb4665381e27f2fc","6662009ae78f21dd82fcd179","66620d156bd723c39068f897","null","","null","","","","","","","","./tasks/HMM-beads/Images/WhiteBeadChoiceCorrect.png","","","","","","","","","",""
"image-keyboard-response","163","715541","0.0-3.0-6.0-1.0-0.9","5e6033dbfb4665381e27f2fc","6662009ae78f21dd82fcd179","66620d156bd723c39068f897","396","","j","","","","","","","","./tasks/HMM-beads/Images/NewTrialWC.png","lowH","1","9","1","1","1","1","true","",""
"image-keyboard-response","164","715844","0.0-3.0-6.0-1.0-1.9","5e6033dbfb4665381e27f2fc","6662009ae78f21dd82fcd179","66620d156bd723c39068f897","null","","null","","","","","","","","./tasks/HMM-beads/Images/WhiteBeadChoice.png","","","","","","","","","",""
"image-keyboard-response","165","716347","0.0-3.0-6.0-1.0-2.9","5e6033dbfb4665381e27f2fc","6662009ae78f21dd82fcd179","66620d156bd723c39068f897","null","","null","","","","","","","","./tasks/HMM-beads/Images/WhiteBeadChoiceCorrect.png","","","","","","","","","",""
"image-keyboard-response","166","716833","0.0-3.0-6.0-1.0-0.10","5e6033dbfb4665381e27f2fc","6662009ae78f21dd82fcd179","66620d156bd723c39068f897","485","","f","","","","","","","","./tasks/HMM-beads/Images/NewTrialWC.png","lowH","1","10","1","1","1","0","false","",""
"image-keyboard-response","167","717136","0.0-3.0-6.0-1.0-1.10","5e6033dbfb4665381e27f2fc","6662009ae78f21dd82fcd179","66620d156bd723c39068f897","null","","null","","","","","","","","./tasks/HMM-beads/Images/BlackBeadChoice.png","","","","","","","","","",""
"image-keyboard-response","168","717640","0.0-3.0-6.0-1.0-2.10","5e6033dbfb4665381e27f2fc","6662009ae78f21dd82fcd179","66620d156bd723c39068f897","null","","null","","","","","","","","./tasks/HMM-beads/Images/BlackBeadChoiceWrong.png","","","","","","","","","",""
"image-keyboard-response","169","718056","0.0-3.0-6.0-1.0-0.11","5e6033dbfb4665381e27f2fc","6662009ae78f21dd82fcd179","66620d156bd723c39068f897","415","","j","","","","","","","","./tasks/HMM-beads/Images/NewTrialWC.png","lowH","1","11","1","1","1","1","true","",""
"image-keyboard-response","170","718361","0.0-3.0-6.0-1.0-1.11","5e6033dbfb4665381e27f2fc","6662009ae78f21dd82fcd179","66620d156bd723c39068f897","null","","null","","","","","","","","./tasks/HMM-beads/Images/WhiteBeadChoice.png","","","","","","","","","",""
"image-keyboard-response","171","718864","0.0-3.0-6.0-1.0-2.11","5e6033dbfb4665381e27f2fc","6662009ae78f21dd82fcd179","66620d156bd723c39068f897","null","","null","","","","","","","","./tasks/HMM-beads/Images/WhiteBeadChoiceCorrect.png","","","","","","","","","",""
"image-keyboard-response","172","719310","0.0-3.0-6.0-1.0-0.12","5e6033dbfb4665381e27f2fc","6662009ae78f21dd82fcd179","66620d156bd723c39068f897","444","","j","","","","","","","","./tasks/HMM-beads/Images/NewTrialWC.png","lowH","1","12","1","1","1","1","true","",""
"image-keyboard-response","173","719614","0.0-3.0-6.0-1.0-1.12","5e6033dbfb4665381e27f2fc","6662009ae78f21dd82fcd179","66620d156bd723c39068f897","null","","null","","","","","","","","./tasks/HMM-beads/Images/WhiteBeadChoice.png","","","","","","","","","",""
"image-keyboard-response","174","720116","0.0-3.0-6.0-1.0-2.12","5e6033dbfb4665381e27f2fc","6662009ae78f21dd82fcd179","66620d156bd723c39068f897","null","","null","","","","","","","","./tasks/HMM-beads/Images/WhiteBeadChoiceCorrect.png","","","","","","","","","",""
"image-keyboard-response","175","720445","0.0-3.0-6.0-1.0-0.13","5e6033dbfb4665381e27f2fc","6662009ae78f21dd82fcd179","66620d156bd723c39068f897","327","","j","","","","","","","","./tasks/HMM-beads/Images/NewTrialWC.png","lowH","1","13","1","0","1","1","false","",""
"image-keyboard-response","176","720748","0.0-3.0-6.0-1.0-1.13","5e6033dbfb4665381e27f2fc","6662009ae78f21dd82fcd179","66620d156bd723c39068f897","null","","null","","","","","","","","./tasks/HMM-beads/Images/WhiteBeadChoice.png","","","","","","","","","",""
"image-keyboard-response","177","721252","0.0-3.0-6.0-1.0-2.13","5e6033dbfb4665381e27f2fc","6662009ae78f21dd82fcd179","66620d156bd723c39068f897","null","","null","","","","","","","","./tasks/HMM-beads/Images/WhiteBeadChoiceWrong.png","","","","","","","","","",""
"image-keyboard-response","178","721837","0.0-3.0-6.0-1.0-0.14","5e6033dbfb4665381e27f2fc","6662009ae78f21dd82fcd179","66620d156bd723c39068f897","584","","j","","","","","","","","./tasks/HMM-beads/Images/NewTrialBC.png","lowH","1","14","1","0","0","1","false","",""
"image-keyboard-response","179","722140","0.0-3.0-6.0-1.0-1.14","5e6033dbfb4665381e27f2fc","6662009ae78f21dd82fcd179","66620d156bd723c39068f897","null","","null","","","","","","","","./tasks/HMM-beads/Images/WhiteBeadChoice.png","","","","","","","","","",""
"image-keyboard-response","180","722644","0.0-3.0-6.0-1.0-2.14","5e6033dbfb4665381e27f2fc","6662009ae78f21dd82fcd179","66620d156bd723c39068f897","null","","null","","","","","","","","./tasks/HMM-beads/Images/WhiteBeadChoiceWrong.png","","","","","","","","","",""
"image-keyboard-response","181","723161","0.0-3.0-6.0-1.0-0.15","5e6033dbfb4665381e27f2fc","6662009ae78f21dd82fcd179","66620d156bd723c39068f897","516","","j","","","","","","","","./tasks/HMM-beads/Images/NewTrialBC.png","lowH","1","15","1","1","0","1","true","",""
"image-keyboard-response","182","723465","0.0-3.0-6.0-1.0-1.15","5e6033dbfb4665381e27f2fc","6662009ae78f21dd82fcd179","66620d156bd723c39068f897","null","","null","","","","","","","","./tasks/HMM-beads/Images/WhiteBeadChoice.png","","","","","","","","","",""
"image-keyboard-response","183","723969","0.0-3.0-6.0-1.0-2.15","5e6033dbfb4665381e27f2fc","6662009ae78f21dd82fcd179","66620d156bd723c39068f897","null","","null","","","","","","","","./tasks/HMM-beads/Images/WhiteBeadChoiceCorrect.png","","","","","","","","","",""
"image-keyboard-response","184","724280","0.0-3.0-6.0-1.0-0.16","5e6033dbfb4665381e27f2fc","6662009ae78f21dd82fcd179","66620d156bd723c39068f897","309","","j","","","","","","","","./tasks/HMM-beads/Images/NewTrialWC.png","lowH","1","16","1","1","1","1","true","",""
"image-keyboard-response","185","724583","0.0-3.0-6.0-1.0-1.16","5e6033dbfb4665381e27f2fc","6662009ae78f21dd82fcd179","66620d156bd723c39068f897","null","","null","","","","","","","","./tasks/HMM-beads/Images/WhiteBeadChoice.png","","","","","","","","","",""
"image-keyboard-response","186","725086","0.0-3.0-6.0-1.0-2.16","5e6033dbfb4665381e27f2fc","6662009ae78f21dd82fcd179","66620d156bd723c39068f897","null","","null","","","","","","","","./tasks/HMM-beads/Images/WhiteBeadChoiceCorrect.png","","","","","","","","","",""
"image-keyboard-response","187","725481","0.0-3.0-6.0-1.0-0.17","5e6033dbfb4665381e27f2fc","6662009ae78f21dd82fcd179","66620d156bd723c39068f897","393","","j","","","","","","","","./tasks/HMM-beads/Images/NewTrialWC.png","lowH","1","17","1","1","1","1","true","",""
"image-keyboard-response","188","725784","0.0-3.0-6.0-1.0-1.17","5e6033dbfb4665381e27f2fc","6662009ae78f21dd82fcd179","66620d156bd723c39068f897","null","","null","","","","","","","","./tasks/HMM-beads/Images/WhiteBeadChoice.png","","","","","","","","","",""
"image-keyboard-response","189","726287","0.0-3.0-6.0-1.0-2.17","5e6033dbfb4665381e27f2fc","6662009ae78f21dd82fcd179","66620d156bd723c39068f897","null","","null","","","","","","","","./tasks/HMM-beads/Images/WhiteBeadChoiceCorrect.png","","","","","","","","","",""
"image-keyboard-response","190","726343","0.0-3.0-6.0-1.0-0.18","5e6033dbfb4665381e27f2fc","6662009ae78f21dd82fcd179","66620d156bd723c39068f897","54","","j","","","","","","","","./tasks/HMM-beads/Images/NewTrialWC.png","lowH","1","18","1","1","1","1","true","",""
"image-keyboard-response","191","726646","0.0-3.0-6.0-1.0-1.18","5e6033dbfb4665381e27f2fc","6662009ae78f21dd82fcd179","66620d156bd723c39068f897","null","","null","","","","","","","","./tasks/HMM-beads/Images/WhiteBeadChoice.png","","","","","","","","","",""
"image-keyboard-response","192","727149","0.0-3.0-6.0-1.0-2.18","5e6033dbfb4665381e27f2fc","6662009ae78f21dd82fcd179","66620d156bd723c39068f897","null","","null","","","","","","","","./tasks/HMM-beads/Images/WhiteBeadChoiceCorrect.png","","","","","","","","","",""
"image-keyboard-response","193","727578","0.0-3.0-6.0-1.0-0.19","5e6033dbfb4665381e27f2fc","6662009ae78f21dd82fcd179","66620d156bd723c39068f897","426","","j","","","","","","","","./tasks/HMM-beads/Images/NewTrialWC.png","lowH","1","19","1","1","1","1","true","",""
"image-keyboard-response","194","727882","0.0-3.0-6.0-1.0-1.19","5e6033dbfb4665381e27f2fc","6662009ae78f21dd82fcd179","66620d156bd723c39068f897","null","","null","","","","","","","","./tasks/HMM-beads/Images/WhiteBeadChoice.png","","","","","","","","","",""
"image-keyboard-response","195","728385","0.0-3.0-6.0-1.0-2.19","5e6033dbfb4665381e27f2fc","6662009ae78f21dd82fcd179","66620d156bd723c39068f897","null","","null","","","","","","","","./tasks/HMM-beads/Images/WhiteBeadChoiceCorrect.png","","","","","","","","","",""
"image-keyboard-response","196","728725","0.0-3.0-6.0-1.0-0.20","5e6033dbfb4665381e27f2fc","6662009ae78f21dd82fcd179","66620d156bd723c39068f897","338","","j","","","","","","","","./tasks/HMM-beads/Images/NewTrialWC.png","lowH","1","20","1","1","1","1","true","",""
"image-keyboard-response","197","729029","0.0-3.0-6.0-1.0-1.20","5e6033dbfb4665381e27f2fc","6662009ae78f21dd82fcd179","66620d156bd723c39068f897","null","","null","","","","","","","","./tasks/HMM-beads/Images/WhiteBeadChoice.png","","","","","","","","","",""
"image-keyboard-response","198","729533","0.0-3.0-6.0-1.0-2.20","5e6033dbfb4665381e27f2fc","6662009ae78f21dd82fcd179","66620d156bd723c39068f897","null","","null","","","","","","","","./tasks/HMM-beads/Images/WhiteBeadChoiceCorrect.png","","","","","","","","","",""
"image-keyboard-response","199","729882","0.0-3.0-6.0-1.0-0.21","5e6033dbfb4665381e27f2fc","6662009ae78f21dd82fcd179","66620d156bd723c39068f897","347","","j","","","","","","","","./tasks/HMM-beads/Images/NewTrialWC.png","lowH","1","21","1","1","1","1","true","",""
"image-keyboard-response","200","730186","0.0-3.0-6.0-1.0-1.21","5e6033dbfb4665381e27f2fc","6662009ae78f21dd82fcd179","66620d156bd723c39068f897","null","","null","","","","","","","","./tasks/HMM-beads/Images/WhiteBeadChoice.png","","","","","","","","","",""
"image-keyboard-response","201","730689","0.0-3.0-6.0-1.0-2.21","5e6033dbfb4665381e27f2fc","6662009ae78f21dd82fcd179","66620d156bd723c39068f897","null","","null","","","","","","","","./tasks/HMM-beads/Images/WhiteBeadChoiceCorrect.png","","","","","","","","","",""
"image-keyboard-response","202","731028","0.0-3.0-6.0-1.0-0.22","5e6033dbfb4665381e27f2fc","6662009ae78f21dd82fcd179","66620d156bd723c39068f897","337","","j","","","","","","","","./tasks/HMM-beads/Images/NewTrialWC.png","lowH","1","22","1","1","1","1","true","",""
"image-keyboard-response","203","731332","0.0-3.0-6.0-1.0-1.22","5e6033dbfb4665381e27f2fc","6662009ae78f21dd82fcd179","66620d156bd723c39068f897","null","","null","","","","","","","","./tasks/HMM-beads/Images/WhiteBeadChoice.png","","","","","","","","","",""
"image-keyboard-response","204","731835","0.0-3.0-6.0-1.0-2.22","5e6033dbfb4665381e27f2fc","6662009ae78f21dd82fcd179","66620d156bd723c39068f897","null","","null","","","","","","","","./tasks/HMM-beads/Images/WhiteBeadChoiceCorrect.png","","","","","","","","","",""
"image-keyboard-response","205","732138","0.0-3.0-6.0-1.0-0.23","5e6033dbfb4665381e27f2fc","6662009ae78f21dd82fcd179","66620d156bd723c39068f897","302","","j","","","","","","","","./tasks/HMM-beads/Images/NewTrialWC.png","lowH","1","23","1","1","1","1","true","",""
"image-keyboard-response","206","732443","0.0-3.0-6.0-1.0-1.23","5e6033dbfb4665381e27f2fc","6662009ae78f21dd82fcd179","66620d156bd723c39068f897","null","","null","","","","","","","","./tasks/HMM-beads/Images/WhiteBeadChoice.png","","","","","","","","","",""
"image-keyboard-response","207","732947","0.0-3.0-6.0-1.0-2.23","5e6033dbfb4665381e27f2fc","6662009ae78f21dd82fcd179","66620d156bd723c39068f897","null","","null","","","","","","","","./tasks/HMM-beads/Images/WhiteBeadChoiceCorrect.png","","","","","","","","","",""
"image-keyboard-response","208","733233","0.0-3.0-6.0-1.0-0.24","5e6033dbfb4665381e27f2fc","6662009ae78f21dd82fcd179","66620d156bd723c39068f897","284","","j","","","","","","","","./tasks/HMM-beads/Images/NewTrialWC.png","lowH","1","24","1","0","1","1","false","",""
"image-keyboard-response","209","733537","0.0-3.0-6.0-1.0-1.24","5e6033dbfb4665381e27f2fc","6662009ae78f21dd82fcd179","66620d156bd723c39068f897","null","","null","","","","","","","","./tasks/HMM-beads/Images/WhiteBeadChoice.png","","","","","","","","","",""
"image-keyboard-response","210","734040","0.0-3.0-6.0-1.0-2.24","5e6033dbfb4665381e27f2fc","6662009ae78f21dd82fcd179","66620d156bd723c39068f897","null","","null","","","","","","","","./tasks/HMM-beads/Images/WhiteBeadChoiceWrong.png","","","","","","","","","",""
"image-keyboard-response","211","734506","0.0-3.0-6.0-1.0-0.25","5e6033dbfb4665381e27f2fc","6662009ae78f21dd82fcd179","66620d156bd723c39068f897","464","","j","","","","","","","","./tasks/HMM-beads/Images/NewTrialBC.png","lowH","1","25","1","1","0","1","true","",""
"image-keyboard-response","212","734810","0.0-3.0-6.0-1.0-1.25","5e6033dbfb4665381e27f2fc","6662009ae78f21dd82fcd179","66620d156bd723c39068f897","null","","null","","","","","","","","./tasks/HMM-beads/Images/WhiteBeadChoice.png","","","","","","","","","",""
"image-keyboard-response","213","735313","0.0-3.0-6.0-1.0-2.25","5e6033dbfb4665381e27f2fc","6662009ae78f21dd82fcd179","66620d156bd723c39068f897","null","","null","","","","","","","","./tasks/HMM-beads/Images/WhiteBeadChoiceCorrect.png","","","","","","","","","",""
"image-keyboard-response","214","735850","0.0-3.0-6.0-1.0-0.26","5e6033dbfb4665381e27f2fc","6662009ae78f21dd82fcd179","66620d156bd723c39068f897","535","","j","","","","","","","","./tasks/HMM-beads/Images/NewTrialWC.png","lowH","1","26","1","0","1","1","false","",""
"image-keyboard-response","215","736152","0.0-3.0-6.0-1.0-1.26","5e6033dbfb4665381e27f2fc","6662009ae78f21dd82fcd179","66620d156bd723c39068f897","null","","null","","","","","","","","./tasks/HMM-beads/Images/WhiteBeadChoice.png","","","","","","","","","",""
"image-keyboard-response","216","736656","0.0-3.0-6.0-1.0-2.26","5e6033dbfb4665381e27f2fc","6662009ae78f21dd82fcd179","66620d156bd723c39068f897","null","","null","","","","","","","","./tasks/HMM-beads/Images/WhiteBeadChoiceWrong.png","","","","","","","","","",""
"image-keyboard-response","217","737187","0.0-3.0-6.0-1.0-0.27","5e6033dbfb4665381e27f2fc","6662009ae78f21dd82fcd179","66620d156bd723c39068f897","530","","j","","","","","","","","./tasks/HMM-beads/Images/NewTrialBC.png","lowH","1","27","1","1","0","1","true","",""
"image-keyboard-response","218","737491","0.0-3.0-6.0-1.0-1.27","5e6033dbfb4665381e27f2fc","6662009ae78f21dd82fcd179","66620d156bd723c39068f897","null","","null","","","","","","","","./tasks/HMM-beads/Images/WhiteBeadChoice.png","","","","","","","","","",""
"image-keyboard-response","219","737995","0.0-3.0-6.0-1.0-2.27","5e6033dbfb4665381e27f2fc","6662009ae78f21dd82fcd179","66620d156bd723c39068f897","null","","null","","","","","","","","./tasks/HMM-beads/Images/WhiteBeadChoiceCorrect.png","","","","","","","","","",""
"image-keyboard-response","220","738284","0.0-3.0-6.0-1.0-0.28","5e6033dbfb4665381e27f2fc","6662009ae78f21dd82fcd179","66620d156bd723c39068f897","287","","j","","","","","","","","./tasks/HMM-beads/Images/NewTrialWC.png","lowH","1","28","1","1","1","1","true","",""
"image-keyboard-response","221","738588","0.0-3.0-6.0-1.0-1.28","5e6033dbfb4665381e27f2fc","6662009ae78f21dd82fcd179","66620d156bd723c39068f897","null","","null","","","","","","","","./tasks/HMM-beads/Images/WhiteBeadChoice.png","","","","","","","","","",""
"image-keyboard-response","222","739091","0.0-3.0-6.0-1.0-2.28","5e6033dbfb4665381e27f2fc","6662009ae78f21dd82fcd179","66620d156bd723c39068f897","null","","null","","","","","","","","./tasks/HMM-beads/Images/WhiteBeadChoiceCorrect.png","","","","","","","","","",""
"image-keyboard-response","223","739423","0.0-3.0-6.0-1.0-0.29","5e6033dbfb4665381e27f2fc","6662009ae78f21dd82fcd179","66620d156bd723c39068f897","330","","j","","","","","","","","./tasks/HMM-beads/Images/NewTrialWC.png","lowH","1","29","1","1","1","1","true","",""
"image-keyboard-response","224","739726","0.0-3.0-6.0-1.0-1.29","5e6033dbfb4665381e27f2fc","6662009ae78f21dd82fcd179","66620d156bd723c39068f897","null","","null","","","","","","","","./tasks/HMM-beads/Images/WhiteBeadChoice.png","","","","","","","","","",""
"image-keyboard-response","225","740230","0.0-3.0-6.0-1.0-2.29","5e6033dbfb4665381e27f2fc","6662009ae78f21dd82fcd179","66620d156bd723c39068f897","null","","null","","","","","","","","./tasks/HMM-beads/Images/WhiteBeadChoiceCorrect.png","","","","","","","","","",""
"image-keyboard-response","226","741000","0.0-3.0-6.0-1.0-0.30","5e6033dbfb4665381e27f2fc","6662009ae78f21dd82fcd179","66620d156bd723c39068f897","769","","f","","","","","","","","./tasks/HMM-beads/Images/NewTrialWC.png","lowH","1","30","1","1","1","0","false","",""
"image-keyboard-response","227","741301","0.0-3.0-6.0-1.0-1.30","5e6033dbfb4665381e27f2fc","6662009ae78f21dd82fcd179","66620d156bd723c39068f897","null","","null","","","","","","","","./tasks/HMM-beads/Images/BlackBeadChoice.png","","","","","","","","","",""
"image-keyboard-response","228","741805","0.0-3.0-6.0-1.0-2.30","5e6033dbfb4665381e27f2fc","6662009ae78f21dd82fcd179","66620d156bd723c39068f897","null","","null","","","","","","","","./tasks/HMM-beads/Images/BlackBeadChoiceWrong.png","","","","","","","","","",""
"image-keyboard-response","229","742149","0.0-3.0-6.0-1.0-0.31","5e6033dbfb4665381e27f2fc","6662009ae78f21dd82fcd179","66620d156bd723c39068f897","343","","j","","","","","","","","./tasks/HMM-beads/Images/NewTrialWC.png","lowH","1","31","1","1","1","1","true","",""
"image-keyboard-response","230","742453","0.0-3.0-6.0-1.0-1.31","5e6033dbfb4665381e27f2fc","6662009ae78f21dd82fcd179","66620d156bd723c39068f897","null","","null","","","","","","","","./tasks/HMM-beads/Images/WhiteBeadChoice.png","","","","","","","","","",""
"image-keyboard-response","231","742956","0.0-3.0-6.0-1.0-2.31","5e6033dbfb4665381e27f2fc","6662009ae78f21dd82fcd179","66620d156bd723c39068f897","null","","null","","","","","","","","./tasks/HMM-beads/Images/WhiteBeadChoiceCorrect.png","","","","","","","","","",""
"image-keyboard-response","232","743590","0.0-3.0-6.0-1.0-0.32","5e6033dbfb4665381e27f2fc","6662009ae78f21dd82fcd179","66620d156bd723c39068f897","633","","f","","","","","","","","./tasks/HMM-beads/Images/NewTrialWC.png","lowH","1","32","1","1","1","0","false","",""
"image-keyboard-response","233","743893","0.0-3.0-6.0-1.0-1.32","5e6033dbfb4665381e27f2fc","6662009ae78f21dd82fcd179","66620d156bd723c39068f897","null","","null","","","","","","","","./tasks/HMM-beads/Images/BlackBeadChoice.png","","","","","","","","","",""
"image-keyboard-response","234","744397","0.0-3.0-6.0-1.0-2.32","5e6033dbfb4665381e27f2fc","6662009ae78f21dd82fcd179","66620d156bd723c39068f897","null","","null","","","","","","","","./tasks/HMM-beads/Images/BlackBeadChoiceWrong.png","","","","","","","","","",""
"image-keyboard-response","235","744867","0.0-3.0-6.0-1.0-0.33","5e6033dbfb4665381e27f2fc","6662009ae78f21dd82fcd179","66620d156bd723c39068f897","468","","j","","","","","","","","./tasks/HMM-beads/Images/NewTrialWC.png","lowH","1","33","1","1","1","1","true","",""
"image-keyboard-response","236","745170","0.0-3.0-6.0-1.0-1.33","5e6033dbfb4665381e27f2fc","6662009ae78f21dd82fcd179","66620d156bd723c39068f897","null","","null","","","","","","","","./tasks/HMM-beads/Images/WhiteBeadChoice.png","","","","","","","","","",""
"image-keyboard-response","237","745674","0.0-3.0-6.0-1.0-2.33","5e6033dbfb4665381e27f2fc","6662009ae78f21dd82fcd179","66620d156bd723c39068f897","null","","null","","","","","","","","./tasks/HMM-beads/Images/WhiteBeadChoiceCorrect.png","","","","","","","","","",""
"image-keyboard-response","238","746036","0.0-3.0-6.0-1.0-0.34","5e6033dbfb4665381e27f2fc","6662009ae78f21dd82fcd179","66620d156bd723c39068f897","360","","j","","","","","","","","./tasks/HMM-beads/Images/NewTrialWC.png","lowH","1","34","1","1","1","1","true","",""
"image-keyboard-response","239","746339","0.0-3.0-6.0-1.0-1.34","5e6033dbfb4665381e27f2fc","6662009ae78f21dd82fcd179","66620d156bd723c39068f897","null","","null","","","","","","","","./tasks/HMM-beads/Images/WhiteBeadChoice.png","","","","","","","","","",""
"image-keyboard-response","240","746843","0.0-3.0-6.0-1.0-2.34","5e6033dbfb4665381e27f2fc","6662009ae78f21dd82fcd179","66620d156bd723c39068f897","null","","null","","","","","","","","./tasks/HMM-beads/Images/WhiteBeadChoiceCorrect.png","","","","","","","","","",""
"image-keyboard-response","241","747187","0.0-3.0-6.0-1.0-0.35","5e6033dbfb4665381e27f2fc","6662009ae78f21dd82fcd179","66620d156bd723c39068f897","342","","j","","","","","","","","./tasks/HMM-beads/Images/NewTrialWC.png","lowH","1","35","1","1","1","1","true","",""
"image-keyboard-response","242","747490","0.0-3.0-6.0-1.0-1.35","5e6033dbfb4665381e27f2fc","6662009ae78f21dd82fcd179","66620d156bd723c39068f897","null","","null","","","","","","","","./tasks/HMM-beads/Images/WhiteBeadChoice.png","","","","","","","","","",""
"image-keyboard-response","243","747994","0.0-3.0-6.0-1.0-2.35","5e6033dbfb4665381e27f2fc","6662009ae78f21dd82fcd179","66620d156bd723c39068f897","null","","null","","","","","","","","./tasks/HMM-beads/Images/WhiteBeadChoiceCorrect.png","","","","","","","","","",""
"image-keyboard-response","244","748241","0.0-3.0-6.0-1.0-0.36","5e6033dbfb4665381e27f2fc","6662009ae78f21dd82fcd179","66620d156bd723c39068f897","246","","j","","","","","","","","./tasks/HMM-beads/Images/NewTrialWC.png","lowH","1","36","1","1","1","1","true","",""
"image-keyboard-response","245","748545","0.0-3.0-6.0-1.0-1.36","5e6033dbfb4665381e27f2fc","6662009ae78f21dd82fcd179","66620d156bd723c39068f897","null","","null","","","","","","","","./tasks/HMM-beads/Images/WhiteBeadChoice.png","","","","","","","","","",""
"image-keyboard-response","246","749048","0.0-3.0-6.0-1.0-2.36","5e6033dbfb4665381e27f2fc","6662009ae78f21dd82fcd179","66620d156bd723c39068f897","null","","null","","","","","","","","./tasks/HMM-beads/Images/WhiteBeadChoiceCorrect.png","","","","","","","","","",""
"image-keyboard-response","247","749269","0.0-3.0-6.0-1.0-0.37","5e6033dbfb4665381e27f2fc","6662009ae78f21dd82fcd179","66620d156bd723c39068f897","219","","j","","","","","","","","./tasks/HMM-beads/Images/NewTrialWC.png","lowH","1","37","1","1","1","1","true","",""
"image-keyboard-response","248","749574","0.0-3.0-6.0-1.0-1.37","5e6033dbfb4665381e27f2fc","6662009ae78f21dd82fcd179","66620d156bd723c39068f897","null","","null","","","","","","","","./tasks/HMM-beads/Images/WhiteBeadChoice.png","","","","","","","","","",""
"image-keyboard-response","249","750077","0.0-3.0-6.0-1.0-2.37","5e6033dbfb4665381e27f2fc","6662009ae78f21dd82fcd179","66620d156bd723c39068f897","null","","null","","","","","","","","./tasks/HMM-beads/Images/WhiteBeadChoiceCorrect.png","","","","","","","","","",""
"image-keyboard-response","250","750189","0.0-3.0-6.0-1.0-0.38","5e6033dbfb4665381e27f2fc","6662009ae78f21dd82fcd179","66620d156bd723c39068f897","110","","j","","","","","","","","./tasks/HMM-beads/Images/NewTrialWC.png","lowH","1","38","1","1","1","1","true","",""
"image-keyboard-response","251","750492","0.0-3.0-6.0-1.0-1.38","5e6033dbfb4665381e27f2fc","6662009ae78f21dd82fcd179","66620d156bd723c39068f897","null","","null","","","","","","","","./tasks/HMM-beads/Images/WhiteBeadChoice.png","","","","","","","","","",""
"image-keyboard-response","252","750995","0.0-3.0-6.0-1.0-2.38","5e6033dbfb4665381e27f2fc","6662009ae78f21dd82fcd179","66620d156bd723c39068f897","null","","null","","","","","","","","./tasks/HMM-beads/Images/WhiteBeadChoiceCorrect.png","","","","","","","","","",""
"image-keyboard-response","253","751174","0.0-3.0-6.0-1.0-0.39","5e6033dbfb4665381e27f2fc","6662009ae78f21dd82fcd179","66620d156bd723c39068f897","176","","j","","","","","","","","./tasks/HMM-beads/Images/NewTrialWC.png","lowH","1","39","1","1","1","1","true","",""
"image-keyboard-response","254","751478","0.0-3.0-6.0-1.0-1.39","5e6033dbfb4665381e27f2fc","6662009ae78f21dd82fcd179","66620d156bd723c39068f897","null","","null","","","","","","","","./tasks/HMM-beads/Images/WhiteBeadChoice.png","","","","","","","","","",""
"image-keyboard-response","255","751981","0.0-3.0-6.0-1.0-2.39","5e6033dbfb4665381e27f2fc","6662009ae78f21dd82fcd179","66620d156bd723c39068f897","null","","null","","","","","","","","./tasks/HMM-beads/Images/WhiteBeadChoiceCorrect.png","","","","","","","","","",""
"image-keyboard-response","256","752009","0.0-3.0-6.0-1.0-0.40","5e6033dbfb4665381e27f2fc","6662009ae78f21dd82fcd179","66620d156bd723c39068f897","27","","j","","","","","","","","./tasks/HMM-beads/Images/NewTrialWC.png","lowH","1","40","1","1","1","1","true","",""
"image-keyboard-response","257","752312","0.0-3.0-6.0-1.0-1.40","5e6033dbfb4665381e27f2fc","6662009ae78f21dd82fcd179","66620d156bd723c39068f897","null","","null","","","","","","","","./tasks/HMM-beads/Images/WhiteBeadChoice.png","","","","","","","","","",""
"image-keyboard-response","258","752816","0.0-3.0-6.0-1.0-2.40","5e6033dbfb4665381e27f2fc","6662009ae78f21dd82fcd179","66620d156bd723c39068f897","null","","null","","","","","","","","./tasks/HMM-beads/Images/WhiteBeadChoiceCorrect.png","","","","","","","","","",""
"image-keyboard-response","259","753132","0.0-3.0-6.0-1.0-0.41","5e6033dbfb4665381e27f2fc","6662009ae78f21dd82fcd179","66620d156bd723c39068f897","316","","j","","","","","","","","./tasks/HMM-beads/Images/NewTrialWC.png","lowH","1","41","1","1","1","1","true","",""
"image-keyboard-response","260","753436","0.0-3.0-6.0-1.0-1.41","5e6033dbfb4665381e27f2fc","6662009ae78f21dd82fcd179","66620d156bd723c39068f897","null","","null","","","","","","","","./tasks/HMM-beads/Images/WhiteBeadChoice.png","","","","","","","","","",""
"image-keyboard-response","261","753939","0.0-3.0-6.0-1.0-2.41","5e6033dbfb4665381e27f2fc","6662009ae78f21dd82fcd179","66620d156bd723c39068f897","null","","null","","","","","","","","./tasks/HMM-beads/Images/WhiteBeadChoiceCorrect.png","","","","","","","","","",""
"image-keyboard-response","262","754364","0.0-3.0-6.0-1.0-0.42","5e6033dbfb4665381e27f2fc","6662009ae78f21dd82fcd179","66620d156bd723c39068f897","423","","j","","","","","","","","./tasks/HMM-beads/Images/NewTrialWC.png","lowH","1","42","1","1","1","1","true","",""
"image-keyboard-response","263","754667","0.0-3.0-6.0-1.0-1.42","5e6033dbfb4665381e27f2fc","6662009ae78f21dd82fcd179","66620d156bd723c39068f897","null","","null","","","","","","","","./tasks/HMM-beads/Images/WhiteBeadChoice.png","","","","","","","","","",""
"image-keyboard-response","264","755171","0.0-3.0-6.0-1.0-2.42","5e6033dbfb4665381e27f2fc","6662009ae78f21dd82fcd179","66620d156bd723c39068f897","null","","null","","","","","","","","./tasks/HMM-beads/Images/WhiteBeadChoiceCorrect.png","","","","","","","","","",""
"image-keyboard-response","265","755573","0.0-3.0-6.0-1.0-0.43","5e6033dbfb4665381e27f2fc","6662009ae78f21dd82fcd179","66620d156bd723c39068f897","401","","j","","","","","","","","./tasks/HMM-beads/Images/NewTrialWC.png","lowH","1","43","1","1","1","1","true","",""
"image-keyboard-response","266","755877","0.0-3.0-6.0-1.0-1.43","5e6033dbfb4665381e27f2fc","6662009ae78f21dd82fcd179","66620d156bd723c39068f897","null","","null","","","","","","","","./tasks/HMM-beads/Images/WhiteBeadChoice.png","","","","","","","","","",""
"image-keyboard-response","267","756380","0.0-3.0-6.0-1.0-2.43","5e6033dbfb4665381e27f2fc","6662009ae78f21dd82fcd179","66620d156bd723c39068f897","null","","null","","","","","","","","./tasks/HMM-beads/Images/WhiteBeadChoiceCorrect.png","","","","","","","","","",""
"image-keyboard-response","268","756681","0.0-3.0-6.0-1.0-0.44","5e6033dbfb4665381e27f2fc","6662009ae78f21dd82fcd179","66620d156bd723c39068f897","299","","j","","","","","","","","./tasks/HMM-beads/Images/NewTrialWC.png","lowH","1","44","1","1","1","1","true","",""
"image-keyboard-response","269","756984","0.0-3.0-6.0-1.0-1.44","5e6033dbfb4665381e27f2fc","6662009ae78f21dd82fcd179","66620d156bd723c39068f897","null","","null","","","","","","","","./tasks/HMM-beads/Images/WhiteBeadChoice.png","","","","","","","","","",""
"image-keyboard-response","270","757488","0.0-3.0-6.0-1.0-2.44","5e6033dbfb4665381e27f2fc","6662009ae78f21dd82fcd179","66620d156bd723c39068f897","null","","null","","","","","","","","./tasks/HMM-beads/Images/WhiteBeadChoiceCorrect.png","","","","","","","","","",""
"image-keyboard-response","271","759077","0.0-3.0-6.0-1.0-0.45","5e6033dbfb4665381e27f2fc","6662009ae78f21dd82fcd179","66620d156bd723c39068f897","1586","","j","","","","","","","","./tasks/HMM-beads/Images/NewTrialWC.png","lowH","1","45","1","1","1","1","true","",""
"image-keyboard-response","272","759381","0.0-3.0-6.0-1.0-1.45","5e6033dbfb4665381e27f2fc","6662009ae78f21dd82fcd179","66620d156bd723c39068f897","null","","null","","","","","","","","./tasks/HMM-beads/Images/WhiteBeadChoice.png","","","","","","","","","",""
"image-keyboard-response","273","759883","0.0-3.0-6.0-1.0-2.45","5e6033dbfb4665381e27f2fc","6662009ae78f21dd82fcd179","66620d156bd723c39068f897","null","","null","","","","","","","","./tasks/HMM-beads/Images/WhiteBeadChoiceCorrect.png","","","","","","","","","",""
"image-keyboard-response","274","760553","0.0-3.0-6.0-1.0-0.46","5e6033dbfb4665381e27f2fc","6662009ae78f21dd82fcd179","66620d156bd723c39068f897","668","","j","","","","","","","","./tasks/HMM-beads/Images/NewTrialWC.png","lowH","1","46","1","1","1","1","true","",""
"image-keyboard-response","275","760856","0.0-3.0-6.0-1.0-1.46","5e6033dbfb4665381e27f2fc","6662009ae78f21dd82fcd179","66620d156bd723c39068f897","null","","null","","","","","","","","./tasks/HMM-beads/Images/WhiteBeadChoice.png","","","","","","","","","",""
"image-keyboard-response","276","761359","0.0-3.0-6.0-1.0-2.46","5e6033dbfb4665381e27f2fc","6662009ae78f21dd82fcd179","66620d156bd723c39068f897","null","","null","","","","","","","","./tasks/HMM-beads/Images/WhiteBeadChoiceCorrect.png","","","","","","","","","",""
"image-keyboard-response","277","761885","0.0-3.0-6.0-1.0-0.47","5e6033dbfb4665381e27f2fc","6662009ae78f21dd82fcd179","66620d156bd723c39068f897","523","","j","","","","","","","","./tasks/HMM-beads/Images/NewTrialWC.png","lowH","1","47","1","0","1","1","false","",""
"image-keyboard-response","278","762188","0.0-3.0-6.0-1.0-1.47","5e6033dbfb4665381e27f2fc","6662009ae78f21dd82fcd179","66620d156bd723c39068f897","null","","null","","","","","","","","./tasks/HMM-beads/Images/WhiteBeadChoice.png","","","","","","","","","",""
"image-keyboard-response","279","762692","0.0-3.0-6.0-1.0-2.47","5e6033dbfb4665381e27f2fc","6662009ae78f21dd82fcd179","66620d156bd723c39068f897","null","","null","","","","","","","","./tasks/HMM-beads/Images/WhiteBeadChoiceWrong.png","","","","","","","","","",""
"image-keyboard-response","280","764546","0.0-3.0-6.0-1.0-0.48","5e6033dbfb4665381e27f2fc","6662009ae78f21dd82fcd179","66620d156bd723c39068f897","1851","","j","","","","","","","","./tasks/HMM-beads/Images/NewTrialBC.png","lowH","1","48","1","0","0","1","false","",""
"image-keyboard-response","281","764849","0.0-3.0-6.0-1.0-1.48","5e6033dbfb4665381e27f2fc","6662009ae78f21dd82fcd179","66620d156bd723c39068f897","null","","null","","","","","","","","./tasks/HMM-beads/Images/WhiteBeadChoice.png","","","","","","","","","",""
"image-keyboard-response","282","765353","0.0-3.0-6.0-1.0-2.48","5e6033dbfb4665381e27f2fc","6662009ae78f21dd82fcd179","66620d156bd723c39068f897","null","","null","","","","","","","","./tasks/HMM-beads/Images/WhiteBeadChoiceWrong.png","","","","","","","","","",""
"image-keyboard-response","283","768172","0.0-3.0-6.0-1.0-0.49","5e6033dbfb4665381e27f2fc","6662009ae78f21dd82fcd179","66620d156bd723c39068f897","2817","","f","","","","","","","","./tasks/HMM-beads/Images/NewTrialBC.png","lowH","1","49","1","0","0","0","true","",""
"image-keyboard-response","284","768476","0.0-3.0-6.0-1.0-1.49","5e6033dbfb4665381e27f2fc","6662009ae78f21dd82fcd179","66620d156bd723c39068f897","null","","null","","","","","","","","./tasks/HMM-beads/Images/BlackBeadChoice.png","","","","","","","","","",""
"image-keyboard-response","285","768980","0.0-3.0-6.0-1.0-2.49","5e6033dbfb4665381e27f2fc","6662009ae78f21dd82fcd179","66620d156bd723c39068f897","null","","null","","","","","","","","./tasks/HMM-beads/Images/BlackBeadChoiceCorrect.png","","","","","","","","","",""
"image-keyboard-response","286","769444","0.0-3.0-6.0-1.0-0.50","5e6033dbfb4665381e27f2fc","6662009ae78f21dd82fcd179","66620d156bd723c39068f897","462","","f","","","","","","","","./tasks/HMM-beads/Images/NewTrialBC.png","lowH","1","50","1","1","0","0","false","",""
"image-keyboard-response","287","769747","0.0-3.0-6.0-1.0-1.50","5e6033dbfb4665381e27f2fc","6662009ae78f21dd82fcd179","66620d156bd723c39068f897","null","","null","","","","","","","","./tasks/HMM-beads/Images/BlackBeadChoice.png","","","","","","","","","",""
"image-keyboard-response","288","770251","0.0-3.0-6.0-1.0-2.50","5e6033dbfb4665381e27f2fc","6662009ae78f21dd82fcd179","66620d156bd723c39068f897","null","","null","","","","","","","","./tasks/HMM-beads/Images/BlackBeadChoiceWrong.png","","","","","","","","","",""
"image-keyboard-response","289","770686","0.0-3.0-6.0-1.0-0.51","5e6033dbfb4665381e27f2fc","6662009ae78f21dd82fcd179","66620d156bd723c39068f897","433","","f","","","","","","","","./tasks/HMM-beads/Images/NewTrialWC.png","lowH","1","51","1","1","1","0","false","",""
"image-keyboard-response","290","770988","0.0-3.0-6.0-1.0-1.51","5e6033dbfb4665381e27f2fc","6662009ae78f21dd82fcd179","66620d156bd723c39068f897","null","","null","","","","","","","","./tasks/HMM-beads/Images/BlackBeadChoice.png","","","","","","","","","",""
"image-keyboard-response","291","771492","0.0-3.0-6.0-1.0-2.51","5e6033dbfb4665381e27f2fc","6662009ae78f21dd82fcd179","66620d156bd723c39068f897","null","","null","","","","","","","","./tasks/HMM-beads/Images/BlackBeadChoiceWrong.png","","","","","","","","","",""
"image-keyboard-response","292","771524","0.0-3.0-6.0-1.0-0.52","5e6033dbfb4665381e27f2fc","6662009ae78f21dd82fcd179","66620d156bd723c39068f897","30","","j","","","","","","","","./tasks/HMM-beads/Images/NewTrialWC.png","lowH","1","52","1","1","1","1","true","",""
"image-keyboard-response","293","771825","0.0-3.0-6.0-1.0-1.52","5e6033dbfb4665381e27f2fc","6662009ae78f21dd82fcd179","66620d156bd723c39068f897","null","","null","","","","","","","","./tasks/HMM-beads/Images/WhiteBeadChoice.png","","","","","","","","","",""
"image-keyboard-response","294","772329","0.0-3.0-6.0-1.0-2.52","5e6033dbfb4665381e27f2fc","6662009ae78f21dd82fcd179","66620d156bd723c39068f897","null","","null","","","","","","","","./tasks/HMM-beads/Images/WhiteBeadChoiceCorrect.png","","","","","","","","","",""
"image-keyboard-response","295","772673","0.0-3.0-6.0-1.0-0.53","5e6033dbfb4665381e27f2fc","6662009ae78f21dd82fcd179","66620d156bd723c39068f897","342","","j","","","","","","","","./tasks/HMM-beads/Images/NewTrialWC.png","lowH","1","53","1","1","1","1","true","",""
"image-keyboard-response","296","772977","0.0-3.0-6.0-1.0-1.53","5e6033dbfb4665381e27f2fc","6662009ae78f21dd82fcd179","66620d156bd723c39068f897","null","","null","","","","","","","","./tasks/HMM-beads/Images/WhiteBeadChoice.png","","","","","","","","","",""
"image-keyboard-response","297","773480","0.0-3.0-6.0-1.0-2.53","5e6033dbfb4665381e27f2fc","6662009ae78f21dd82fcd179","66620d156bd723c39068f897","null","","null","","","","","","","","./tasks/HMM-beads/Images/WhiteBeadChoiceCorrect.png","","","","","","","","","",""
"image-keyboard-response","298","773825","0.0-3.0-6.0-1.0-0.54","5e6033dbfb4665381e27f2fc","6662009ae78f21dd82fcd179","66620d156bd723c39068f897","343","","j","","","","","","","","./tasks/HMM-beads/Images/NewTrialWC.png","lowH","1","54","1","1","1","1","true","",""
"image-keyboard-response","299","774129","0.0-3.0-6.0-1.0-1.54","5e6033dbfb4665381e27f2fc","6662009ae78f21dd82fcd179","66620d156bd723c39068f897","null","","null","","","","","","","","./tasks/HMM-beads/Images/WhiteBeadChoice.png","","","","","","","","","",""
"image-keyboard-response","300","774631","0.0-3.0-6.0-1.0-2.54","5e6033dbfb4665381e27f2fc","6662009ae78f21dd82fcd179","66620d156bd723c39068f897","null","","null","","","","","","","","./tasks/HMM-beads/Images/WhiteBeadChoiceCorrect.png","","","","","","","","","",""
"image-keyboard-response","301","774961","0.0-3.0-6.0-1.0-0.55","5e6033dbfb4665381e27f2fc","6662009ae78f21dd82fcd179","66620d156bd723c39068f897","328","","j","","","","","","","","./tasks/HMM-beads/Images/NewTrialWC.png","lowH","1","55","1","1","1","1","true","",""
"image-keyboard-response","302","775265","0.0-3.0-6.0-1.0-1.55","5e6033dbfb4665381e27f2fc","6662009ae78f21dd82fcd179","66620d156bd723c39068f897","null","","null","","","","","","","","./tasks/HMM-beads/Images/WhiteBeadChoice.png","","","","","","","","","",""
"image-keyboard-response","303","775769","0.0-3.0-6.0-1.0-2.55","5e6033dbfb4665381e27f2fc","6662009ae78f21dd82fcd179","66620d156bd723c39068f897","null","","null","","","","","","","","./tasks/HMM-beads/Images/WhiteBeadChoiceCorrect.png","","","","","","","","","",""
"image-keyboard-response","304","775896","0.0-3.0-6.0-1.0-0.56","5e6033dbfb4665381e27f2fc","6662009ae78f21dd82fcd179","66620d156bd723c39068f897","126","","j","","","","","","","","./tasks/HMM-beads/Images/NewTrialWC.png","lowH","1","56","1","1","1","1","true","",""
"image-keyboard-response","305","776200","0.0-3.0-6.0-1.0-1.56","5e6033dbfb4665381e27f2fc","6662009ae78f21dd82fcd179","66620d156bd723c39068f897","null","","null","","","","","","","","./tasks/HMM-beads/Images/WhiteBeadChoice.png","","","","","","","","","",""
"image-keyboard-response","306","776703","0.0-3.0-6.0-1.0-2.56","5e6033dbfb4665381e27f2fc","6662009ae78f21dd82fcd179","66620d156bd723c39068f897","null","","null","","","","","","","","./tasks/HMM-beads/Images/WhiteBeadChoiceCorrect.png","","","","","","","","","",""
"image-keyboard-response","307","776956","0.0-3.0-6.0-1.0-0.57","5e6033dbfb4665381e27f2fc","6662009ae78f21dd82fcd179","66620d156bd723c39068f897","250","","j","","","","","","","","./tasks/HMM-beads/Images/NewTrialWC.png","lowH","1","57","1","1","1","1","true","",""
"image-keyboard-response","308","777261","0.0-3.0-6.0-1.0-1.57","5e6033dbfb4665381e27f2fc","6662009ae78f21dd82fcd179","66620d156bd723c39068f897","null","","null","","","","","","","","./tasks/HMM-beads/Images/WhiteBeadChoice.png","","","","","","","","","",""
"image-keyboard-response","309","777764","0.0-3.0-6.0-1.0-2.57","5e6033dbfb4665381e27f2fc","6662009ae78f21dd82fcd179","66620d156bd723c39068f897","null","","null","","","","","","","","./tasks/HMM-beads/Images/WhiteBeadChoiceCorrect.png","","","","","","","","","",""
"image-keyboard-response","310","778035","0.0-3.0-6.0-1.0-0.58","5e6033dbfb4665381e27f2fc","6662009ae78f21dd82fcd179","66620d156bd723c39068f897","269","","j","","","","","","","","./tasks/HMM-beads/Images/NewTrialWC.png","lowH","1","58","1","1","1","1","true","",""
"image-keyboard-response","311","778339","0.0-3.0-6.0-1.0-1.58","5e6033dbfb4665381e27f2fc","6662009ae78f21dd82fcd179","66620d156bd723c39068f897","null","","null","","","","","","","","./tasks/HMM-beads/Images/WhiteBeadChoice.png","","","","","","","","","",""
"image-keyboard-response","312","778843","0.0-3.0-6.0-1.0-2.58","5e6033dbfb4665381e27f2fc","6662009ae78f21dd82fcd179","66620d156bd723c39068f897","null","","null","","","","","","","","./tasks/HMM-beads/Images/WhiteBeadChoiceCorrect.png","","","","","","","","","",""
"image-keyboard-response","313","781464","0.0-3.0-6.0-1.0-0.59","5e6033dbfb4665381e27f2fc","6662009ae78f21dd82fcd179","66620d156bd723c39068f897","2619","","j","","","","","","","","./tasks/HMM-beads/Images/NewTrialWC.png","lowH","1","59","1","0","1","1","false","",""
"image-keyboard-response","314","781767","0.0-3.0-6.0-1.0-1.59","5e6033dbfb4665381e27f2fc","6662009ae78f21dd82fcd179","66620d156bd723c39068f897","null","","null","","","","","","","","./tasks/HMM-beads/Images/WhiteBeadChoice.png","","","","","","","","","",""
"image-keyboard-response","315","782270","0.0-3.0-6.0-1.0-2.59","5e6033dbfb4665381e27f2fc","6662009ae78f21dd82fcd179","66620d156bd723c39068f897","null","","null","","","","","","","","./tasks/HMM-beads/Images/WhiteBeadChoiceWrong.png","","","","","","","","","",""
"image-keyboard-response","316","783096","0.0-3.0-6.0-1.0-0.60","5e6033dbfb4665381e27f2fc","6662009ae78f21dd82fcd179","66620d156bd723c39068f897","823","","f","","","","","","","","./tasks/HMM-beads/Images/NewTrialBC.png","lowH","1","60","1","1","0","0","false","",""
"image-keyboard-response","317","783399","0.0-3.0-6.0-1.0-1.60","5e6033dbfb4665381e27f2fc","6662009ae78f21dd82fcd179","66620d156bd723c39068f897","null","","null","","","","","","","","./tasks/HMM-beads/Images/BlackBeadChoice.png","","","","","","","","","",""
"image-keyboard-response","318","783903","0.0-3.0-6.0-1.0-2.60","5e6033dbfb4665381e27f2fc","6662009ae78f21dd82fcd179","66620d156bd723c39068f897","null","","null","","","","","","","","./tasks/HMM-beads/Images/BlackBeadChoiceWrong.png","","","","","","","","","",""
"image-keyboard-response","319","784198","0.0-3.0-6.0-1.0-0.61","5e6033dbfb4665381e27f2fc","6662009ae78f21dd82fcd179","66620d156bd723c39068f897","294","","j","","","","","","","","./tasks/HMM-beads/Images/NewTrialWC.png","lowH","1","61","1","1","1","1","true","",""
"image-keyboard-response","320","784501","0.0-3.0-6.0-1.0-1.61","5e6033dbfb4665381e27f2fc","6662009ae78f21dd82fcd179","66620d156bd723c39068f897","null","","null","","","","","","","","./tasks/HMM-beads/Images/WhiteBeadChoice.png","","","","","","","","","",""
"image-keyboard-response","321","785004","0.0-3.0-6.0-1.0-2.61","5e6033dbfb4665381e27f2fc","6662009ae78f21dd82fcd179","66620d156bd723c39068f897","null","","null","","","","","","","","./tasks/HMM-beads/Images/WhiteBeadChoiceCorrect.png","","","","","","","","","",""
"image-keyboard-response","322","785332","0.0-3.0-6.0-1.0-0.62","5e6033dbfb4665381e27f2fc","6662009ae78f21dd82fcd179","66620d156bd723c39068f897","326","","j","","","","","","","","./tasks/HMM-beads/Images/NewTrialWC.png","lowH","1","62","1","0","1","1","false","",""
"image-keyboard-response","323","785637","0.0-3.0-6.0-1.0-1.62","5e6033dbfb4665381e27f2fc","6662009ae78f21dd82fcd179","66620d156bd723c39068f897","null","","null","","","","","","","","./tasks/HMM-beads/Images/WhiteBeadChoice.png","","","","","","","","","",""
"image-keyboard-response","324","786140","0.0-3.0-6.0-1.0-2.62","5e6033dbfb4665381e27f2fc","6662009ae78f21dd82fcd179","66620d156bd723c39068f897","null","","null","","","","","","","","./tasks/HMM-beads/Images/WhiteBeadChoiceWrong.png","","","","","","","","","",""
"image-keyboard-response","325","805012","0.0-3.0-6.0-1.0-0.63","5e6033dbfb4665381e27f2fc","6662009ae78f21dd82fcd179","66620d156bd723c39068f897","18871","","j","","","","","","","","./tasks/HMM-beads/Images/NewTrialBC.png","lowH","1","63","1","1","0","1","true","",""
"image-keyboard-response","326","805315","0.0-3.0-6.0-1.0-1.63","5e6033dbfb4665381e27f2fc","6662009ae78f21dd82fcd179","66620d156bd723c39068f897","null","","null","","","","","","","","./tasks/HMM-beads/Images/WhiteBeadChoice.png","","","","","","","","","",""
"image-keyboard-response","327","805819","0.0-3.0-6.0-1.0-2.63","5e6033dbfb4665381e27f2fc","6662009ae78f21dd82fcd179","66620d156bd723c39068f897","null","","null","","","","","","","","./tasks/HMM-beads/Images/WhiteBeadChoiceCorrect.png","","","","","","","","","",""
"image-keyboard-response","328","805842","0.0-3.0-6.0-1.0-0.64","5e6033dbfb4665381e27f2fc","6662009ae78f21dd82fcd179","66620d156bd723c39068f897","21","","j","","","","","","","","./tasks/HMM-beads/Images/NewTrialWC.png","lowH","1","64","1","1","1","1","true","",""
"image-keyboard-response","329","806146","0.0-3.0-6.0-1.0-1.64","5e6033dbfb4665381e27f2fc","6662009ae78f21dd82fcd179","66620d156bd723c39068f897","null","","null","","","","","","","","./tasks/HMM-beads/Images/WhiteBeadChoice.png","","","","","","","","","",""
"image-keyboard-response","330","806649","0.0-3.0-6.0-1.0-2.64","5e6033dbfb4665381e27f2fc","6662009ae78f21dd82fcd179","66620d156bd723c39068f897","null","","null","","","","","","","","./tasks/HMM-beads/Images/WhiteBeadChoiceCorrect.png","","","","","","","","","",""
"image-keyboard-response","331","806796","0.0-3.0-6.0-1.0-0.65","5e6033dbfb4665381e27f2fc","6662009ae78f21dd82fcd179","66620d156bd723c39068f897","145","","j","","","","","","","","./tasks/HMM-beads/Images/NewTrialWC.png","lowH","1","65","1","1","1","1","true","",""
"image-keyboard-response","332","807099","0.0-3.0-6.0-1.0-1.65","5e6033dbfb4665381e27f2fc","6662009ae78f21dd82fcd179","66620d156bd723c39068f897","null","","null","","","","","","","","./tasks/HMM-beads/Images/WhiteBeadChoice.png","","","","","","","","","",""
"image-keyboard-response","333","807602","0.0-3.0-6.0-1.0-2.65","5e6033dbfb4665381e27f2fc","6662009ae78f21dd82fcd179","66620d156bd723c39068f897","null","","null","","","","","","","","./tasks/HMM-beads/Images/WhiteBeadChoiceCorrect.png","","","","","","","","","",""
"image-keyboard-response","334","807975","0.0-3.0-6.0-1.0-0.66","5e6033dbfb4665381e27f2fc","6662009ae78f21dd82fcd179","66620d156bd723c39068f897","371","","j","","","","","","","","./tasks/HMM-beads/Images/NewTrialWC.png","lowH","1","66","1","1","1","1","true","",""
"image-keyboard-response","335","808278","0.0-3.0-6.0-1.0-1.66","5e6033dbfb4665381e27f2fc","6662009ae78f21dd82fcd179","66620d156bd723c39068f897","null","","null","","","","","","","","./tasks/HMM-beads/Images/WhiteBeadChoice.png","","","","","","","","","",""
"image-keyboard-response","336","808781","0.0-3.0-6.0-1.0-2.66","5e6033dbfb4665381e27f2fc","6662009ae78f21dd82fcd179","66620d156bd723c39068f897","null","","null","","","","","","","","./tasks/HMM-beads/Images/WhiteBeadChoiceCorrect.png","","","","","","","","","",""
"image-keyboard-response","337","809113","0.0-3.0-6.0-1.0-0.67","5e6033dbfb4665381e27f2fc","6662009ae78f21dd82fcd179","66620d156bd723c39068f897","329","","j","","","","","","","","./tasks/HMM-beads/Images/NewTrialWC.png","lowH","1","67","1","0","1","1","false","",""
"image-keyboard-response","338","809417","0.0-3.0-6.0-1.0-1.67","5e6033dbfb4665381e27f2fc","6662009ae78f21dd82fcd179","66620d156bd723c39068f897","null","","null","","","","","","","","./tasks/HMM-beads/Images/WhiteBeadChoice.png","","","","","","","","","",""
"image-keyboard-response","339","809920","0.0-3.0-6.0-1.0-2.67","5e6033dbfb4665381e27f2fc","6662009ae78f21dd82fcd179","66620d156bd723c39068f897","null","","null","","","","","","","","./tasks/HMM-beads/Images/WhiteBeadChoiceWrong.png","","","","","","","","","",""
"image-keyboard-response","340","810296","0.0-3.0-6.0-1.0-0.68","5e6033dbfb4665381e27f2fc","6662009ae78f21dd82fcd179","66620d156bd723c39068f897","373","","j","","","","","","","","./tasks/HMM-beads/Images/NewTrialBC.png","lowH","1","68","1","1","0","1","true","",""
"image-keyboard-response","341","810599","0.0-3.0-6.0-1.0-1.68","5e6033dbfb4665381e27f2fc","6662009ae78f21dd82fcd179","66620d156bd723c39068f897","null","","null","","","","","","","","./tasks/HMM-beads/Images/WhiteBeadChoice.png","","","","","","","","","",""
"image-keyboard-response","342","811102","0.0-3.0-6.0-1.0-2.68","5e6033dbfb4665381e27f2fc","6662009ae78f21dd82fcd179","66620d156bd723c39068f897","null","","null","","","","","","","","./tasks/HMM-beads/Images/WhiteBeadChoiceCorrect.png","","","","","","","","","",""
"image-keyboard-response","343","811217","0.0-3.0-6.0-1.0-0.69","5e6033dbfb4665381e27f2fc","6662009ae78f21dd82fcd179","66620d156bd723c39068f897","113","","j","","","","","","","","./tasks/HMM-beads/Images/NewTrialWC.png","lowH","1","69","0","1","1","1","true","",""
"image-keyboard-response","344","811521","0.0-3.0-6.0-1.0-1.69","5e6033dbfb4665381e27f2fc","6662009ae78f21dd82fcd179","66620d156bd723c39068f897","null","","null","","","","","","","","./tasks/HMM-beads/Images/WhiteBeadChoice.png","","","","","","","","","",""
"image-keyboard-response","345","812025","0.0-3.0-6.0-1.0-2.69","5e6033dbfb4665381e27f2fc","6662009ae78f21dd82fcd179","66620d156bd723c39068f897","null","","null","","","","","","","","./tasks/HMM-beads/Images/WhiteBeadChoiceCorrect.png","","","","","","","","","",""
"image-keyboard-response","346","812329","0.0-3.0-6.0-1.0-0.70","5e6033dbfb4665381e27f2fc","6662009ae78f21dd82fcd179","66620d156bd723c39068f897","302","","j","","","","","","","","./tasks/HMM-beads/Images/NewTrialWC.png","lowH","1","70","0","1","1","1","true","",""
"image-keyboard-response","347","812632","0.0-3.0-6.0-1.0-1.70","5e6033dbfb4665381e27f2fc","6662009ae78f21dd82fcd179","66620d156bd723c39068f897","null","","null","","","","","","","","./tasks/HMM-beads/Images/WhiteBeadChoice.png","","","","","","","","","",""
"image-keyboard-response","348","813136","0.0-3.0-6.0-1.0-2.70","5e6033dbfb4665381e27f2fc","6662009ae78f21dd82fcd179","66620d156bd723c39068f897","null","","null","","","","","","","","./tasks/HMM-beads/Images/WhiteBeadChoiceCorrect.png","","","","","","","","","",""
"image-keyboard-response","349","813503","0.0-3.0-6.0-1.0-0.71","5e6033dbfb4665381e27f2fc","6662009ae78f21dd82fcd179","66620d156bd723c39068f897","365","","j","","","","","","","","./tasks/HMM-beads/Images/NewTrialWC.png","lowH","1","71","0","0","1","1","false","",""
"image-keyboard-response","350","813806","0.0-3.0-6.0-1.0-1.71","5e6033dbfb4665381e27f2fc","6662009ae78f21dd82fcd179","66620d156bd723c39068f897","null","","null","","","","","","","","./tasks/HMM-beads/Images/WhiteBeadChoice.png","","","","","","","","","",""
"image-keyboard-response","351","814309","0.0-3.0-6.0-1.0-2.71","5e6033dbfb4665381e27f2fc","6662009ae78f21dd82fcd179","66620d156bd723c39068f897","null","","null","","","","","","","","./tasks/HMM-beads/Images/WhiteBeadChoiceWrong.png","","","","","","","","","",""
"image-keyboard-response","352","814672","0.0-3.0-6.0-1.0-0.72","5e6033dbfb4665381e27f2fc","6662009ae78f21dd82fcd179","66620d156bd723c39068f897","361","","j","","","","","","","","./tasks/HMM-beads/Images/NewTrialBC.png","lowH","1","72","0","0","0","1","false","",""
"image-keyboard-response","353","814976","0.0-3.0-6.0-1.0-1.72","5e6033dbfb4665381e27f2fc","6662009ae78f21dd82fcd179","66620d156bd723c39068f897","null","","null","","","","","","","","./tasks/HMM-beads/Images/WhiteBeadChoice.png","","","","","","","","","",""
"image-keyboard-response","354","815479","0.0-3.0-6.0-1.0-2.72","5e6033dbfb4665381e27f2fc","6662009ae78f21dd82fcd179","66620d156bd723c39068f897","null","","null","","","","","","","","./tasks/HMM-beads/Images/WhiteBeadChoiceWrong.png","","","","","","","","","",""
"image-keyboard-response","355","815907","0.0-3.0-6.0-1.0-0.73","5e6033dbfb4665381e27f2fc","6662009ae78f21dd82fcd179","66620d156bd723c39068f897","427","","j","","","","","","","","./tasks/HMM-beads/Images/NewTrialBC.png","lowH","1","73","0","1","0","1","true","",""
"image-keyboard-response","356","816212","0.0-3.0-6.0-1.0-1.73","5e6033dbfb4665381e27f2fc","6662009ae78f21dd82fcd179","66620d156bd723c39068f897","null","","null","","","","","","","","./tasks/HMM-beads/Images/WhiteBeadChoice.png","","","","","","","","","",""
"image-keyboard-response","357","816715","0.0-3.0-6.0-1.0-2.73","5e6033dbfb4665381e27f2fc","6662009ae78f21dd82fcd179","66620d156bd723c39068f897","null","","null","","","","","","","","./tasks/HMM-beads/Images/WhiteBeadChoiceCorrect.png","","","","","","","","","",""
"image-keyboard-response","358","817091","0.0-3.0-6.0-1.0-0.74","5e6033dbfb4665381e27f2fc","6662009ae78f21dd82fcd179","66620d156bd723c39068f897","375","","j","","","","","","","","./tasks/HMM-beads/Images/NewTrialWC.png","lowH","1","74","0","0","1","1","false","",""
"image-keyboard-response","359","817394","0.0-3.0-6.0-1.0-1.74","5e6033dbfb4665381e27f2fc","6662009ae78f21dd82fcd179","66620d156bd723c39068f897","null","","null","","","","","","","","./tasks/HMM-beads/Images/WhiteBeadChoice.png","","","","","","","","","",""
"image-keyboard-response","360","817897","0.0-3.0-6.0-1.0-2.74","5e6033dbfb4665381e27f2fc","6662009ae78f21dd82fcd179","66620d156bd723c39068f897","null","","null","","","","","","","","./tasks/HMM-beads/Images/WhiteBeadChoiceWrong.png","","","","","","","","","",""
"image-keyboard-response","361","818569","0.0-3.0-6.0-1.0-0.75","5e6033dbfb4665381e27f2fc","6662009ae78f21dd82fcd179","66620d156bd723c39068f897","669","","j","","","","","","","","./tasks/HMM-beads/Images/NewTrialBC.png","lowH","1","75","0","1","0","1","true","",""
"image-keyboard-response","362","818872","0.0-3.0-6.0-1.0-1.75","5e6033dbfb4665381e27f2fc","6662009ae78f21dd82fcd179","66620d156bd723c39068f897","null","","null","","","","","","","","./tasks/HMM-beads/Images/WhiteBeadChoice.png","","","","","","","","","",""
"image-keyboard-response","363","819375","0.0-3.0-6.0-1.0-2.75","5e6033dbfb4665381e27f2fc","6662009ae78f21dd82fcd179","66620d156bd723c39068f897","null","","null","","","","","","","","./tasks/HMM-beads/Images/WhiteBeadChoiceCorrect.png","","","","","","","","","",""
"image-keyboard-response","364","819765","0.0-3.0-6.0-1.0-0.76","5e6033dbfb4665381e27f2fc","6662009ae78f21dd82fcd179","66620d156bd723c39068f897","389","","j","","","","","","","","./tasks/HMM-beads/Images/NewTrialWC.png","lowH","1","76","0","1","1","1","true","",""
"image-keyboard-response","365","820070","0.0-3.0-6.0-1.0-1.76","5e6033dbfb4665381e27f2fc","6662009ae78f21dd82fcd179","66620d156bd723c39068f897","null","","null","","","","","","","","./tasks/HMM-beads/Images/WhiteBeadChoice.png","","","","","","","","","",""
"image-keyboard-response","366","820573","0.0-3.0-6.0-1.0-2.76","5e6033dbfb4665381e27f2fc","6662009ae78f21dd82fcd179","66620d156bd723c39068f897","null","","null","","","","","","","","./tasks/HMM-beads/Images/WhiteBeadChoiceCorrect.png","","","","","","","","","",""
"image-keyboard-response","367","821046","0.0-3.0-6.0-1.0-0.77","5e6033dbfb4665381e27f2fc","6662009ae78f21dd82fcd179","66620d156bd723c39068f897","470","","j","","","","","","","","./tasks/HMM-beads/Images/NewTrialWC.png","lowH","1","77","0","0","1","1","false","",""
"image-keyboard-response","368","821349","0.0-3.0-6.0-1.0-1.77","5e6033dbfb4665381e27f2fc","6662009ae78f21dd82fcd179","66620d156bd723c39068f897","null","","null","","","","","","","","./tasks/HMM-beads/Images/WhiteBeadChoice.png","","","","","","","","","",""
"image-keyboard-response","369","821852","0.0-3.0-6.0-1.0-2.77","5e6033dbfb4665381e27f2fc","6662009ae78f21dd82fcd179","66620d156bd723c39068f897","null","","null","","","","","","","","./tasks/HMM-beads/Images/WhiteBeadChoiceWrong.png","","","","","","","","","",""
"image-keyboard-response","370","822696","0.0-3.0-6.0-1.0-0.78","5e6033dbfb4665381e27f2fc","6662009ae78f21dd82fcd179","66620d156bd723c39068f897","841","","j","","","","","","","","./tasks/HMM-beads/Images/NewTrialBC.png","lowH","1","78","0","0","0","1","false","",""
"image-keyboard-response","371","823000","0.0-3.0-6.0-1.0-1.78","5e6033dbfb4665381e27f2fc","6662009ae78f21dd82fcd179","66620d156bd723c39068f897","null","","null","","","","","","","","./tasks/HMM-beads/Images/WhiteBeadChoice.png","","","","","","","","","",""
"image-keyboard-response","372","823503","0.0-3.0-6.0-1.0-2.78","5e6033dbfb4665381e27f2fc","6662009ae78f21dd82fcd179","66620d156bd723c39068f897","null","","null","","","","","","","","./tasks/HMM-beads/Images/WhiteBeadChoiceWrong.png","","","","","","","","","",""
"image-keyboard-response","373","823625","0.0-3.0-6.0-1.0-0.79","5e6033dbfb4665381e27f2fc","6662009ae78f21dd82fcd179","66620d156bd723c39068f897","119","","j","","","","","","","","./tasks/HMM-beads/Images/NewTrialBC.png","lowH","1","79","0","0","0","1","false","",""
"image-keyboard-response","374","823927","0.0-3.0-6.0-1.0-1.79","5e6033dbfb4665381e27f2fc","6662009ae78f21dd82fcd179","66620d156bd723c39068f897","null","","null","","","","","","","","./tasks/HMM-beads/Images/WhiteBeadChoice.png","","","","","","","","","",""
