"trial_type","trial_index","time_elapsed","internal_node_id","subject_id","study_id","session_id","rt","url","response","question_order","view_history","success","timeout","failed_images","failed_audio","failed_video","stimulus","block","block_rep","trial_number","jar","bead","previous_bead","choice","correct","lowH_score","total_bonus"
"pavlovia","0","1541","0.0-0.0","5f4825f51e38a119965b561a","6662009ae78f21dd82fcd179","666205ebdf49db053d4e0056","","","","","","","","","","","","","","","","","","","","",""
"external-html","1","28237","0.0-1.0-0.0","5f4825f51e38a119965b561a","6662009ae78f21dd82fcd179","666205ebdf49db053d4e0056","26507","new_consent.html","","","","","","","","","","","","","","","","","","",""
"survey-multi-choice","2","32776","0.0-1.0-1.0","5f4825f51e38a119965b561a","6662009ae78f21dd82fcd179","666205ebdf49db053d4e0056","4536","","{""Q0"":""Female"",""Q1"":""White""}","[0,1]","","","","","","","","","","","","","","","","",""
"survey-text","3","35502","0.0-1.0-2.0","5f4825f51e38a119965b561a","6662009ae78f21dd82fcd179","666205ebdf49db053d4e0056","2714","","{""Q0"":""32""}","","","","","","","","","","","","","","","","","",""
"instructions","4","37132","0.0-2.0","5f4825f51e38a119965b561a","6662009ae78f21dd82fcd179","666205ebdf49db053d4e0056","1513","","","","[{""page_index"":0,""viewing_time"":1513}]","","","","","","","","","","","","","","","",""
"preload","5","38705","0.0-3.0-0.0","5f4825f51e38a119965b561a","6662009ae78f21dd82fcd179","666205ebdf49db053d4e0056","","","","","","true","false","[]","[]","[]","","","","","","","","","","",""
"instructions","6","134725","0.0-3.0-1.0","5f4825f51e38a119965b561a","6662009ae78f21dd82fcd179","666205ebdf49db053d4e0056","96019","","","","[{""page_index"":0,""viewing_time"":11158},{""page_index"":1,""viewing_time"":6887},{""page_index"":2,""viewing_time"":10445},{""page_index"":3,""viewing_time"":1611},{""page_index"":4,""viewing_time"":8688},{""page_index"":5,""viewing_time"":20833},{""page_index"":6,""viewing_time"":4833},{""page_index"":7,""viewing_time"":6017},{""page_index"":8,""viewing_time"":7164},{""page_index"":9,""viewing_time"":7170},{""page_index"":10,""viewing_time"":7982},{""page_index"":11,""viewing_time"":3233}]","","","","","","","","","","","","","","","",""
"html-button-response","7","138311","0.0-3.0-2.0-0.0-0.0","5f4825f51e38a119965b561a","6662009ae78f21dd82fcd179","666205ebdf49db053d4e0056","3584","","1","","","","","","","","<div align=center>Your goal is to predict…?<br><br></div>","","","","","","","","","",""
"html-button-response","8","144907","0.0-3.0-2.0-1.0-0.0","5f4825f51e38a119965b561a","6662009ae78f21dd82fcd179","666205ebdf49db053d4e0056","3824","","2","","","","","","","","<div align=center>In the jar with mostly white beads, there are ___% white beads and ___% black beads?<br><br></div>","","","","","","","","","",""
"html-button-response","9","151241","0.0-3.0-2.0-2.0-0.0","5f4825f51e38a119965b561a","6662009ae78f21dd82fcd179","666205ebdf49db053d4e0056","4478","","0","","","","","","","","<div align=center>When there is a 1% probability that the jars will switch, the next bead will most likely be drawn from the…<br><br></div>","","","","","","","","","",""
"html-button-response","10","156977","0.0-3.0-2.0-3.0-0.0","5f4825f51e38a119965b561a","6662009ae78f21dd82fcd179","666205ebdf49db053d4e0056","3317","","1","","","","","","","","<div align=center>When there is a 99% probability that the jars will switch, the next bead will most likely be drawn from the…<br><br></div>","","","","","","","","","",""
"instructions","11","168027","0.0-3.0-3.0","5f4825f51e38a119965b561a","6662009ae78f21dd82fcd179","666205ebdf49db053d4e0056","9721","","","","[{""page_index"":0,""viewing_time"":9720}]","","","","","","","","","","","","","","","",""
"html-keyboard-response","12","175977","0.0-3.0-4.0-0.0","5f4825f51e38a119965b561a","6662009ae78f21dd82fcd179","666205ebdf49db053d4e0056","7948",""," ","","","","","","","","<div align=center>In this practice block, there will be a <b>1% chance</b> that the jar on the next trial will be different from the jar on the current trial.<br><br></div>","","","","","","","","","",""
"image-keyboard-response","13","179328","0.0-3.0-4.0-1.0-0.0","5f4825f51e38a119965b561a","6662009ae78f21dd82fcd179","666205ebdf49db053d4e0056","3349","","f","","","","","","","","./tasks/HMM-beads/Images/NoChoice.png","practice","0","0","0","0","9","0","true","",""
"image-keyboard-response","14","179641","0.0-3.0-4.0-1.0-1.0","5f4825f51e38a119965b561a","6662009ae78f21dd82fcd179","666205ebdf49db053d4e0056","null","","null","","","","","","","","./tasks/HMM-beads/Images/BlackBeadChoice.png","","","","","","","","","",""
"image-keyboard-response","15","180149","0.0-3.0-4.0-1.0-2.0","5f4825f51e38a119965b561a","6662009ae78f21dd82fcd179","666205ebdf49db053d4e0056","null","","null","","","","","","","","./tasks/HMM-beads/Images/BlackBeadChoiceCorrect.png","","","","","","","","","",""
"image-keyboard-response","16","185793","0.0-3.0-4.0-1.0-0.1","5f4825f51e38a119965b561a","6662009ae78f21dd82fcd179","666205ebdf49db053d4e0056","5643","","f","","","","","","","","./tasks/HMM-beads/Images/NewTrialBC.png","practice","0","1","0","0","0","0","true","",""
"image-keyboard-response","17","186109","0.0-3.0-4.0-1.0-1.1","5f4825f51e38a119965b561a","6662009ae78f21dd82fcd179","666205ebdf49db053d4e0056","null","","null","","","","","","","","./tasks/HMM-beads/Images/BlackBeadChoice.png","","","","","","","","","",""
"image-keyboard-response","18","186626","0.0-3.0-4.0-1.0-2.1","5f4825f51e38a119965b561a","6662009ae78f21dd82fcd179","666205ebdf49db053d4e0056","null","","null","","","","","","","","./tasks/HMM-beads/Images/BlackBeadChoiceCorrect.png","","","","","","","","","",""
"image-keyboard-response","19","190129","0.0-3.0-4.0-1.0-0.2","5f4825f51e38a119965b561a","6662009ae78f21dd82fcd179","666205ebdf49db053d4e0056","3502","","f","","","","","","","","./tasks/HMM-beads/Images/NewTrialBC.png","practice","0","2","0","1","0","0","false","",""
"image-keyboard-response","20","190439","0.0-3.0-4.0-1.0-1.2","5f4825f51e38a119965b561a","6662009ae78f21dd82fcd179","666205ebdf49db053d4e0056","null","","null","","","","","","","","./tasks/HMM-beads/Images/BlackBeadChoice.png","","","","","","","","","",""
"image-keyboard-response","21","190957","0.0-3.0-4.0-1.0-2.2","5f4825f51e38a119965b561a","6662009ae78f21dd82fcd179","666205ebdf49db053d4e0056","null","","null","","","","","","","","./tasks/HMM-beads/Images/BlackBeadChoiceWrong.png","","","","","","","","","",""
"image-keyboard-response","22","191656","0.0-3.0-4.0-1.0-0.3","5f4825f51e38a119965b561a","6662009ae78f21dd82fcd179","666205ebdf49db053d4e0056","697","","j","","","","","","","","./tasks/HMM-beads/Images/NewTrialWC.png","practice","0","3","0","0","1","1","false","",""
"image-keyboard-response","23","191967","0.0-3.0-4.0-1.0-1.3","5f4825f51e38a119965b561a","6662009ae78f21dd82fcd179","666205ebdf49db053d4e0056","null","","null","","","","","","","","./tasks/HMM-beads/Images/WhiteBeadChoice.png","","","","","","","","","",""
"image-keyboard-response","24","192481","0.0-3.0-4.0-1.0-2.3","5f4825f51e38a119965b561a","6662009ae78f21dd82fcd179","666205ebdf49db053d4e0056","null","","null","","","","","","","","./tasks/HMM-beads/Images/WhiteBeadChoiceWrong.png","","","","","","","","","",""
"image-keyboard-response","25","197320","0.0-3.0-4.0-1.0-0.4","5f4825f51e38a119965b561a","6662009ae78f21dd82fcd179","666205ebdf49db053d4e0056","4838","","f","","","","","","","","./tasks/HMM-beads/Images/NewTrialBC.png","practice","0","4","0","0","0","0","true","",""
"image-keyboard-response","26","197627","0.0-3.0-4.0-1.0-1.4","5f4825f51e38a119965b561a","6662009ae78f21dd82fcd179","666205ebdf49db053d4e0056","null","","null","","","","","","","","./tasks/HMM-beads/Images/BlackBeadChoice.png","","","","","","","","","",""
"image-keyboard-response","27","198131","0.0-3.0-4.0-1.0-2.4","5f4825f51e38a119965b561a","6662009ae78f21dd82fcd179","666205ebdf49db053d4e0056","null","","null","","","","","","","","./tasks/HMM-beads/Images/BlackBeadChoiceCorrect.png","","","","","","","","","",""
"image-keyboard-response","28","200566","0.0-3.0-4.0-1.0-0.5","5f4825f51e38a119965b561a","6662009ae78f21dd82fcd179","666205ebdf49db053d4e0056","2434","","f","","","","","","","","./tasks/HMM-beads/Images/NewTrialBC.png","practice","0","5","0","1","0","0","false","",""
"image-keyboard-response","29","200875","0.0-3.0-4.0-1.0-1.5","5f4825f51e38a119965b561a","6662009ae78f21dd82fcd179","666205ebdf49db053d4e0056","null","","null","","","","","","","","./tasks/HMM-beads/Images/BlackBeadChoice.png","","","","","","","","","",""
"image-keyboard-response","30","201389","0.0-3.0-4.0-1.0-2.5","5f4825f51e38a119965b561a","6662009ae78f21dd82fcd179","666205ebdf49db053d4e0056","null","","null","","","","","","","","./tasks/HMM-beads/Images/BlackBeadChoiceWrong.png","","","","","","","","","",""
"image-keyboard-response","31","204175","0.0-3.0-4.0-1.0-0.6","5f4825f51e38a119965b561a","6662009ae78f21dd82fcd179","666205ebdf49db053d4e0056","2784","","f","","","","","","","","./tasks/HMM-beads/Images/NewTrialWC.png","practice","0","6","0","0","1","0","true","",""
"image-keyboard-response","32","204481","0.0-3.0-4.0-1.0-1.6","5f4825f51e38a119965b561a","6662009ae78f21dd82fcd179","666205ebdf49db053d4e0056","null","","null","","","","","","","","./tasks/HMM-beads/Images/BlackBeadChoice.png","","","","","","","","","",""
"image-keyboard-response","33","204994","0.0-3.0-4.0-1.0-2.6","5f4825f51e38a119965b561a","6662009ae78f21dd82fcd179","666205ebdf49db053d4e0056","null","","null","","","","","","","","./tasks/HMM-beads/Images/BlackBeadChoiceCorrect.png","","","","","","","","","",""
"image-keyboard-response","34","206635","0.0-3.0-4.0-1.0-0.7","5f4825f51e38a119965b561a","6662009ae78f21dd82fcd179","666205ebdf49db053d4e0056","1640","","f","","","","","","","","./tasks/HMM-beads/Images/NewTrialBC.png","practice","0","7","0","0","0","0","true","",""
"image-keyboard-response","35","206951","0.0-3.0-4.0-1.0-1.7","5f4825f51e38a119965b561a","6662009ae78f21dd82fcd179","666205ebdf49db053d4e0056","null","","null","","","","","","","","./tasks/HMM-beads/Images/BlackBeadChoice.png","","","","","","","","","",""
"image-keyboard-response","36","207461","0.0-3.0-4.0-1.0-2.7","5f4825f51e38a119965b561a","6662009ae78f21dd82fcd179","666205ebdf49db053d4e0056","null","","null","","","","","","","","./tasks/HMM-beads/Images/BlackBeadChoiceCorrect.png","","","","","","","","","",""
"image-keyboard-response","37","208168","0.0-3.0-4.0-1.0-0.8","5f4825f51e38a119965b561a","6662009ae78f21dd82fcd179","666205ebdf49db053d4e0056","706","","f","","","","","","","","./tasks/HMM-beads/Images/NewTrialBC.png","practice","0","8","0","0","0","0","true","",""
"image-keyboard-response","38","208491","0.0-3.0-4.0-1.0-1.8","5f4825f51e38a119965b561a","6662009ae78f21dd82fcd179","666205ebdf49db053d4e0056","null","","null","","","","","","","","./tasks/HMM-beads/Images/BlackBeadChoice.png","","","","","","","","","",""
"image-keyboard-response","39","208994","0.0-3.0-4.0-1.0-2.8","5f4825f51e38a119965b561a","6662009ae78f21dd82fcd179","666205ebdf49db053d4e0056","null","","null","","","","","","","","./tasks/HMM-beads/Images/BlackBeadChoiceCorrect.png","","","","","","","","","",""
"image-keyboard-response","40","209789","0.0-3.0-4.0-1.0-0.9","5f4825f51e38a119965b561a","6662009ae78f21dd82fcd179","666205ebdf49db053d4e0056","793","","f","","","","","","","","./tasks/HMM-beads/Images/NewTrialBC.png","practice","0","9","0","1","0","0","false","",""
"image-keyboard-response","41","210091","0.0-3.0-4.0-1.0-1.9","5f4825f51e38a119965b561a","6662009ae78f21dd82fcd179","666205ebdf49db053d4e0056","null","","null","","","","","","","","./tasks/HMM-beads/Images/BlackBeadChoice.png","","","","","","","","","",""
"image-keyboard-response","42","210597","0.0-3.0-4.0-1.0-2.9","5f4825f51e38a119965b561a","6662009ae78f21dd82fcd179","666205ebdf49db053d4e0056","null","","null","","","","","","","","./tasks/HMM-beads/Images/BlackBeadChoiceWrong.png","","","","","","","","","",""
"image-keyboard-response","43","214082","0.0-3.0-4.0-1.0-0.10","5f4825f51e38a119965b561a","6662009ae78f21dd82fcd179","666205ebdf49db053d4e0056","3480","","f","","","","","","","","./tasks/HMM-beads/Images/NewTrialWC.png","practice","0","10","0","0","1","0","true","",""
"image-keyboard-response","44","214387","0.0-3.0-4.0-1.0-1.10","5f4825f51e38a119965b561a","6662009ae78f21dd82fcd179","666205ebdf49db053d4e0056","null","","null","","","","","","","","./tasks/HMM-beads/Images/BlackBeadChoice.png","","","","","","","","","",""
"image-keyboard-response","45","214897","0.0-3.0-4.0-1.0-2.10","5f4825f51e38a119965b561a","6662009ae78f21dd82fcd179","666205ebdf49db053d4e0056","null","","null","","","","","","","","./tasks/HMM-beads/Images/BlackBeadChoiceCorrect.png","","","","","","","","","",""
"image-keyboard-response","46","215763","0.0-3.0-4.0-1.0-0.11","5f4825f51e38a119965b561a","6662009ae78f21dd82fcd179","666205ebdf49db053d4e0056","864","","f","","","","","","","","./tasks/HMM-beads/Images/NewTrialBC.png","practice","0","11","0","1","0","0","false","",""
"image-keyboard-response","47","216077","0.0-3.0-4.0-1.0-1.11","5f4825f51e38a119965b561a","6662009ae78f21dd82fcd179","666205ebdf49db053d4e0056","null","","null","","","","","","","","./tasks/HMM-beads/Images/BlackBeadChoice.png","","","","","","","","","",""
"image-keyboard-response","48","216582","0.0-3.0-4.0-1.0-2.11","5f4825f51e38a119965b561a","6662009ae78f21dd82fcd179","666205ebdf49db053d4e0056","null","","null","","","","","","","","./tasks/HMM-beads/Images/BlackBeadChoiceWrong.png","","","","","","","","","",""
"image-keyboard-response","49","217607","0.0-3.0-4.0-1.0-0.12","5f4825f51e38a119965b561a","6662009ae78f21dd82fcd179","666205ebdf49db053d4e0056","1024","","f","","","","","","","","./tasks/HMM-beads/Images/NewTrialWC.png","practice","0","12","0","0","1","0","true","",""
"image-keyboard-response","50","217911","0.0-3.0-4.0-1.0-1.12","5f4825f51e38a119965b561a","6662009ae78f21dd82fcd179","666205ebdf49db053d4e0056","null","","null","","","","","","","","./tasks/HMM-beads/Images/BlackBeadChoice.png","","","","","","","","","",""
"image-keyboard-response","51","218434","0.0-3.0-4.0-1.0-2.12","5f4825f51e38a119965b561a","6662009ae78f21dd82fcd179","666205ebdf49db053d4e0056","null","","null","","","","","","","","./tasks/HMM-beads/Images/BlackBeadChoiceCorrect.png","","","","","","","","","",""
"image-keyboard-response","52","218859","0.0-3.0-4.0-1.0-0.13","5f4825f51e38a119965b561a","6662009ae78f21dd82fcd179","666205ebdf49db053d4e0056","423","","j","","","","","","","","./tasks/HMM-beads/Images/NewTrialBC.png","practice","0","13","0","0","0","1","false","",""
"image-keyboard-response","53","219176","0.0-3.0-4.0-1.0-1.13","5f4825f51e38a119965b561a","6662009ae78f21dd82fcd179","666205ebdf49db053d4e0056","null","","null","","","","","","","","./tasks/HMM-beads/Images/WhiteBeadChoice.png","","","","","","","","","",""
"image-keyboard-response","54","219680","0.0-3.0-4.0-1.0-2.13","5f4825f51e38a119965b561a","6662009ae78f21dd82fcd179","666205ebdf49db053d4e0056","null","","null","","","","","","","","./tasks/HMM-beads/Images/WhiteBeadChoiceWrong.png","","","","","","","","","",""
"image-keyboard-response","55","220553","0.0-3.0-4.0-1.0-0.14","5f4825f51e38a119965b561a","6662009ae78f21dd82fcd179","666205ebdf49db053d4e0056","872","","f","","","","","","","","./tasks/HMM-beads/Images/NewTrialBC.png","practice","0","14","0","0","0","0","true","",""
"image-keyboard-response","56","220861","0.0-3.0-4.0-1.0-1.14","5f4825f51e38a119965b561a","6662009ae78f21dd82fcd179","666205ebdf49db053d4e0056","null","","null","","","","","","","","./tasks/HMM-beads/Images/BlackBeadChoice.png","","","","","","","","","",""
"image-keyboard-response","57","221368","0.0-3.0-4.0-1.0-2.14","5f4825f51e38a119965b561a","6662009ae78f21dd82fcd179","666205ebdf49db053d4e0056","null","","null","","","","","","","","./tasks/HMM-beads/Images/BlackBeadChoiceCorrect.png","","","","","","","","","",""
"image-keyboard-response","58","222194","0.0-3.0-4.0-1.0-0.15","5f4825f51e38a119965b561a","6662009ae78f21dd82fcd179","666205ebdf49db053d4e0056","824","","f","","","","","","","","./tasks/HMM-beads/Images/NewTrialBC.png","practice","0","15","0","0","0","0","true","",""
"image-keyboard-response","59","222509","0.0-3.0-4.0-1.0-1.15","5f4825f51e38a119965b561a","6662009ae78f21dd82fcd179","666205ebdf49db053d4e0056","null","","null","","","","","","","","./tasks/HMM-beads/Images/BlackBeadChoice.png","","","","","","","","","",""
"image-keyboard-response","60","223014","0.0-3.0-4.0-1.0-2.15","5f4825f51e38a119965b561a","6662009ae78f21dd82fcd179","666205ebdf49db053d4e0056","null","","null","","","","","","","","./tasks/HMM-beads/Images/BlackBeadChoiceCorrect.png","","","","","","","","","",""
"image-keyboard-response","61","223595","0.0-3.0-4.0-1.0-0.16","5f4825f51e38a119965b561a","6662009ae78f21dd82fcd179","666205ebdf49db053d4e0056","578","","f","","","","","","","","./tasks/HMM-beads/Images/NewTrialBC.png","practice","0","16","0","0","0","0","true","",""
"image-keyboard-response","62","223906","0.0-3.0-4.0-1.0-1.16","5f4825f51e38a119965b561a","6662009ae78f21dd82fcd179","666205ebdf49db053d4e0056","null","","null","","","","","","","","./tasks/HMM-beads/Images/BlackBeadChoice.png","","","","","","","","","",""
"image-keyboard-response","63","224414","0.0-3.0-4.0-1.0-2.16","5f4825f51e38a119965b561a","6662009ae78f21dd82fcd179","666205ebdf49db053d4e0056","null","","null","","","","","","","","./tasks/HMM-beads/Images/BlackBeadChoiceCorrect.png","","","","","","","","","",""
"image-keyboard-response","64","225020","0.0-3.0-4.0-1.0-0.17","5f4825f51e38a119965b561a","6662009ae78f21dd82fcd179","666205ebdf49db053d4e0056","599","","f","","","","","","","","./tasks/HMM-beads/Images/NewTrialBC.png","practice","0","17","0","0","0","0","true","",""
"image-keyboard-response","65","225337","0.0-3.0-4.0-1.0-1.17","5f4825f51e38a119965b561a","6662009ae78f21dd82fcd179","666205ebdf49db053d4e0056","null","","null","","","","","","","","./tasks/HMM-beads/Images/BlackBeadChoice.png","","","","","","","","","",""
"image-keyboard-response","66","225847","0.0-3.0-4.0-1.0-2.17","5f4825f51e38a119965b561a","6662009ae78f21dd82fcd179","666205ebdf49db053d4e0056","null","","null","","","","","","","","./tasks/HMM-beads/Images/BlackBeadChoiceCorrect.png","","","","","","","","","",""
"image-keyboard-response","67","226990","0.0-3.0-4.0-1.0-0.18","5f4825f51e38a119965b561a","6662009ae78f21dd82fcd179","666205ebdf49db053d4e0056","1142","","f","","","","","","","","./tasks/HMM-beads/Images/NewTrialBC.png","practice","0","18","0","1","0","0","false","",""
"image-keyboard-response","68","227294","0.0-3.0-4.0-1.0-1.18","5f4825f51e38a119965b561a","6662009ae78f21dd82fcd179","666205ebdf49db053d4e0056","null","","null","","","","","","","","./tasks/HMM-beads/Images/BlackBeadChoice.png","","","","","","","","","",""
"image-keyboard-response","69","227797","0.0-3.0-4.0-1.0-2.18","5f4825f51e38a119965b561a","6662009ae78f21dd82fcd179","666205ebdf49db053d4e0056","null","","null","","","","","","","","./tasks/HMM-beads/Images/BlackBeadChoiceWrong.png","","","","","","","","","",""
"image-keyboard-response","70","229949","0.0-3.0-4.0-1.0-0.19","5f4825f51e38a119965b561a","6662009ae78f21dd82fcd179","666205ebdf49db053d4e0056","2151","","j","","","","","","","","./tasks/HMM-beads/Images/NewTrialWC.png","practice","0","19","0","0","1","1","false","",""
"image-keyboard-response","71","230252","0.0-3.0-4.0-1.0-1.19","5f4825f51e38a119965b561a","6662009ae78f21dd82fcd179","666205ebdf49db053d4e0056","null","","null","","","","","","","","./tasks/HMM-beads/Images/WhiteBeadChoice.png","","","","","","","","","",""
"image-keyboard-response","72","230769","0.0-3.0-4.0-1.0-2.19","5f4825f51e38a119965b561a","6662009ae78f21dd82fcd179","666205ebdf49db053d4e0056","null","","null","","","","","","","","./tasks/HMM-beads/Images/WhiteBeadChoiceWrong.png","","","","","","","","","",""
"image-keyboard-response","73","231065","0.0-3.0-4.0-1.0-0.20","5f4825f51e38a119965b561a","6662009ae78f21dd82fcd179","666205ebdf49db053d4e0056","295","","f","","","","","","","","./tasks/HMM-beads/Images/NewTrialBC.png","practice","0","20","0","0","0","0","true","",""
"image-keyboard-response","74","231380","0.0-3.0-4.0-1.0-1.20","5f4825f51e38a119965b561a","6662009ae78f21dd82fcd179","666205ebdf49db053d4e0056","null","","null","","","","","","","","./tasks/HMM-beads/Images/BlackBeadChoice.png","","","","","","","","","",""
"image-keyboard-response","75","231896","0.0-3.0-4.0-1.0-2.20","5f4825f51e38a119965b561a","6662009ae78f21dd82fcd179","666205ebdf49db053d4e0056","null","","null","","","","","","","","./tasks/HMM-beads/Images/BlackBeadChoiceCorrect.png","","","","","","","","","",""
"image-keyboard-response","76","232249","0.0-3.0-4.0-1.0-0.21","5f4825f51e38a119965b561a","6662009ae78f21dd82fcd179","666205ebdf49db053d4e0056","351","","f","","","","","","","","./tasks/HMM-beads/Images/NewTrialBC.png","practice","0","21","0","1","0","0","false","",""
"image-keyboard-response","77","232563","0.0-3.0-4.0-1.0-1.21","5f4825f51e38a119965b561a","6662009ae78f21dd82fcd179","666205ebdf49db053d4e0056","null","","null","","","","","","","","./tasks/HMM-beads/Images/BlackBeadChoice.png","","","","","","","","","",""
"image-keyboard-response","78","233066","0.0-3.0-4.0-1.0-2.21","5f4825f51e38a119965b561a","6662009ae78f21dd82fcd179","666205ebdf49db053d4e0056","null","","null","","","","","","","","./tasks/HMM-beads/Images/BlackBeadChoiceWrong.png","","","","","","","","","",""
"image-keyboard-response","79","233822","0.0-3.0-4.0-1.0-0.22","5f4825f51e38a119965b561a","6662009ae78f21dd82fcd179","666205ebdf49db053d4e0056","755","","j","","","","","","","","./tasks/HMM-beads/Images/NewTrialWC.png","practice","0","22","1","1","1","1","true","",""
"image-keyboard-response","80","234125","0.0-3.0-4.0-1.0-1.22","5f4825f51e38a119965b561a","6662009ae78f21dd82fcd179","666205ebdf49db053d4e0056","null","","null","","","","","","","","./tasks/HMM-beads/Images/WhiteBeadChoice.png","","","","","","","","","",""
"image-keyboard-response","81","234639","0.0-3.0-4.0-1.0-2.22","5f4825f51e38a119965b561a","6662009ae78f21dd82fcd179","666205ebdf49db053d4e0056","null","","null","","","","","","","","./tasks/HMM-beads/Images/WhiteBeadChoiceCorrect.png","","","","","","","","","",""
"image-keyboard-response","82","235236","0.0-3.0-4.0-1.0-0.23","5f4825f51e38a119965b561a","6662009ae78f21dd82fcd179","666205ebdf49db053d4e0056","596","","j","","","","","","","","./tasks/HMM-beads/Images/NewTrialWC.png","practice","0","23","1","0","1","1","false","",""
"image-keyboard-response","83","235552","0.0-3.0-4.0-1.0-1.23","5f4825f51e38a119965b561a","6662009ae78f21dd82fcd179","666205ebdf49db053d4e0056","null","","null","","","","","","","","./tasks/HMM-beads/Images/WhiteBeadChoice.png","","","","","","","","","",""
"image-keyboard-response","84","236062","0.0-3.0-4.0-1.0-2.23","5f4825f51e38a119965b561a","6662009ae78f21dd82fcd179","666205ebdf49db053d4e0056","null","","null","","","","","","","","./tasks/HMM-beads/Images/WhiteBeadChoiceWrong.png","","","","","","","","","",""
"image-keyboard-response","85","238065","0.0-3.0-4.0-1.0-0.24","5f4825f51e38a119965b561a","6662009ae78f21dd82fcd179","666205ebdf49db053d4e0056","2001","","f","","","","","","","","./tasks/HMM-beads/Images/NewTrialBC.png","practice","0","24","1","1","0","0","false","",""
"image-keyboard-response","86","238376","0.0-3.0-4.0-1.0-1.24","5f4825f51e38a119965b561a","6662009ae78f21dd82fcd179","666205ebdf49db053d4e0056","null","","null","","","","","","","","./tasks/HMM-beads/Images/BlackBeadChoice.png","","","","","","","","","",""
"image-keyboard-response","87","238888","0.0-3.0-4.0-1.0-2.24","5f4825f51e38a119965b561a","6662009ae78f21dd82fcd179","666205ebdf49db053d4e0056","null","","null","","","","","","","","./tasks/HMM-beads/Images/BlackBeadChoiceWrong.png","","","","","","","","","",""
"image-keyboard-response","88","239301","0.0-3.0-4.0-1.0-0.25","5f4825f51e38a119965b561a","6662009ae78f21dd82fcd179","666205ebdf49db053d4e0056","412","","j","","","","","","","","./tasks/HMM-beads/Images/NewTrialWC.png","practice","0","25","1","1","1","1","true","",""
"image-keyboard-response","89","239618","0.0-3.0-4.0-1.0-1.25","5f4825f51e38a119965b561a","6662009ae78f21dd82fcd179","666205ebdf49db053d4e0056","null","","null","","","","","","","","./tasks/HMM-beads/Images/WhiteBeadChoice.png","","","","","","","","","",""
"image-keyboard-response","90","240132","0.0-3.0-4.0-1.0-2.25","5f4825f51e38a119965b561a","6662009ae78f21dd82fcd179","666205ebdf49db053d4e0056","null","","null","","","","","","","","./tasks/HMM-beads/Images/WhiteBeadChoiceCorrect.png","","","","","","","","","",""
"image-keyboard-response","91","241185","0.0-3.0-4.0-1.0-0.26","5f4825f51e38a119965b561a","6662009ae78f21dd82fcd179","666205ebdf49db053d4e0056","1051","","j","","","","","","","","./tasks/HMM-beads/Images/NewTrialWC.png","practice","0","26","1","1","1","1","true","",""
"image-keyboard-response","92","241501","0.0-3.0-4.0-1.0-1.26","5f4825f51e38a119965b561a","6662009ae78f21dd82fcd179","666205ebdf49db053d4e0056","null","","null","","","","","","","","./tasks/HMM-beads/Images/WhiteBeadChoice.png","","","","","","","","","",""
"image-keyboard-response","93","242013","0.0-3.0-4.0-1.0-2.26","5f4825f51e38a119965b561a","6662009ae78f21dd82fcd179","666205ebdf49db053d4e0056","null","","null","","","","","","","","./tasks/HMM-beads/Images/WhiteBeadChoiceCorrect.png","","","","","","","","","",""
"image-keyboard-response","94","242483","0.0-3.0-4.0-1.0-0.27","5f4825f51e38a119965b561a","6662009ae78f21dd82fcd179","666205ebdf49db053d4e0056","469","","j","","","","","","","","./tasks/HMM-beads/Images/NewTrialWC.png","practice","0","27","1","1","1","1","true","",""
"image-keyboard-response","95","242794","0.0-3.0-4.0-1.0-1.27","5f4825f51e38a119965b561a","6662009ae78f21dd82fcd179","666205ebdf49db053d4e0056","null","","null","","","","","","","","./tasks/HMM-beads/Images/WhiteBeadChoice.png","","","","","","","","","",""
"image-keyboard-response","96","243296","0.0-3.0-4.0-1.0-2.27","5f4825f51e38a119965b561a","6662009ae78f21dd82fcd179","666205ebdf49db053d4e0056","null","","null","","","","","","","","./tasks/HMM-beads/Images/WhiteBeadChoiceCorrect.png","","","","","","","","","",""
"image-keyboard-response","97","243851","0.0-3.0-4.0-1.0-0.28","5f4825f51e38a119965b561a","6662009ae78f21dd82fcd179","666205ebdf49db053d4e0056","553","","j","","","","","","","","./tasks/HMM-beads/Images/NewTrialWC.png","practice","0","28","1","0","1","1","false","",""
"image-keyboard-response","98","244158","0.0-3.0-4.0-1.0-1.28","5f4825f51e38a119965b561a","6662009ae78f21dd82fcd179","666205ebdf49db053d4e0056","null","","null","","","","","","","","./tasks/HMM-beads/Images/WhiteBeadChoice.png","","","","","","","","","",""
"image-keyboard-response","99","244673","0.0-3.0-4.0-1.0-2.28","5f4825f51e38a119965b561a","6662009ae78f21dd82fcd179","666205ebdf49db053d4e0056","null","","null","","","","","","","","./tasks/HMM-beads/Images/WhiteBeadChoiceWrong.png","","","","","","","","","",""
"image-keyboard-response","100","245480","0.0-3.0-4.0-1.0-0.29","5f4825f51e38a119965b561a","6662009ae78f21dd82fcd179","666205ebdf49db053d4e0056","806","","j","","","","","","","","./tasks/HMM-beads/Images/NewTrialBC.png","practice","0","29","1","1","0","1","true","",""
"image-keyboard-response","101","245784","0.0-3.0-4.0-1.0-1.29","5f4825f51e38a119965b561a","6662009ae78f21dd82fcd179","666205ebdf49db053d4e0056","null","","null","","","","","","","","./tasks/HMM-beads/Images/WhiteBeadChoice.png","","","","","","","","","",""
"image-keyboard-response","102","246299","0.0-3.0-4.0-1.0-2.29","5f4825f51e38a119965b561a","6662009ae78f21dd82fcd179","666205ebdf49db053d4e0056","null","","null","","","","","","","","./tasks/HMM-beads/Images/WhiteBeadChoiceCorrect.png","","","","","","","","","",""
"image-keyboard-response","103","246750","0.0-3.0-4.0-1.0-0.30","5f4825f51e38a119965b561a","6662009ae78f21dd82fcd179","666205ebdf49db053d4e0056","440","","j","","","","","","","","./tasks/HMM-beads/Images/NewTrialWC.png","practice","0","30","1","0","1","1","false","",""
"image-keyboard-response","104","247058","0.0-3.0-4.0-1.0-1.30","5f4825f51e38a119965b561a","6662009ae78f21dd82fcd179","666205ebdf49db053d4e0056","null","","null","","","","","","","","./tasks/HMM-beads/Images/WhiteBeadChoice.png","","","","","","","","","",""
"image-keyboard-response","105","247568","0.0-3.0-4.0-1.0-2.30","5f4825f51e38a119965b561a","6662009ae78f21dd82fcd179","666205ebdf49db053d4e0056","null","","null","","","","","","","","./tasks/HMM-beads/Images/WhiteBeadChoiceWrong.png","","","","","","","","","",""
"image-keyboard-response","106","248710","0.0-3.0-4.0-1.0-0.31","5f4825f51e38a119965b561a","6662009ae78f21dd82fcd179","666205ebdf49db053d4e0056","1141","","j","","","","","","","","./tasks/HMM-beads/Images/NewTrialBC.png","practice","0","31","1","1","0","1","true","",""
"image-keyboard-response","107","249024","0.0-3.0-4.0-1.0-1.31","5f4825f51e38a119965b561a","6662009ae78f21dd82fcd179","666205ebdf49db053d4e0056","null","","null","","","","","","","","./tasks/HMM-beads/Images/WhiteBeadChoice.png","","","","","","","","","",""
"image-keyboard-response","108","249532","0.0-3.0-4.0-1.0-2.31","5f4825f51e38a119965b561a","6662009ae78f21dd82fcd179","666205ebdf49db053d4e0056","null","","null","","","","","","","","./tasks/HMM-beads/Images/WhiteBeadChoiceCorrect.png","","","","","","","","","",""
"image-keyboard-response","109","250333","0.0-3.0-4.0-1.0-0.32","5f4825f51e38a119965b561a","6662009ae78f21dd82fcd179","666205ebdf49db053d4e0056","799","","j","","","","","","","","./tasks/HMM-beads/Images/NewTrialWC.png","practice","0","32","1","1","1","1","true","",""
"image-keyboard-response","110","250641","0.0-3.0-4.0-1.0-1.32","5f4825f51e38a119965b561a","6662009ae78f21dd82fcd179","666205ebdf49db053d4e0056","null","","null","","","","","","","","./tasks/HMM-beads/Images/WhiteBeadChoice.png","","","","","","","","","",""
"image-keyboard-response","111","251147","0.0-3.0-4.0-1.0-2.32","5f4825f51e38a119965b561a","6662009ae78f21dd82fcd179","666205ebdf49db053d4e0056","null","","null","","","","","","","","./tasks/HMM-beads/Images/WhiteBeadChoiceCorrect.png","","","","","","","","","",""
"image-keyboard-response","112","251554","0.0-3.0-4.0-1.0-0.33","5f4825f51e38a119965b561a","6662009ae78f21dd82fcd179","666205ebdf49db053d4e0056","406","","j","","","","","","","","./tasks/HMM-beads/Images/NewTrialWC.png","practice","0","33","1","1","1","1","true","",""
"image-keyboard-response","113","251860","0.0-3.0-4.0-1.0-1.33","5f4825f51e38a119965b561a","6662009ae78f21dd82fcd179","666205ebdf49db053d4e0056","null","","null","","","","","","","","./tasks/HMM-beads/Images/WhiteBeadChoice.png","","","","","","","","","",""
"image-keyboard-response","114","252370","0.0-3.0-4.0-1.0-2.33","5f4825f51e38a119965b561a","6662009ae78f21dd82fcd179","666205ebdf49db053d4e0056","null","","null","","","","","","","","./tasks/HMM-beads/Images/WhiteBeadChoiceCorrect.png","","","","","","","","","",""
"image-keyboard-response","115","252802","0.0-3.0-4.0-1.0-0.34","5f4825f51e38a119965b561a","6662009ae78f21dd82fcd179","666205ebdf49db053d4e0056","431","","j","","","","","","","","./tasks/HMM-beads/Images/NewTrialWC.png","practice","0","34","1","1","1","1","true","",""
"image-keyboard-response","116","253125","0.0-3.0-4.0-1.0-1.34","5f4825f51e38a119965b561a","6662009ae78f21dd82fcd179","666205ebdf49db053d4e0056","null","","null","","","","","","","","./tasks/HMM-beads/Images/WhiteBeadChoice.png","","","","","","","","","",""
"image-keyboard-response","117","253630","0.0-3.0-4.0-1.0-2.34","5f4825f51e38a119965b561a","6662009ae78f21dd82fcd179","666205ebdf49db053d4e0056","null","","null","","","","","","","","./tasks/HMM-beads/Images/WhiteBeadChoiceCorrect.png","","","","","","","","","",""
"image-keyboard-response","118","254040","0.0-3.0-4.0-1.0-0.35","5f4825f51e38a119965b561a","6662009ae78f21dd82fcd179","666205ebdf49db053d4e0056","408","","j","","","","","","","","./tasks/HMM-beads/Images/NewTrialWC.png","practice","0","35","1","1","1","1","true","",""
"image-keyboard-response","119","254342","0.0-3.0-4.0-1.0-1.35","5f4825f51e38a119965b561a","6662009ae78f21dd82fcd179","666205ebdf49db053d4e0056","null","","null","","","","","","","","./tasks/HMM-beads/Images/WhiteBeadChoice.png","","","","","","","","","",""
"image-keyboard-response","120","254848","0.0-3.0-4.0-1.0-2.35","5f4825f51e38a119965b561a","6662009ae78f21dd82fcd179","666205ebdf49db053d4e0056","null","","null","","","","","","","","./tasks/HMM-beads/Images/WhiteBeadChoiceCorrect.png","","","","","","","","","",""
"image-keyboard-response","121","255299","0.0-3.0-4.0-1.0-0.36","5f4825f51e38a119965b561a","6662009ae78f21dd82fcd179","666205ebdf49db053d4e0056","450","","j","","","","","","","","./tasks/HMM-beads/Images/NewTrialWC.png","practice","0","36","1","0","1","1","false","",""
"image-keyboard-response","122","255603","0.0-3.0-4.0-1.0-1.36","5f4825f51e38a119965b561a","6662009ae78f21dd82fcd179","666205ebdf49db053d4e0056","null","","null","","","","","","","","./tasks/HMM-beads/Images/WhiteBeadChoice.png","","","","","","","","","",""
"image-keyboard-response","123","256114","0.0-3.0-4.0-1.0-2.36","5f4825f51e38a119965b561a","6662009ae78f21dd82fcd179","666205ebdf49db053d4e0056","null","","null","","","","","","","","./tasks/HMM-beads/Images/WhiteBeadChoiceWrong.png","","","","","","","","","",""
"image-keyboard-response","124","256626","0.0-3.0-4.0-1.0-0.37","5f4825f51e38a119965b561a","6662009ae78f21dd82fcd179","666205ebdf49db053d4e0056","510","","j","","","","","","","","./tasks/HMM-beads/Images/NewTrialBC.png","practice","0","37","1","1","0","1","true","",""
"image-keyboard-response","125","256942","0.0-3.0-4.0-1.0-1.37","5f4825f51e38a119965b561a","6662009ae78f21dd82fcd179","666205ebdf49db053d4e0056","null","","null","","","","","","","","./tasks/HMM-beads/Images/WhiteBeadChoice.png","","","","","","","","","",""
"image-keyboard-response","126","257445","0.0-3.0-4.0-1.0-2.37","5f4825f51e38a119965b561a","6662009ae78f21dd82fcd179","666205ebdf49db053d4e0056","null","","null","","","","","","","","./tasks/HMM-beads/Images/WhiteBeadChoiceCorrect.png","","","","","","","","","",""
"image-keyboard-response","127","257836","0.0-3.0-4.0-1.0-0.38","5f4825f51e38a119965b561a","6662009ae78f21dd82fcd179","666205ebdf49db053d4e0056","390","","j","","","","","","","","./tasks/HMM-beads/Images/NewTrialWC.png","practice","0","38","1","1","1","1","true","",""
"image-keyboard-response","128","258142","0.0-3.0-4.0-1.0-1.38","5f4825f51e38a119965b561a","6662009ae78f21dd82fcd179","666205ebdf49db053d4e0056","null","","null","","","","","","","","./tasks/HMM-beads/Images/WhiteBeadChoice.png","","","","","","","","","",""
"image-keyboard-response","129","258665","0.0-3.0-4.0-1.0-2.38","5f4825f51e38a119965b561a","6662009ae78f21dd82fcd179","666205ebdf49db053d4e0056","null","","null","","","","","","","","./tasks/HMM-beads/Images/WhiteBeadChoiceCorrect.png","","","","","","","","","",""
"image-keyboard-response","130","259055","0.0-3.0-4.0-1.0-0.39","5f4825f51e38a119965b561a","6662009ae78f21dd82fcd179","666205ebdf49db053d4e0056","388","","j","","","","","","","","./tasks/HMM-beads/Images/NewTrialWC.png","practice","0","39","1","1","1","1","true","",""
"image-keyboard-response","131","259360","0.0-3.0-4.0-1.0-1.39","5f4825f51e38a119965b561a","6662009ae78f21dd82fcd179","666205ebdf49db053d4e0056","null","","null","","","","","","","","./tasks/HMM-beads/Images/WhiteBeadChoice.png","","","","","","","","","",""
"image-keyboard-response","132","259877","0.0-3.0-4.0-1.0-2.39","5f4825f51e38a119965b561a","6662009ae78f21dd82fcd179","666205ebdf49db053d4e0056","null","","null","","","","","","","","./tasks/HMM-beads/Images/WhiteBeadChoiceCorrect.png","","","","","","","","","",""
"html-keyboard-response","133","263067","0.0-3.0-4.0-2.0","5f4825f51e38a119965b561a","6662009ae78f21dd82fcd179","666205ebdf49db053d4e0056","3188",""," ","","","","","","","","","","","","","","","","","",""
"instructions","134","278400","0.0-3.0-5.0","5f4825f51e38a119965b561a","6662009ae78f21dd82fcd179","666205ebdf49db053d4e0056","15324","","","","[{""page_index"":0,""viewing_time"":12324},{""page_index"":1,""viewing_time"":3000}]","","","","","","","","","","","","","","","",""
"html-keyboard-response","135","284195","0.0-3.0-6.0-0.0","5f4825f51e38a119965b561a","6662009ae78f21dd82fcd179","666205ebdf49db053d4e0056","5793",""," ","","","","","","","","<div align=center>In this block, there will be a <b>1% chance</b> that the jar on the next trial will be different from the jar on the current trial.<br><br></div>","","","","","","","","","",""
"image-keyboard-response","136","289693","0.0-3.0-6.0-1.0-0.0","5f4825f51e38a119965b561a","6662009ae78f21dd82fcd179","666205ebdf49db053d4e0056","5497","","j","","","","","","","","./tasks/HMM-beads/Images/NoChoice.png","lowH","1","0","1","0","9","1","false","",""
"image-keyboard-response","137","290004","0.0-3.0-6.0-1.0-1.0","5f4825f51e38a119965b561a","6662009ae78f21dd82fcd179","666205ebdf49db053d4e0056","null","","null","","","","","","","","./tasks/HMM-beads/Images/WhiteBeadChoice.png","","","","","","","","","",""
"image-keyboard-response","138","290512","0.0-3.0-6.0-1.0-2.0","5f4825f51e38a119965b561a","6662009ae78f21dd82fcd179","666205ebdf49db053d4e0056","null","","null","","","","","","","","./tasks/HMM-beads/Images/WhiteBeadChoiceWrong.png","","","","","","","","","",""
"image-keyboard-response","139","291250","0.0-3.0-6.0-1.0-0.1","5f4825f51e38a119965b561a","6662009ae78f21dd82fcd179","666205ebdf49db053d4e0056","736","","j","","","","","","","","./tasks/HMM-beads/Images/NewTrialBC.png","lowH","1","1","1","1","0","1","true","",""
"image-keyboard-response","140","291557","0.0-3.0-6.0-1.0-1.1","5f4825f51e38a119965b561a","6662009ae78f21dd82fcd179","666205ebdf49db053d4e0056","null","","null","","","","","","","","./tasks/HMM-beads/Images/WhiteBeadChoice.png","","","","","","","","","",""
"image-keyboard-response","141","292063","0.0-3.0-6.0-1.0-2.1","5f4825f51e38a119965b561a","6662009ae78f21dd82fcd179","666205ebdf49db053d4e0056","null","","null","","","","","","","","./tasks/HMM-beads/Images/WhiteBeadChoiceCorrect.png","","","","","","","","","",""
"image-keyboard-response","142","292843","0.0-3.0-6.0-1.0-0.2","5f4825f51e38a119965b561a","6662009ae78f21dd82fcd179","666205ebdf49db053d4e0056","779","","j","","","","","","","","./tasks/HMM-beads/Images/NewTrialWC.png","lowH","1","2","1","1","1","1","true","",""
"image-keyboard-response","143","293152","0.0-3.0-6.0-1.0-1.2","5f4825f51e38a119965b561a","6662009ae78f21dd82fcd179","666205ebdf49db053d4e0056","null","","null","","","","","","","","./tasks/HMM-beads/Images/WhiteBeadChoice.png","","","","","","","","","",""
"image-keyboard-response","144","293654","0.0-3.0-6.0-1.0-2.2","5f4825f51e38a119965b561a","6662009ae78f21dd82fcd179","666205ebdf49db053d4e0056","null","","null","","","","","","","","./tasks/HMM-beads/Images/WhiteBeadChoiceCorrect.png","","","","","","","","","",""
"image-keyboard-response","145","294229","0.0-3.0-6.0-1.0-0.3","5f4825f51e38a119965b561a","6662009ae78f21dd82fcd179","666205ebdf49db053d4e0056","573","","j","","","","","","","","./tasks/HMM-beads/Images/NewTrialWC.png","lowH","1","3","1","1","1","1","true","",""
"image-keyboard-response","146","294540","0.0-3.0-6.0-1.0-1.3","5f4825f51e38a119965b561a","6662009ae78f21dd82fcd179","666205ebdf49db053d4e0056","null","","null","","","","","","","","./tasks/HMM-beads/Images/WhiteBeadChoice.png","","","","","","","","","",""
"image-keyboard-response","147","295046","0.0-3.0-6.0-1.0-2.3","5f4825f51e38a119965b561a","6662009ae78f21dd82fcd179","666205ebdf49db053d4e0056","null","","null","","","","","","","","./tasks/HMM-beads/Images/WhiteBeadChoiceCorrect.png","","","","","","","","","",""
"image-keyboard-response","148","295563","0.0-3.0-6.0-1.0-0.4","5f4825f51e38a119965b561a","6662009ae78f21dd82fcd179","666205ebdf49db053d4e0056","516","","j","","","","","","","","./tasks/HMM-beads/Images/NewTrialWC.png","lowH","1","4","1","1","1","1","true","",""
"image-keyboard-response","149","295871","0.0-3.0-6.0-1.0-1.4","5f4825f51e38a119965b561a","6662009ae78f21dd82fcd179","666205ebdf49db053d4e0056","null","","null","","","","","","","","./tasks/HMM-beads/Images/WhiteBeadChoice.png","","","","","","","","","",""
"image-keyboard-response","150","296375","0.0-3.0-6.0-1.0-2.4","5f4825f51e38a119965b561a","6662009ae78f21dd82fcd179","666205ebdf49db053d4e0056","null","","null","","","","","","","","./tasks/HMM-beads/Images/WhiteBeadChoiceCorrect.png","","","","","","","","","",""
"image-keyboard-response","151","298349","0.0-3.0-6.0-1.0-0.5","5f4825f51e38a119965b561a","6662009ae78f21dd82fcd179","666205ebdf49db053d4e0056","1972","","f","","","","","","","","./tasks/HMM-beads/Images/NewTrialWC.png","lowH","1","5","1","1","1","0","false","",""
"image-keyboard-response","152","298663","0.0-3.0-6.0-1.0-1.5","5f4825f51e38a119965b561a","6662009ae78f21dd82fcd179","666205ebdf49db053d4e0056","null","","null","","","","","","","","./tasks/HMM-beads/Images/BlackBeadChoice.png","","","","","","","","","",""
"image-keyboard-response","153","299168","0.0-3.0-6.0-1.0-2.5","5f4825f51e38a119965b561a","6662009ae78f21dd82fcd179","666205ebdf49db053d4e0056","null","","null","","","","","","","","./tasks/HMM-beads/Images/BlackBeadChoiceWrong.png","","","","","","","","","",""
"image-keyboard-response","154","299440","0.0-3.0-6.0-1.0-0.6","5f4825f51e38a119965b561a","6662009ae78f21dd82fcd179","666205ebdf49db053d4e0056","271","","j","","","","","","","","./tasks/HMM-beads/Images/NewTrialWC.png","lowH","1","6","1","0","1","1","false","",""
"image-keyboard-response","155","299757","0.0-3.0-6.0-1.0-1.6","5f4825f51e38a119965b561a","6662009ae78f21dd82fcd179","666205ebdf49db053d4e0056","null","","null","","","","","","","","./tasks/HMM-beads/Images/WhiteBeadChoice.png","","","","","","","","","",""
"image-keyboard-response","156","300262","0.0-3.0-6.0-1.0-2.6","5f4825f51e38a119965b561a","6662009ae78f21dd82fcd179","666205ebdf49db053d4e0056","null","","null","","","","","","","","./tasks/HMM-beads/Images/WhiteBeadChoiceWrong.png","","","","","","","","","",""
"image-keyboard-response","157","302049","0.0-3.0-6.0-1.0-0.7","5f4825f51e38a119965b561a","6662009ae78f21dd82fcd179","666205ebdf49db053d4e0056","1786","","j","","","","","","","","./tasks/HMM-beads/Images/NewTrialBC.png","lowH","1","7","1","1","0","1","true","",""
"image-keyboard-response","158","302358","0.0-3.0-6.0-1.0-1.7","5f4825f51e38a119965b561a","6662009ae78f21dd82fcd179","666205ebdf49db053d4e0056","null","","null","","","","","","","","./tasks/HMM-beads/Images/WhiteBeadChoice.png","","","","","","","","","",""
"image-keyboard-response","159","302876","0.0-3.0-6.0-1.0-2.7","5f4825f51e38a119965b561a","6662009ae78f21dd82fcd179","666205ebdf49db053d4e0056","null","","null","","","","","","","","./tasks/HMM-beads/Images/WhiteBeadChoiceCorrect.png","","","","","","","","","",""
"image-keyboard-response","160","303796","0.0-3.0-6.0-1.0-0.8","5f4825f51e38a119965b561a","6662009ae78f21dd82fcd179","666205ebdf49db053d4e0056","919","","j","","","","","","","","./tasks/HMM-beads/Images/NewTrialWC.png","lowH","1","8","1","1","1","1","true","",""
"image-keyboard-response","161","304105","0.0-3.0-6.0-1.0-1.8","5f4825f51e38a119965b561a","6662009ae78f21dd82fcd179","666205ebdf49db053d4e0056","null","","null","","","","","","","","./tasks/HMM-beads/Images/WhiteBeadChoice.png","","","","","","","","","",""
"image-keyboard-response","162","304611","0.0-3.0-6.0-1.0-2.8","5f4825f51e38a119965b561a","6662009ae78f21dd82fcd179","666205ebdf49db053d4e0056","null","","null","","","","","","","","./tasks/HMM-beads/Images/WhiteBeadChoiceCorrect.png","","","","","","","","","",""
"image-keyboard-response","163","305077","0.0-3.0-6.0-1.0-0.9","5f4825f51e38a119965b561a","6662009ae78f21dd82fcd179","666205ebdf49db053d4e0056","465","","f","","","","","","","","./tasks/HMM-beads/Images/NewTrialWC.png","lowH","1","9","1","1","1","0","false","",""
"image-keyboard-response","164","305389","0.0-3.0-6.0-1.0-1.9","5f4825f51e38a119965b561a","6662009ae78f21dd82fcd179","666205ebdf49db053d4e0056","null","","null","","","","","","","","./tasks/HMM-beads/Images/BlackBeadChoice.png","","","","","","","","","",""
"image-keyboard-response","165","305894","0.0-3.0-6.0-1.0-2.9","5f4825f51e38a119965b561a","6662009ae78f21dd82fcd179","666205ebdf49db053d4e0056","null","","null","","","","","","","","./tasks/HMM-beads/Images/BlackBeadChoiceWrong.png","","","","","","","","","",""
"image-keyboard-response","166","306172","0.0-3.0-6.0-1.0-0.10","5f4825f51e38a119965b561a","6662009ae78f21dd82fcd179","666205ebdf49db053d4e0056","276","","j","","","","","","","","./tasks/HMM-beads/Images/NewTrialWC.png","lowH","1","10","1","1","1","1","true","",""
"image-keyboard-response","167","306488","0.0-3.0-6.0-1.0-1.10","5f4825f51e38a119965b561a","6662009ae78f21dd82fcd179","666205ebdf49db053d4e0056","null","","null","","","","","","","","./tasks/HMM-beads/Images/WhiteBeadChoice.png","","","","","","","","","",""
"image-keyboard-response","168","306993","0.0-3.0-6.0-1.0-2.10","5f4825f51e38a119965b561a","6662009ae78f21dd82fcd179","666205ebdf49db053d4e0056","null","","null","","","","","","","","./tasks/HMM-beads/Images/WhiteBeadChoiceCorrect.png","","","","","","","","","",""
"image-keyboard-response","169","307296","0.0-3.0-6.0-1.0-0.11","5f4825f51e38a119965b561a","6662009ae78f21dd82fcd179","666205ebdf49db053d4e0056","302","","j","","","","","","","","./tasks/HMM-beads/Images/NewTrialWC.png","lowH","1","11","1","1","1","1","true","",""
"image-keyboard-response","170","307605","0.0-3.0-6.0-1.0-1.11","5f4825f51e38a119965b561a","6662009ae78f21dd82fcd179","666205ebdf49db053d4e0056","null","","null","","","","","","","","./tasks/HMM-beads/Images/WhiteBeadChoice.png","","","","","","","","","",""
"image-keyboard-response","171","308109","0.0-3.0-6.0-1.0-2.11","5f4825f51e38a119965b561a","6662009ae78f21dd82fcd179","666205ebdf49db053d4e0056","null","","null","","","","","","","","./tasks/HMM-beads/Images/WhiteBeadChoiceCorrect.png","","","","","","","","","",""
"image-keyboard-response","172","308372","0.0-3.0-6.0-1.0-0.12","5f4825f51e38a119965b561a","6662009ae78f21dd82fcd179","666205ebdf49db053d4e0056","261","","j","","","","","","","","./tasks/HMM-beads/Images/NewTrialWC.png","lowH","1","12","1","1","1","1","true","",""
"image-keyboard-response","173","308687","0.0-3.0-6.0-1.0-1.12","5f4825f51e38a119965b561a","6662009ae78f21dd82fcd179","666205ebdf49db053d4e0056","null","","null","","","","","","","","./tasks/HMM-beads/Images/WhiteBeadChoice.png","","","","","","","","","",""
"image-keyboard-response","174","309204","0.0-3.0-6.0-1.0-2.12","5f4825f51e38a119965b561a","6662009ae78f21dd82fcd179","666205ebdf49db053d4e0056","null","","null","","","","","","","","./tasks/HMM-beads/Images/WhiteBeadChoiceCorrect.png","","","","","","","","","",""
"image-keyboard-response","175","309788","0.0-3.0-6.0-1.0-0.13","5f4825f51e38a119965b561a","6662009ae78f21dd82fcd179","666205ebdf49db053d4e0056","583","","j","","","","","","","","./tasks/HMM-beads/Images/NewTrialWC.png","lowH","1","13","1","0","1","1","false","",""
"image-keyboard-response","176","310105","0.0-3.0-6.0-1.0-1.13","5f4825f51e38a119965b561a","6662009ae78f21dd82fcd179","666205ebdf49db053d4e0056","null","","null","","","","","","","","./tasks/HMM-beads/Images/WhiteBeadChoice.png","","","","","","","","","",""
"image-keyboard-response","177","310619","0.0-3.0-6.0-1.0-2.13","5f4825f51e38a119965b561a","6662009ae78f21dd82fcd179","666205ebdf49db053d4e0056","null","","null","","","","","","","","./tasks/HMM-beads/Images/WhiteBeadChoiceWrong.png","","","","","","","","","",""
"image-keyboard-response","178","311104","0.0-3.0-6.0-1.0-0.14","5f4825f51e38a119965b561a","6662009ae78f21dd82fcd179","666205ebdf49db053d4e0056","483","","j","","","","","","","","./tasks/HMM-beads/Images/NewTrialBC.png","lowH","1","14","1","0","0","1","false","",""
"image-keyboard-response","179","311408","0.0-3.0-6.0-1.0-1.14","5f4825f51e38a119965b561a","6662009ae78f21dd82fcd179","666205ebdf49db053d4e0056","null","","null","","","","","","","","./tasks/HMM-beads/Images/WhiteBeadChoice.png","","","","","","","","","",""
"image-keyboard-response","180","311921","0.0-3.0-6.0-1.0-2.14","5f4825f51e38a119965b561a","6662009ae78f21dd82fcd179","666205ebdf49db053d4e0056","null","","null","","","","","","","","./tasks/HMM-beads/Images/WhiteBeadChoiceWrong.png","","","","","","","","","",""
"image-keyboard-response","181","312135","0.0-3.0-6.0-1.0-0.15","5f4825f51e38a119965b561a","6662009ae78f21dd82fcd179","666205ebdf49db053d4e0056","213","","f","","","","","","","","./tasks/HMM-beads/Images/NewTrialBC.png","lowH","1","15","1","1","0","0","false","",""
"image-keyboard-response","182","312439","0.0-3.0-6.0-1.0-1.15","5f4825f51e38a119965b561a","6662009ae78f21dd82fcd179","666205ebdf49db053d4e0056","null","","null","","","","","","","","./tasks/HMM-beads/Images/BlackBeadChoice.png","","","","","","","","","",""
"image-keyboard-response","183","312954","0.0-3.0-6.0-1.0-2.15","5f4825f51e38a119965b561a","6662009ae78f21dd82fcd179","666205ebdf49db053d4e0056","null","","null","","","","","","","","./tasks/HMM-beads/Images/BlackBeadChoiceWrong.png","","","","","","","","","",""
"image-keyboard-response","184","313239","0.0-3.0-6.0-1.0-0.16","5f4825f51e38a119965b561a","6662009ae78f21dd82fcd179","666205ebdf49db053d4e0056","284","","f","","","","","","","","./tasks/HMM-beads/Images/NewTrialWC.png","lowH","1","16","1","1","1","0","false","",""
"image-keyboard-response","185","313548","0.0-3.0-6.0-1.0-1.16","5f4825f51e38a119965b561a","6662009ae78f21dd82fcd179","666205ebdf49db053d4e0056","null","","null","","","","","","","","./tasks/HMM-beads/Images/BlackBeadChoice.png","","","","","","","","","",""
"image-keyboard-response","186","314060","0.0-3.0-6.0-1.0-2.16","5f4825f51e38a119965b561a","6662009ae78f21dd82fcd179","666205ebdf49db053d4e0056","null","","null","","","","","","","","./tasks/HMM-beads/Images/BlackBeadChoiceWrong.png","","","","","","","","","",""
"image-keyboard-response","187","314456","0.0-3.0-6.0-1.0-0.17","5f4825f51e38a119965b561a","6662009ae78f21dd82fcd179","666205ebdf49db053d4e0056","383","","j","","","","","","","","./tasks/HMM-beads/Images/NewTrialWC.png","lowH","1","17","1","1","1","1","true","",""
"image-keyboard-response","188","314771","0.0-3.0-6.0-1.0-1.17","5f4825f51e38a119965b561a","6662009ae78f21dd82fcd179","666205ebdf49db053d4e0056","null","","null","","","","","","","","./tasks/HMM-beads/Images/WhiteBeadChoice.png","","","","","","","","","",""
"image-keyboard-response","189","315275","0.0-3.0-6.0-1.0-2.17","5f4825f51e38a119965b561a","6662009ae78f21dd82fcd179","666205ebdf49db053d4e0056","null","","null","","","","","","","","./tasks/HMM-beads/Images/WhiteBeadChoiceCorrect.png","","","","","","","","","",""
"image-keyboard-response","190","315525","0.0-3.0-6.0-1.0-0.18","5f4825f51e38a119965b561a","6662009ae78f21dd82fcd179","666205ebdf49db053d4e0056","248","","j","","","","","","","","./tasks/HMM-beads/Images/NewTrialWC.png","lowH","1","18","1","1","1","1","true","",""
"image-keyboard-response","191","315841","0.0-3.0-6.0-1.0-1.18","5f4825f51e38a119965b561a","6662009ae78f21dd82fcd179","666205ebdf49db053d4e0056","null","","null","","","","","","","","./tasks/HMM-beads/Images/WhiteBeadChoice.png","","","","","","","","","",""
"image-keyboard-response","192","316358","0.0-3.0-6.0-1.0-2.18","5f4825f51e38a119965b561a","6662009ae78f21dd82fcd179","666205ebdf49db053d4e0056","null","","null","","","","","","","","./tasks/HMM-beads/Images/WhiteBeadChoiceCorrect.png","","","","","","","","","",""
"image-keyboard-response","193","316614","0.0-3.0-6.0-1.0-0.19","5f4825f51e38a119965b561a","6662009ae78f21dd82fcd179","666205ebdf49db053d4e0056","254","","j","","","","","","","","./tasks/HMM-beads/Images/NewTrialWC.png","lowH","1","19","1","1","1","1","true","",""
"image-keyboard-response","194","316936","0.0-3.0-6.0-1.0-1.19","5f4825f51e38a119965b561a","6662009ae78f21dd82fcd179","666205ebdf49db053d4e0056","null","","null","","","","","","","","./tasks/HMM-beads/Images/WhiteBeadChoice.png","","","","","","","","","",""
"image-keyboard-response","195","317449","0.0-3.0-6.0-1.0-2.19","5f4825f51e38a119965b561a","6662009ae78f21dd82fcd179","666205ebdf49db053d4e0056","null","","null","","","","","","","","./tasks/HMM-beads/Images/WhiteBeadChoiceCorrect.png","","","","","","","","","",""
"image-keyboard-response","196","317713","0.0-3.0-6.0-1.0-0.20","5f4825f51e38a119965b561a","6662009ae78f21dd82fcd179","666205ebdf49db053d4e0056","262","","j","","","","","","","","./tasks/HMM-beads/Images/NewTrialWC.png","lowH","1","20","1","1","1","1","true","",""
"image-keyboard-response","197","318018","0.0-3.0-6.0-1.0-1.20","5f4825f51e38a119965b561a","6662009ae78f21dd82fcd179","666205ebdf49db053d4e0056","null","","null","","","","","","","","./tasks/HMM-beads/Images/WhiteBeadChoice.png","","","","","","","","","",""
"image-keyboard-response","198","318521","0.0-3.0-6.0-1.0-2.20","5f4825f51e38a119965b561a","6662009ae78f21dd82fcd179","666205ebdf49db053d4e0056","null","","null","","","","","","","","./tasks/HMM-beads/Images/WhiteBeadChoiceCorrect.png","","","","","","","","","",""
"image-keyboard-response","199","318770","0.0-3.0-6.0-1.0-0.21","5f4825f51e38a119965b561a","6662009ae78f21dd82fcd179","666205ebdf49db053d4e0056","247","","j","","","","","","","","./tasks/HMM-beads/Images/NewTrialWC.png","lowH","1","21","1","1","1","1","true","",""
"image-keyboard-response","200","319088","0.0-3.0-6.0-1.0-1.21","5f4825f51e38a119965b561a","6662009ae78f21dd82fcd179","666205ebdf49db053d4e0056","null","","null","","","","","","","","./tasks/HMM-beads/Images/WhiteBeadChoice.png","","","","","","","","","",""
"image-keyboard-response","201","319592","0.0-3.0-6.0-1.0-2.21","5f4825f51e38a119965b561a","6662009ae78f21dd82fcd179","666205ebdf49db053d4e0056","null","","null","","","","","","","","./tasks/HMM-beads/Images/WhiteBeadChoiceCorrect.png","","","","","","","","","",""
"image-keyboard-response","202","320323","0.0-3.0-6.0-1.0-0.22","5f4825f51e38a119965b561a","6662009ae78f21dd82fcd179","666205ebdf49db053d4e0056","729","","f","","","","","","","","./tasks/HMM-beads/Images/NewTrialWC.png","lowH","1","22","1","1","1","0","false","",""
"image-keyboard-response","203","320634","0.0-3.0-6.0-1.0-1.22","5f4825f51e38a119965b561a","6662009ae78f21dd82fcd179","666205ebdf49db053d4e0056","null","","null","","","","","","","","./tasks/HMM-beads/Images/BlackBeadChoice.png","","","","","","","","","",""
"image-keyboard-response","204","321143","0.0-3.0-6.0-1.0-2.22","5f4825f51e38a119965b561a","6662009ae78f21dd82fcd179","666205ebdf49db053d4e0056","null","","null","","","","","","","","./tasks/HMM-beads/Images/BlackBeadChoiceWrong.png","","","","","","","","","",""
"image-keyboard-response","205","321311","0.0-3.0-6.0-1.0-0.23","5f4825f51e38a119965b561a","6662009ae78f21dd82fcd179","666205ebdf49db053d4e0056","166","","j","","","","","","","","./tasks/HMM-beads/Images/NewTrialWC.png","lowH","1","23","1","1","1","1","true","",""
"image-keyboard-response","206","321616","0.0-3.0-6.0-1.0-1.23","5f4825f51e38a119965b561a","6662009ae78f21dd82fcd179","666205ebdf49db053d4e0056","null","","null","","","","","","","","./tasks/HMM-beads/Images/WhiteBeadChoice.png","","","","","","","","","",""
"image-keyboard-response","207","322125","0.0-3.0-6.0-1.0-2.23","5f4825f51e38a119965b561a","6662009ae78f21dd82fcd179","666205ebdf49db053d4e0056","null","","null","","","","","","","","./tasks/HMM-beads/Images/WhiteBeadChoiceCorrect.png","","","","","","","","","",""
"image-keyboard-response","208","322372","0.0-3.0-6.0-1.0-0.24","5f4825f51e38a119965b561a","6662009ae78f21dd82fcd179","666205ebdf49db053d4e0056","246","","j","","","","","","","","./tasks/HMM-beads/Images/NewTrialWC.png","lowH","1","24","1","0","1","1","false","",""
"image-keyboard-response","209","322688","0.0-3.0-6.0-1.0-1.24","5f4825f51e38a119965b561a","6662009ae78f21dd82fcd179","666205ebdf49db053d4e0056","null","","null","","","","","","","","./tasks/HMM-beads/Images/WhiteBeadChoice.png","","","","","","","","","",""
"image-keyboard-response","210","323196","0.0-3.0-6.0-1.0-2.24","5f4825f51e38a119965b561a","6662009ae78f21dd82fcd179","666205ebdf49db053d4e0056","null","","null","","","","","","","","./tasks/HMM-beads/Images/WhiteBeadChoiceWrong.png","","","","","","","","","",""
"image-keyboard-response","211","323625","0.0-3.0-6.0-1.0-0.25","5f4825f51e38a119965b561a","6662009ae78f21dd82fcd179","666205ebdf49db053d4e0056","428","","j","","","","","","","","./tasks/HMM-beads/Images/NewTrialBC.png","lowH","1","25","1","1","0","1","true","",""
"image-keyboard-response","212","323939","0.0-3.0-6.0-1.0-1.25","5f4825f51e38a119965b561a","6662009ae78f21dd82fcd179","666205ebdf49db053d4e0056","null","","null","","","","","","","","./tasks/HMM-beads/Images/WhiteBeadChoice.png","","","","","","","","","",""
"image-keyboard-response","213","324453","0.0-3.0-6.0-1.0-2.25","5f4825f51e38a119965b561a","6662009ae78f21dd82fcd179","666205ebdf49db053d4e0056","null","","null","","","","","","","","./tasks/HMM-beads/Images/WhiteBeadChoiceCorrect.png","","","","","","","","","",""
"image-keyboard-response","214","324697","0.0-3.0-6.0-1.0-0.26","5f4825f51e38a119965b561a","6662009ae78f21dd82fcd179","666205ebdf49db053d4e0056","243","","j","","","","","","","","./tasks/HMM-beads/Images/NewTrialWC.png","lowH","1","26","1","0","1","1","false","",""
"image-keyboard-response","215","325013","0.0-3.0-6.0-1.0-1.26","5f4825f51e38a119965b561a","6662009ae78f21dd82fcd179","666205ebdf49db053d4e0056","null","","null","","","","","","","","./tasks/HMM-beads/Images/WhiteBeadChoice.png","","","","","","","","","",""
"image-keyboard-response","216","325525","0.0-3.0-6.0-1.0-2.26","5f4825f51e38a119965b561a","6662009ae78f21dd82fcd179","666205ebdf49db053d4e0056","null","","null","","","","","","","","./tasks/HMM-beads/Images/WhiteBeadChoiceWrong.png","","","","","","","","","",""
"image-keyboard-response","217","325828","0.0-3.0-6.0-1.0-0.27","5f4825f51e38a119965b561a","6662009ae78f21dd82fcd179","666205ebdf49db053d4e0056","302","","j","","","","","","","","./tasks/HMM-beads/Images/NewTrialBC.png","lowH","1","27","1","1","0","1","true","",""
"image-keyboard-response","218","326138","0.0-3.0-6.0-1.0-1.27","5f4825f51e38a119965b561a","6662009ae78f21dd82fcd179","666205ebdf49db053d4e0056","null","","null","","","","","","","","./tasks/HMM-beads/Images/WhiteBeadChoice.png","","","","","","","","","",""
"image-keyboard-response","219","326645","0.0-3.0-6.0-1.0-2.27","5f4825f51e38a119965b561a","6662009ae78f21dd82fcd179","666205ebdf49db053d4e0056","null","","null","","","","","","","","./tasks/HMM-beads/Images/WhiteBeadChoiceCorrect.png","","","","","","","","","",""
"image-keyboard-response","220","327241","0.0-3.0-6.0-1.0-0.28","5f4825f51e38a119965b561a","6662009ae78f21dd82fcd179","666205ebdf49db053d4e0056","594","","j","","","","","","","","./tasks/HMM-beads/Images/NewTrialWC.png","lowH","1","28","1","1","1","1","true","",""
"image-keyboard-response","221","327555","0.0-3.0-6.0-1.0-1.28","5f4825f51e38a119965b561a","6662009ae78f21dd82fcd179","666205ebdf49db053d4e0056","null","","null","","","","","","","","./tasks/HMM-beads/Images/WhiteBeadChoice.png","","","","","","","","","",""
"image-keyboard-response","222","328061","0.0-3.0-6.0-1.0-2.28","5f4825f51e38a119965b561a","6662009ae78f21dd82fcd179","666205ebdf49db053d4e0056","null","","null","","","","","","","","./tasks/HMM-beads/Images/WhiteBeadChoiceCorrect.png","","","","","","","","","",""
"image-keyboard-response","223","328603","0.0-3.0-6.0-1.0-0.29","5f4825f51e38a119965b561a","6662009ae78f21dd82fcd179","666205ebdf49db053d4e0056","541","","f","","","","","","","","./tasks/HMM-beads/Images/NewTrialWC.png","lowH","1","29","1","1","1","0","false","",""
"image-keyboard-response","224","328920","0.0-3.0-6.0-1.0-1.29","5f4825f51e38a119965b561a","6662009ae78f21dd82fcd179","666205ebdf49db053d4e0056","null","","null","","","","","","","","./tasks/HMM-beads/Images/BlackBeadChoice.png","","","","","","","","","",""
"image-keyboard-response","225","329427","0.0-3.0-6.0-1.0-2.29","5f4825f51e38a119965b561a","6662009ae78f21dd82fcd179","666205ebdf49db053d4e0056","null","","null","","","","","","","","./tasks/HMM-beads/Images/BlackBeadChoiceWrong.png","","","","","","","","","",""
"image-keyboard-response","226","329873","0.0-3.0-6.0-1.0-0.30","5f4825f51e38a119965b561a","6662009ae78f21dd82fcd179","666205ebdf49db053d4e0056","438","","f","","","","","","","","./tasks/HMM-beads/Images/NewTrialWC.png","lowH","1","30","1","1","1","0","false","",""
"image-keyboard-response","227","330187","0.0-3.0-6.0-1.0-1.30","5f4825f51e38a119965b561a","6662009ae78f21dd82fcd179","666205ebdf49db053d4e0056","null","","null","","","","","","","","./tasks/HMM-beads/Images/BlackBeadChoice.png","","","","","","","","","",""
"image-keyboard-response","228","330692","0.0-3.0-6.0-1.0-2.30","5f4825f51e38a119965b561a","6662009ae78f21dd82fcd179","666205ebdf49db053d4e0056","null","","null","","","","","","","","./tasks/HMM-beads/Images/BlackBeadChoiceWrong.png","","","","","","","","","",""
"image-keyboard-response","229","331035","0.0-3.0-6.0-1.0-0.31","5f4825f51e38a119965b561a","6662009ae78f21dd82fcd179","666205ebdf49db053d4e0056","342","","f","","","","","","","","./tasks/HMM-beads/Images/NewTrialWC.png","lowH","1","31","1","1","1","0","false","",""
"image-keyboard-response","230","331347","0.0-3.0-6.0-1.0-1.31","5f4825f51e38a119965b561a","6662009ae78f21dd82fcd179","666205ebdf49db053d4e0056","null","","null","","","","","","","","./tasks/HMM-beads/Images/BlackBeadChoice.png","","","","","","","","","",""
"image-keyboard-response","231","331848","0.0-3.0-6.0-1.0-2.31","5f4825f51e38a119965b561a","6662009ae78f21dd82fcd179","666205ebdf49db053d4e0056","null","","null","","","","","","","","./tasks/HMM-beads/Images/BlackBeadChoiceWrong.png","","","","","","","","","",""
"image-keyboard-response","232","332339","0.0-3.0-6.0-1.0-0.32","5f4825f51e38a119965b561a","6662009ae78f21dd82fcd179","666205ebdf49db053d4e0056","490","","j","","","","","","","","./tasks/HMM-beads/Images/NewTrialWC.png","lowH","1","32","1","1","1","1","true","",""
"image-keyboard-response","233","332654","0.0-3.0-6.0-1.0-1.32","5f4825f51e38a119965b561a","6662009ae78f21dd82fcd179","666205ebdf49db053d4e0056","null","","null","","","","","","","","./tasks/HMM-beads/Images/WhiteBeadChoice.png","","","","","","","","","",""
"image-keyboard-response","234","333159","0.0-3.0-6.0-1.0-2.32","5f4825f51e38a119965b561a","6662009ae78f21dd82fcd179","666205ebdf49db053d4e0056","null","","null","","","","","","","","./tasks/HMM-beads/Images/WhiteBeadChoiceCorrect.png","","","","","","","","","",""
"image-keyboard-response","235","334100","0.0-3.0-6.0-1.0-0.33","5f4825f51e38a119965b561a","6662009ae78f21dd82fcd179","666205ebdf49db053d4e0056","939","","j","","","","","","","","./tasks/HMM-beads/Images/NewTrialWC.png","lowH","1","33","1","1","1","1","true","",""
"image-keyboard-response","236","334412","0.0-3.0-6.0-1.0-1.33","5f4825f51e38a119965b561a","6662009ae78f21dd82fcd179","666205ebdf49db053d4e0056","null","","null","","","","","","","","./tasks/HMM-beads/Images/WhiteBeadChoice.png","","","","","","","","","",""
"image-keyboard-response","237","334928","0.0-3.0-6.0-1.0-2.33","5f4825f51e38a119965b561a","6662009ae78f21dd82fcd179","666205ebdf49db053d4e0056","null","","null","","","","","","","","./tasks/HMM-beads/Images/WhiteBeadChoiceCorrect.png","","","","","","","","","",""
"image-keyboard-response","238","334952","0.0-3.0-6.0-1.0-0.34","5f4825f51e38a119965b561a","6662009ae78f21dd82fcd179","666205ebdf49db053d4e0056","23","","j","","","","","","","","./tasks/HMM-beads/Images/NewTrialWC.png","lowH","1","34","1","1","1","1","true","",""
"image-keyboard-response","239","335277","0.0-3.0-6.0-1.0-1.34","5f4825f51e38a119965b561a","6662009ae78f21dd82fcd179","666205ebdf49db053d4e0056","null","","null","","","","","","","","./tasks/HMM-beads/Images/WhiteBeadChoice.png","","","","","","","","","",""
"image-keyboard-response","240","335786","0.0-3.0-6.0-1.0-2.34","5f4825f51e38a119965b561a","6662009ae78f21dd82fcd179","666205ebdf49db053d4e0056","null","","null","","","","","","","","./tasks/HMM-beads/Images/WhiteBeadChoiceCorrect.png","","","","","","","","","",""
"image-keyboard-response","241","335831","0.0-3.0-6.0-1.0-0.35","5f4825f51e38a119965b561a","6662009ae78f21dd82fcd179","666205ebdf49db053d4e0056","44","","j","","","","","","","","./tasks/HMM-beads/Images/NewTrialWC.png","lowH","1","35","1","1","1","1","true","",""
"image-keyboard-response","242","336137","0.0-3.0-6.0-1.0-1.35","5f4825f51e38a119965b561a","6662009ae78f21dd82fcd179","666205ebdf49db053d4e0056","null","","null","","","","","","","","./tasks/HMM-beads/Images/WhiteBeadChoice.png","","","","","","","","","",""
"image-keyboard-response","243","336640","0.0-3.0-6.0-1.0-2.35","5f4825f51e38a119965b561a","6662009ae78f21dd82fcd179","666205ebdf49db053d4e0056","null","","null","","","","","","","","./tasks/HMM-beads/Images/WhiteBeadChoiceCorrect.png","","","","","","","","","",""
"image-keyboard-response","244","337923","0.0-3.0-6.0-1.0-0.36","5f4825f51e38a119965b561a","6662009ae78f21dd82fcd179","666205ebdf49db053d4e0056","1281","","f","","","","","","","","./tasks/HMM-beads/Images/NewTrialWC.png","lowH","1","36","1","1","1","0","false","",""
"image-keyboard-response","245","338236","0.0-3.0-6.0-1.0-1.36","5f4825f51e38a119965b561a","6662009ae78f21dd82fcd179","666205ebdf49db053d4e0056","null","","null","","","","","","","","./tasks/HMM-beads/Images/BlackBeadChoice.png","","","","","","","","","",""
"image-keyboard-response","246","338744","0.0-3.0-6.0-1.0-2.36","5f4825f51e38a119965b561a","6662009ae78f21dd82fcd179","666205ebdf49db053d4e0056","null","","null","","","","","","","","./tasks/HMM-beads/Images/BlackBeadChoiceWrong.png","","","","","","","","","",""
"image-keyboard-response","247","339178","0.0-3.0-6.0-1.0-0.37","5f4825f51e38a119965b561a","6662009ae78f21dd82fcd179","666205ebdf49db053d4e0056","433","","j","","","","","","","","./tasks/HMM-beads/Images/NewTrialWC.png","lowH","1","37","1","1","1","1","true","",""
"image-keyboard-response","248","339482","0.0-3.0-6.0-1.0-1.37","5f4825f51e38a119965b561a","6662009ae78f21dd82fcd179","666205ebdf49db053d4e0056","null","","null","","","","","","","","./tasks/HMM-beads/Images/WhiteBeadChoice.png","","","","","","","","","",""
"image-keyboard-response","249","339987","0.0-3.0-6.0-1.0-2.37","5f4825f51e38a119965b561a","6662009ae78f21dd82fcd179","666205ebdf49db053d4e0056","null","","null","","","","","","","","./tasks/HMM-beads/Images/WhiteBeadChoiceCorrect.png","","","","","","","","","",""
"image-keyboard-response","250","340578","0.0-3.0-6.0-1.0-0.38","5f4825f51e38a119965b561a","6662009ae78f21dd82fcd179","666205ebdf49db053d4e0056","590","","j","","","","","","","","./tasks/HMM-beads/Images/NewTrialWC.png","lowH","1","38","1","1","1","1","true","",""
"image-keyboard-response","251","340881","0.0-3.0-6.0-1.0-1.38","5f4825f51e38a119965b561a","6662009ae78f21dd82fcd179","666205ebdf49db053d4e0056","null","","null","","","","","","","","./tasks/HMM-beads/Images/WhiteBeadChoice.png","","","","","","","","","",""
"image-keyboard-response","252","341396","0.0-3.0-6.0-1.0-2.38","5f4825f51e38a119965b561a","6662009ae78f21dd82fcd179","666205ebdf49db053d4e0056","null","","null","","","","","","","","./tasks/HMM-beads/Images/WhiteBeadChoiceCorrect.png","","","","","","","","","",""
"image-keyboard-response","253","342210","0.0-3.0-6.0-1.0-0.39","5f4825f51e38a119965b561a","6662009ae78f21dd82fcd179","666205ebdf49db053d4e0056","813","","j","","","","","","","","./tasks/HMM-beads/Images/NewTrialWC.png","lowH","1","39","1","1","1","1","true","",""
"image-keyboard-response","254","342520","0.0-3.0-6.0-1.0-1.39","5f4825f51e38a119965b561a","6662009ae78f21dd82fcd179","666205ebdf49db053d4e0056","null","","null","","","","","","","","./tasks/HMM-beads/Images/WhiteBeadChoice.png","","","","","","","","","",""
"image-keyboard-response","255","343030","0.0-3.0-6.0-1.0-2.39","5f4825f51e38a119965b561a","6662009ae78f21dd82fcd179","666205ebdf49db053d4e0056","null","","null","","","","","","","","./tasks/HMM-beads/Images/WhiteBeadChoiceCorrect.png","","","","","","","","","",""
"image-keyboard-response","256","343558","0.0-3.0-6.0-1.0-0.40","5f4825f51e38a119965b561a","6662009ae78f21dd82fcd179","666205ebdf49db053d4e0056","526","","f","","","","","","","","./tasks/HMM-beads/Images/NewTrialWC.png","lowH","1","40","1","1","1","0","false","",""
"image-keyboard-response","257","343869","0.0-3.0-6.0-1.0-1.40","5f4825f51e38a119965b561a","6662009ae78f21dd82fcd179","666205ebdf49db053d4e0056","null","","null","","","","","","","","./tasks/HMM-beads/Images/BlackBeadChoice.png","","","","","","","","","",""
"image-keyboard-response","258","344374","0.0-3.0-6.0-1.0-2.40","5f4825f51e38a119965b561a","6662009ae78f21dd82fcd179","666205ebdf49db053d4e0056","null","","null","","","","","","","","./tasks/HMM-beads/Images/BlackBeadChoiceWrong.png","","","","","","","","","",""
"image-keyboard-response","259","344512","0.0-3.0-6.0-1.0-0.41","5f4825f51e38a119965b561a","6662009ae78f21dd82fcd179","666205ebdf49db053d4e0056","137","","j","","","","","","","","./tasks/HMM-beads/Images/NewTrialWC.png","lowH","1","41","1","1","1","1","true","",""
"image-keyboard-response","260","344823","0.0-3.0-6.0-1.0-1.41","5f4825f51e38a119965b561a","6662009ae78f21dd82fcd179","666205ebdf49db053d4e0056","null","","null","","","","","","","","./tasks/HMM-beads/Images/WhiteBeadChoice.png","","","","","","","","","",""
"image-keyboard-response","261","345339","0.0-3.0-6.0-1.0-2.41","5f4825f51e38a119965b561a","6662009ae78f21dd82fcd179","666205ebdf49db053d4e0056","null","","null","","","","","","","","./tasks/HMM-beads/Images/WhiteBeadChoiceCorrect.png","","","","","","","","","",""
"image-keyboard-response","262","345556","0.0-3.0-6.0-1.0-0.42","5f4825f51e38a119965b561a","6662009ae78f21dd82fcd179","666205ebdf49db053d4e0056","215","","j","","","","","","","","./tasks/HMM-beads/Images/NewTrialWC.png","lowH","1","42","1","1","1","1","true","",""
"image-keyboard-response","263","345869","0.0-3.0-6.0-1.0-1.42","5f4825f51e38a119965b561a","6662009ae78f21dd82fcd179","666205ebdf49db053d4e0056","null","","null","","","","","","","","./tasks/HMM-beads/Images/WhiteBeadChoice.png","","","","","","","","","",""
"image-keyboard-response","264","346386","0.0-3.0-6.0-1.0-2.42","5f4825f51e38a119965b561a","6662009ae78f21dd82fcd179","666205ebdf49db053d4e0056","null","","null","","","","","","","","./tasks/HMM-beads/Images/WhiteBeadChoiceCorrect.png","","","","","","","","","",""
"image-keyboard-response","265","346730","0.0-3.0-6.0-1.0-0.43","5f4825f51e38a119965b561a","6662009ae78f21dd82fcd179","666205ebdf49db053d4e0056","342","","j","","","","","","","","./tasks/HMM-beads/Images/NewTrialWC.png","lowH","1","43","1","1","1","1","true","",""
"image-keyboard-response","266","347037","0.0-3.0-6.0-1.0-1.43","5f4825f51e38a119965b561a","6662009ae78f21dd82fcd179","666205ebdf49db053d4e0056","null","","null","","","","","","","","./tasks/HMM-beads/Images/WhiteBeadChoice.png","","","","","","","","","",""
"image-keyboard-response","267","347541","0.0-3.0-6.0-1.0-2.43","5f4825f51e38a119965b561a","6662009ae78f21dd82fcd179","666205ebdf49db053d4e0056","null","","null","","","","","","","","./tasks/HMM-beads/Images/WhiteBeadChoiceCorrect.png","","","","","","","","","",""
"image-keyboard-response","268","347996","0.0-3.0-6.0-1.0-0.44","5f4825f51e38a119965b561a","6662009ae78f21dd82fcd179","666205ebdf49db053d4e0056","454","","j","","","","","","","","./tasks/HMM-beads/Images/NewTrialWC.png","lowH","1","44","1","1","1","1","true","",""
"image-keyboard-response","269","348303","0.0-3.0-6.0-1.0-1.44","5f4825f51e38a119965b561a","6662009ae78f21dd82fcd179","666205ebdf49db053d4e0056","null","","null","","","","","","","","./tasks/HMM-beads/Images/WhiteBeadChoice.png","","","","","","","","","",""
"image-keyboard-response","270","348807","0.0-3.0-6.0-1.0-2.44","5f4825f51e38a119965b561a","6662009ae78f21dd82fcd179","666205ebdf49db053d4e0056","null","","null","","","","","","","","./tasks/HMM-beads/Images/WhiteBeadChoiceCorrect.png","","","","","","","","","",""
"image-keyboard-response","271","349144","0.0-3.0-6.0-1.0-0.45","5f4825f51e38a119965b561a","6662009ae78f21dd82fcd179","666205ebdf49db053d4e0056","336","","j","","","","","","","","./tasks/HMM-beads/Images/NewTrialWC.png","lowH","1","45","1","1","1","1","true","",""
"image-keyboard-response","272","349461","0.0-3.0-6.0-1.0-1.45","5f4825f51e38a119965b561a","6662009ae78f21dd82fcd179","666205ebdf49db053d4e0056","null","","null","","","","","","","","./tasks/HMM-beads/Images/WhiteBeadChoice.png","","","","","","","","","",""
"image-keyboard-response","273","349972","0.0-3.0-6.0-1.0-2.45","5f4825f51e38a119965b561a","6662009ae78f21dd82fcd179","666205ebdf49db053d4e0056","null","","null","","","","","","","","./tasks/HMM-beads/Images/WhiteBeadChoiceCorrect.png","","","","","","","","","",""
"image-keyboard-response","274","351884","0.0-3.0-6.0-1.0-0.46","5f4825f51e38a119965b561a","6662009ae78f21dd82fcd179","666205ebdf49db053d4e0056","1910","","f","","","","","","","","./tasks/HMM-beads/Images/NewTrialWC.png","lowH","1","46","1","1","1","0","false","",""
"image-keyboard-response","275","352188","0.0-3.0-6.0-1.0-1.46","5f4825f51e38a119965b561a","6662009ae78f21dd82fcd179","666205ebdf49db053d4e0056","null","","null","","","","","","","","./tasks/HMM-beads/Images/BlackBeadChoice.png","","","","","","","","","",""
"image-keyboard-response","276","352693","0.0-3.0-6.0-1.0-2.46","5f4825f51e38a119965b561a","6662009ae78f21dd82fcd179","666205ebdf49db053d4e0056","null","","null","","","","","","","","./tasks/HMM-beads/Images/BlackBeadChoiceWrong.png","","","","","","","","","",""
"image-keyboard-response","277","352870","0.0-3.0-6.0-1.0-0.47","5f4825f51e38a119965b561a","6662009ae78f21dd82fcd179","666205ebdf49db053d4e0056","176","","j","","","","","","","","./tasks/HMM-beads/Images/NewTrialWC.png","lowH","1","47","1","0","1","1","false","",""
"image-keyboard-response","278","353187","0.0-3.0-6.0-1.0-1.47","5f4825f51e38a119965b561a","6662009ae78f21dd82fcd179","666205ebdf49db053d4e0056","null","","null","","","","","","","","./tasks/HMM-beads/Images/WhiteBeadChoice.png","","","","","","","","","",""
"image-keyboard-response","279","353699","0.0-3.0-6.0-1.0-2.47","5f4825f51e38a119965b561a","6662009ae78f21dd82fcd179","666205ebdf49db053d4e0056","null","","null","","","","","","","","./tasks/HMM-beads/Images/WhiteBeadChoiceWrong.png","","","","","","","","","",""
"image-keyboard-response","280","354341","0.0-3.0-6.0-1.0-0.48","5f4825f51e38a119965b561a","6662009ae78f21dd82fcd179","666205ebdf49db053d4e0056","640","","f","","","","","","","","./tasks/HMM-beads/Images/NewTrialBC.png","lowH","1","48","1","0","0","0","true","",""
"image-keyboard-response","281","354644","0.0-3.0-6.0-1.0-1.48","5f4825f51e38a119965b561a","6662009ae78f21dd82fcd179","666205ebdf49db053d4e0056","null","","null","","","","","","","","./tasks/HMM-beads/Images/BlackBeadChoice.png","","","","","","","","","",""
"image-keyboard-response","282","355158","0.0-3.0-6.0-1.0-2.48","5f4825f51e38a119965b561a","6662009ae78f21dd82fcd179","666205ebdf49db053d4e0056","null","","null","","","","","","","","./tasks/HMM-beads/Images/BlackBeadChoiceCorrect.png","","","","","","","","","",""
"image-keyboard-response","283","355518","0.0-3.0-6.0-1.0-0.49","5f4825f51e38a119965b561a","6662009ae78f21dd82fcd179","666205ebdf49db053d4e0056","358","","f","","","","","","","","./tasks/HMM-beads/Images/NewTrialBC.png","lowH","1","49","1","0","0","0","true","",""
"image-keyboard-response","284","355820","0.0-3.0-6.0-1.0-1.49","5f4825f51e38a119965b561a","6662009ae78f21dd82fcd179","666205ebdf49db053d4e0056","null","","null","","","","","","","","./tasks/HMM-beads/Images/BlackBeadChoice.png","","","","","","","","","",""
"image-keyboard-response","285","356332","0.0-3.0-6.0-1.0-2.49","5f4825f51e38a119965b561a","6662009ae78f21dd82fcd179","666205ebdf49db053d4e0056","null","","null","","","","","","","","./tasks/HMM-beads/Images/BlackBeadChoiceCorrect.png","","","","","","","","","",""
"image-keyboard-response","286","356545","0.0-3.0-6.0-1.0-0.50","5f4825f51e38a119965b561a","6662009ae78f21dd82fcd179","666205ebdf49db053d4e0056","211","","f","","","","","","","","./tasks/HMM-beads/Images/NewTrialBC.png","lowH","1","50","1","1","0","0","false","",""
"image-keyboard-response","287","356853","0.0-3.0-6.0-1.0-1.50","5f4825f51e38a119965b561a","6662009ae78f21dd82fcd179","666205ebdf49db053d4e0056","null","","null","","","","","","","","./tasks/HMM-beads/Images/BlackBeadChoice.png","","","","","","","","","",""
"image-keyboard-response","288","357356","0.0-3.0-6.0-1.0-2.50","5f4825f51e38a119965b561a","6662009ae78f21dd82fcd179","666205ebdf49db053d4e0056","null","","null","","","","","","","","./tasks/HMM-beads/Images/BlackBeadChoiceWrong.png","","","","","","","","","",""
"image-keyboard-response","289","357653","0.0-3.0-6.0-1.0-0.51","5f4825f51e38a119965b561a","6662009ae78f21dd82fcd179","666205ebdf49db053d4e0056","295","","f","","","","","","","","./tasks/HMM-beads/Images/NewTrialWC.png","lowH","1","51","1","1","1","0","false","",""
"image-keyboard-response","290","357963","0.0-3.0-6.0-1.0-1.51","5f4825f51e38a119965b561a","6662009ae78f21dd82fcd179","666205ebdf49db053d4e0056","null","","null","","","","","","","","./tasks/HMM-beads/Images/BlackBeadChoice.png","","","","","","","","","",""
"image-keyboard-response","291","358476","0.0-3.0-6.0-1.0-2.51","5f4825f51e38a119965b561a","6662009ae78f21dd82fcd179","666205ebdf49db053d4e0056","null","","null","","","","","","","","./tasks/HMM-beads/Images/BlackBeadChoiceWrong.png","","","","","","","","","",""
"image-keyboard-response","292","358514","0.0-3.0-6.0-1.0-0.52","5f4825f51e38a119965b561a","6662009ae78f21dd82fcd179","666205ebdf49db053d4e0056","37","","f","","","","","","","","./tasks/HMM-beads/Images/NewTrialWC.png","lowH","1","52","1","1","1","0","false","",""
"image-keyboard-response","293","358818","0.0-3.0-6.0-1.0-1.52","5f4825f51e38a119965b561a","6662009ae78f21dd82fcd179","666205ebdf49db053d4e0056","null","","null","","","","","","","","./tasks/HMM-beads/Images/BlackBeadChoice.png","","","","","","","","","",""
"image-keyboard-response","294","359326","0.0-3.0-6.0-1.0-2.52","5f4825f51e38a119965b561a","6662009ae78f21dd82fcd179","666205ebdf49db053d4e0056","null","","null","","","","","","","","./tasks/HMM-beads/Images/BlackBeadChoiceWrong.png","","","","","","","","","",""
"image-keyboard-response","295","359716","0.0-3.0-6.0-1.0-0.53","5f4825f51e38a119965b561a","6662009ae78f21dd82fcd179","666205ebdf49db053d4e0056","389","","j","","","","","","","","./tasks/HMM-beads/Images/NewTrialWC.png","lowH","1","53","1","1","1","1","true","",""
"image-keyboard-response","296","360018","0.0-3.0-6.0-1.0-1.53","5f4825f51e38a119965b561a","6662009ae78f21dd82fcd179","666205ebdf49db053d4e0056","null","","null","","","","","","","","./tasks/HMM-beads/Images/WhiteBeadChoice.png","","","","","","","","","",""
"image-keyboard-response","297","360528","0.0-3.0-6.0-1.0-2.53","5f4825f51e38a119965b561a","6662009ae78f21dd82fcd179","666205ebdf49db053d4e0056","null","","null","","","","","","","","./tasks/HMM-beads/Images/WhiteBeadChoiceCorrect.png","","","","","","","","","",""
"image-keyboard-response","298","361141","0.0-3.0-6.0-1.0-0.54","5f4825f51e38a119965b561a","6662009ae78f21dd82fcd179","666205ebdf49db053d4e0056","611","","f","","","","","","","","./tasks/HMM-beads/Images/NewTrialWC.png","lowH","1","54","1","1","1","0","false","",""
"image-keyboard-response","299","361452","0.0-3.0-6.0-1.0-1.54","5f4825f51e38a119965b561a","6662009ae78f21dd82fcd179","666205ebdf49db053d4e0056","null","","null","","","","","","","","./tasks/HMM-beads/Images/BlackBeadChoice.png","","","","","","","","","",""
"image-keyboard-response","300","361966","0.0-3.0-6.0-1.0-2.54","5f4825f51e38a119965b561a","6662009ae78f21dd82fcd179","666205ebdf49db053d4e0056","null","","null","","","","","","","","./tasks/HMM-beads/Images/BlackBeadChoiceWrong.png","","","","","","","","","",""
"image-keyboard-response","301","362111","0.0-3.0-6.0-1.0-0.55","5f4825f51e38a119965b561a","6662009ae78f21dd82fcd179","666205ebdf49db053d4e0056","144","","j","","","","","","","","./tasks/HMM-beads/Images/NewTrialWC.png","lowH","1","55","1","1","1","1","true","",""
"image-keyboard-response","302","362413","0.0-3.0-6.0-1.0-1.55","5f4825f51e38a119965b561a","6662009ae78f21dd82fcd179","666205ebdf49db053d4e0056","null","","null","","","","","","","","./tasks/HMM-beads/Images/WhiteBeadChoice.png","","","","","","","","","",""
"image-keyboard-response","303","362923","0.0-3.0-6.0-1.0-2.55","5f4825f51e38a119965b561a","6662009ae78f21dd82fcd179","666205ebdf49db053d4e0056","null","","null","","","","","","","","./tasks/HMM-beads/Images/WhiteBeadChoiceCorrect.png","","","","","","","","","",""
"image-keyboard-response","304","363444","0.0-3.0-6.0-1.0-0.56","5f4825f51e38a119965b561a","6662009ae78f21dd82fcd179","666205ebdf49db053d4e0056","520","","f","","","","","","","","./tasks/HMM-beads/Images/NewTrialWC.png","lowH","1","56","1","1","1","0","false","",""
"image-keyboard-response","305","363750","0.0-3.0-6.0-1.0-1.56","5f4825f51e38a119965b561a","6662009ae78f21dd82fcd179","666205ebdf49db053d4e0056","null","","null","","","","","","","","./tasks/HMM-beads/Images/BlackBeadChoice.png","","","","","","","","","",""
"image-keyboard-response","306","364258","0.0-3.0-6.0-1.0-2.56","5f4825f51e38a119965b561a","6662009ae78f21dd82fcd179","666205ebdf49db053d4e0056","null","","null","","","","","","","","./tasks/HMM-beads/Images/BlackBeadChoiceWrong.png","","","","","","","","","",""
"image-keyboard-response","307","364335","0.0-3.0-6.0-1.0-0.57","5f4825f51e38a119965b561a","6662009ae78f21dd82fcd179","666205ebdf49db053d4e0056","75","","j","","","","","","","","./tasks/HMM-beads/Images/NewTrialWC.png","lowH","1","57","1","1","1","1","true","",""
"image-keyboard-response","308","364640","0.0-3.0-6.0-1.0-1.57","5f4825f51e38a119965b561a","6662009ae78f21dd82fcd179","666205ebdf49db053d4e0056","null","","null","","","","","","","","./tasks/HMM-beads/Images/WhiteBeadChoice.png","","","","","","","","","",""
"image-keyboard-response","309","365155","0.0-3.0-6.0-1.0-2.57","5f4825f51e38a119965b561a","6662009ae78f21dd82fcd179","666205ebdf49db053d4e0056","null","","null","","","","","","","","./tasks/HMM-beads/Images/WhiteBeadChoiceCorrect.png","","","","","","","","","",""
"image-keyboard-response","310","365516","0.0-3.0-6.0-1.0-0.58","5f4825f51e38a119965b561a","6662009ae78f21dd82fcd179","666205ebdf49db053d4e0056","359","","j","","","","","","","","./tasks/HMM-beads/Images/NewTrialWC.png","lowH","1","58","1","1","1","1","true","",""
"image-keyboard-response","311","365829","0.0-3.0-6.0-1.0-1.58","5f4825f51e38a119965b561a","6662009ae78f21dd82fcd179","666205ebdf49db053d4e0056","null","","null","","","","","","","","./tasks/HMM-beads/Images/WhiteBeadChoice.png","","","","","","","","","",""
"image-keyboard-response","312","366340","0.0-3.0-6.0-1.0-2.58","5f4825f51e38a119965b561a","6662009ae78f21dd82fcd179","666205ebdf49db053d4e0056","null","","null","","","","","","","","./tasks/HMM-beads/Images/WhiteBeadChoiceCorrect.png","","","","","","","","","",""
"image-keyboard-response","313","366822","0.0-3.0-6.0-1.0-0.59","5f4825f51e38a119965b561a","6662009ae78f21dd82fcd179","666205ebdf49db053d4e0056","480","","j","","","","","","","","./tasks/HMM-beads/Images/NewTrialWC.png","lowH","1","59","1","0","1","1","false","",""
"image-keyboard-response","314","367124","0.0-3.0-6.0-1.0-1.59","5f4825f51e38a119965b561a","6662009ae78f21dd82fcd179","666205ebdf49db053d4e0056","null","","null","","","","","","","","./tasks/HMM-beads/Images/WhiteBeadChoice.png","","","","","","","","","",""
"image-keyboard-response","315","367638","0.0-3.0-6.0-1.0-2.59","5f4825f51e38a119965b561a","6662009ae78f21dd82fcd179","666205ebdf49db053d4e0056","null","","null","","","","","","","","./tasks/HMM-beads/Images/WhiteBeadChoiceWrong.png","","","","","","","","","",""
"image-keyboard-response","316","368661","0.0-3.0-6.0-1.0-0.60","5f4825f51e38a119965b561a","6662009ae78f21dd82fcd179","666205ebdf49db053d4e0056","1022","","f","","","","","","","","./tasks/HMM-beads/Images/NewTrialBC.png","lowH","1","60","1","1","0","0","false","",""
"image-keyboard-response","317","368985","0.0-3.0-6.0-1.0-1.60","5f4825f51e38a119965b561a","6662009ae78f21dd82fcd179","666205ebdf49db053d4e0056","null","","null","","","","","","","","./tasks/HMM-beads/Images/BlackBeadChoice.png","","","","","","","","","",""
"image-keyboard-response","318","369491","0.0-3.0-6.0-1.0-2.60","5f4825f51e38a119965b561a","6662009ae78f21dd82fcd179","666205ebdf49db053d4e0056","null","","null","","","","","","","","./tasks/HMM-beads/Images/BlackBeadChoiceWrong.png","","","","","","","","","",""
"image-keyboard-response","319","369737","0.0-3.0-6.0-1.0-0.61","5f4825f51e38a119965b561a","6662009ae78f21dd82fcd179","666205ebdf49db053d4e0056","244","","j","","","","","","","","./tasks/HMM-beads/Images/NewTrialWC.png","lowH","1","61","1","1","1","1","true","",""
"image-keyboard-response","320","370051","0.0-3.0-6.0-1.0-1.61","5f4825f51e38a119965b561a","6662009ae78f21dd82fcd179","666205ebdf49db053d4e0056","null","","null","","","","","","","","./tasks/HMM-beads/Images/WhiteBeadChoice.png","","","","","","","","","",""
"image-keyboard-response","321","370558","0.0-3.0-6.0-1.0-2.61","5f4825f51e38a119965b561a","6662009ae78f21dd82fcd179","666205ebdf49db053d4e0056","null","","null","","","","","","","","./tasks/HMM-beads/Images/WhiteBeadChoiceCorrect.png","","","","","","","","","",""
"image-keyboard-response","322","371180","0.0-3.0-6.0-1.0-0.62","5f4825f51e38a119965b561a","6662009ae78f21dd82fcd179","666205ebdf49db053d4e0056","621","","j","","","","","","","","./tasks/HMM-beads/Images/NewTrialWC.png","lowH","1","62","1","0","1","1","false","",""
"image-keyboard-response","323","371496","0.0-3.0-6.0-1.0-1.62","5f4825f51e38a119965b561a","6662009ae78f21dd82fcd179","666205ebdf49db053d4e0056","null","","null","","","","","","","","./tasks/HMM-beads/Images/WhiteBeadChoice.png","","","","","","","","","",""
"image-keyboard-response","324","372014","0.0-3.0-6.0-1.0-2.62","5f4825f51e38a119965b561a","6662009ae78f21dd82fcd179","666205ebdf49db053d4e0056","null","","null","","","","","","","","./tasks/HMM-beads/Images/WhiteBeadChoiceWrong.png","","","","","","","","","",""
"image-keyboard-response","325","372648","0.0-3.0-6.0-1.0-0.63","5f4825f51e38a119965b561a","6662009ae78f21dd82fcd179","666205ebdf49db053d4e0056","633","","j","","","","","","","","./tasks/HMM-beads/Images/NewTrialBC.png","lowH","1","63","1","1","0","1","true","",""
"image-keyboard-response","326","372952","0.0-3.0-6.0-1.0-1.63","5f4825f51e38a119965b561a","6662009ae78f21dd82fcd179","666205ebdf49db053d4e0056","null","","null","","","","","","","","./tasks/HMM-beads/Images/WhiteBeadChoice.png","","","","","","","","","",""
"image-keyboard-response","327","373465","0.0-3.0-6.0-1.0-2.63","5f4825f51e38a119965b561a","6662009ae78f21dd82fcd179","666205ebdf49db053d4e0056","null","","null","","","","","","","","./tasks/HMM-beads/Images/WhiteBeadChoiceCorrect.png","","","","","","","","","",""
"image-keyboard-response","328","374210","0.0-3.0-6.0-1.0-0.64","5f4825f51e38a119965b561a","6662009ae78f21dd82fcd179","666205ebdf49db053d4e0056","743","","f","","","","","","","","./tasks/HMM-beads/Images/NewTrialWC.png","lowH","1","64","1","1","1","0","false","",""
"image-keyboard-response","329","374518","0.0-3.0-6.0-1.0-1.64","5f4825f51e38a119965b561a","6662009ae78f21dd82fcd179","666205ebdf49db053d4e0056","null","","null","","","","","","","","./tasks/HMM-beads/Images/BlackBeadChoice.png","","","","","","","","","",""
"image-keyboard-response","330","375029","0.0-3.0-6.0-1.0-2.64","5f4825f51e38a119965b561a","6662009ae78f21dd82fcd179","666205ebdf49db053d4e0056","null","","null","","","","","","","","./tasks/HMM-beads/Images/BlackBeadChoiceWrong.png","","","","","","","","","",""
"image-keyboard-response","331","375417","0.0-3.0-6.0-1.0-0.65","5f4825f51e38a119965b561a","6662009ae78f21dd82fcd179","666205ebdf49db053d4e0056","386","","j","","","","","","","","./tasks/HMM-beads/Images/NewTrialWC.png","lowH","1","65","1","1","1","1","true","",""
"image-keyboard-response","332","375731","0.0-3.0-6.0-1.0-1.65","5f4825f51e38a119965b561a","6662009ae78f21dd82fcd179","666205ebdf49db053d4e0056","null","","null","","","","","","","","./tasks/HMM-beads/Images/WhiteBeadChoice.png","","","","","","","","","",""
"image-keyboard-response","333","376240","0.0-3.0-6.0-1.0-2.65","5f4825f51e38a119965b561a","6662009ae78f21dd82fcd179","666205ebdf49db053d4e0056","null","","null","","","","","","","","./tasks/HMM-beads/Images/WhiteBeadChoiceCorrect.png","","","","","","","","","",""
"image-keyboard-response","334","376673","0.0-3.0-6.0-1.0-0.66","5f4825f51e38a119965b561a","6662009ae78f21dd82fcd179","666205ebdf49db053d4e0056","432","","j","","","","","","","","./tasks/HMM-beads/Images/NewTrialWC.png","lowH","1","66","1","1","1","1","true","",""
"image-keyboard-response","335","376986","0.0-3.0-6.0-1.0-1.66","5f4825f51e38a119965b561a","6662009ae78f21dd82fcd179","666205ebdf49db053d4e0056","null","","null","","","","","","","","./tasks/HMM-beads/Images/WhiteBeadChoice.png","","","","","","","","","",""
"image-keyboard-response","336","377496","0.0-3.0-6.0-1.0-2.66","5f4825f51e38a119965b561a","6662009ae78f21dd82fcd179","666205ebdf49db053d4e0056","null","","null","","","","","","","","./tasks/HMM-beads/Images/WhiteBeadChoiceCorrect.png","","","","","","","","","",""
"image-keyboard-response","337","377630","0.0-3.0-6.0-1.0-0.67","5f4825f51e38a119965b561a","6662009ae78f21dd82fcd179","666205ebdf49db053d4e0056","133","","j","","","","","","","","./tasks/HMM-beads/Images/NewTrialWC.png","lowH","1","67","1","0","1","1","false","",""
"image-keyboard-response","338","377936","0.0-3.0-6.0-1.0-1.67","5f4825f51e38a119965b561a","6662009ae78f21dd82fcd179","666205ebdf49db053d4e0056","null","","null","","","","","","","","./tasks/HMM-beads/Images/WhiteBeadChoice.png","","","","","","","","","",""
"image-keyboard-response","339","378453","0.0-3.0-6.0-1.0-2.67","5f4825f51e38a119965b561a","6662009ae78f21dd82fcd179","666205ebdf49db053d4e0056","null","","null","","","","","","","","./tasks/HMM-beads/Images/WhiteBeadChoiceWrong.png","","","","","","","","","",""
"image-keyboard-response","340","378486","0.0-3.0-6.0-1.0-0.68","5f4825f51e38a119965b561a","6662009ae78f21dd82fcd179","666205ebdf49db053d4e0056","32","","j","","","","","","","","./tasks/HMM-beads/Images/NewTrialBC.png","lowH","1","68","1","1","0","1","true","",""
"image-keyboard-response","341","378792","0.0-3.0-6.0-1.0-1.68","5f4825f51e38a119965b561a","6662009ae78f21dd82fcd179","666205ebdf49db053d4e0056","null","","null","","","","","","","","./tasks/HMM-beads/Images/WhiteBeadChoice.png","","","","","","","","","",""
"image-keyboard-response","342","379306","0.0-3.0-6.0-1.0-2.68","5f4825f51e38a119965b561a","6662009ae78f21dd82fcd179","666205ebdf49db053d4e0056","null","","null","","","","","","","","./tasks/HMM-beads/Images/WhiteBeadChoiceCorrect.png","","","","","","","","","",""
"image-keyboard-response","343","379632","0.0-3.0-6.0-1.0-0.69","5f4825f51e38a119965b561a","6662009ae78f21dd82fcd179","666205ebdf49db053d4e0056","315","","j","","","","","","","","./tasks/HMM-beads/Images/NewTrialWC.png","lowH","1","69","0","1","1","1","true","",""
"image-keyboard-response","344","379935","0.0-3.0-6.0-1.0-1.69","5f4825f51e38a119965b561a","6662009ae78f21dd82fcd179","666205ebdf49db053d4e0056","null","","null","","","","","","","","./tasks/HMM-beads/Images/WhiteBeadChoice.png","","","","","","","","","",""
"image-keyboard-response","345","380449","0.0-3.0-6.0-1.0-2.69","5f4825f51e38a119965b561a","6662009ae78f21dd82fcd179","666205ebdf49db053d4e0056","null","","null","","","","","","","","./tasks/HMM-beads/Images/WhiteBeadChoiceCorrect.png","","","","","","","","","",""
"image-keyboard-response","346","381097","0.0-3.0-6.0-1.0-0.70","5f4825f51e38a119965b561a","6662009ae78f21dd82fcd179","666205ebdf49db053d4e0056","647","","j","","","","","","","","./tasks/HMM-beads/Images/NewTrialWC.png","lowH","1","70","0","1","1","1","true","",""
"image-keyboard-response","347","381411","0.0-3.0-6.0-1.0-1.70","5f4825f51e38a119965b561a","6662009ae78f21dd82fcd179","666205ebdf49db053d4e0056","null","","null","","","","","","","","./tasks/HMM-beads/Images/WhiteBeadChoice.png","","","","","","","","","",""
"image-keyboard-response","348","381919","0.0-3.0-6.0-1.0-2.70","5f4825f51e38a119965b561a","6662009ae78f21dd82fcd179","666205ebdf49db053d4e0056","null","","null","","","","","","","","./tasks/HMM-beads/Images/WhiteBeadChoiceCorrect.png","","","","","","","","","",""
"image-keyboard-response","349","381939","0.0-3.0-6.0-1.0-0.71","5f4825f51e38a119965b561a","6662009ae78f21dd82fcd179","666205ebdf49db053d4e0056","18","","f","","","","","","","","./tasks/HMM-beads/Images/NewTrialWC.png","lowH","1","71","0","0","1","0","true","",""
"image-keyboard-response","350","382250","0.0-3.0-6.0-1.0-1.71","5f4825f51e38a119965b561a","6662009ae78f21dd82fcd179","666205ebdf49db053d4e0056","null","","null","","","","","","","","./tasks/HMM-beads/Images/BlackBeadChoice.png","","","","","","","","","",""
"image-keyboard-response","351","382754","0.0-3.0-6.0-1.0-2.71","5f4825f51e38a119965b561a","6662009ae78f21dd82fcd179","666205ebdf49db053d4e0056","null","","null","","","","","","","","./tasks/HMM-beads/Images/BlackBeadChoiceCorrect.png","","","","","","","","","",""
"image-keyboard-response","352","383094","0.0-3.0-6.0-1.0-0.72","5f4825f51e38a119965b561a","6662009ae78f21dd82fcd179","666205ebdf49db053d4e0056","338","","j","","","","","","","","./tasks/HMM-beads/Images/NewTrialBC.png","lowH","1","72","0","0","0","1","false","",""
"image-keyboard-response","353","383408","0.0-3.0-6.0-1.0-1.72","5f4825f51e38a119965b561a","6662009ae78f21dd82fcd179","666205ebdf49db053d4e0056","null","","null","","","","","","","","./tasks/HMM-beads/Images/WhiteBeadChoice.png","","","","","","","","","",""
"image-keyboard-response","354","383925","0.0-3.0-6.0-1.0-2.72","5f4825f51e38a119965b561a","6662009ae78f21dd82fcd179","666205ebdf49db053d4e0056","null","","null","","","","","","","","./tasks/HMM-beads/Images/WhiteBeadChoiceWrong.png","","","","","","","","","",""
"image-keyboard-response","355","384314","0.0-3.0-6.0-1.0-0.73","5f4825f51e38a119965b561a","6662009ae78f21dd82fcd179","666205ebdf49db053d4e0056","388","","j","","","","","","","","./tasks/HMM-beads/Images/NewTrialBC.png","lowH","1","73","0","1","0","1","true","",""
"image-keyboard-response","356","384633","0.0-3.0-6.0-1.0-1.73","5f4825f51e38a119965b561a","6662009ae78f21dd82fcd179","666205ebdf49db053d4e0056","null","","null","","","","","","","","./tasks/HMM-beads/Images/WhiteBeadChoice.png","","","","","","","","","",""
"image-keyboard-response","357","385140","0.0-3.0-6.0-1.0-2.73","5f4825f51e38a119965b561a","6662009ae78f21dd82fcd179","666205ebdf49db053d4e0056","null","","null","","","","","","","","./tasks/HMM-beads/Images/WhiteBeadChoiceCorrect.png","","","","","","","","","",""
"image-keyboard-response","358","385234","0.0-3.0-6.0-1.0-0.74","5f4825f51e38a119965b561a","6662009ae78f21dd82fcd179","666205ebdf49db053d4e0056","91","","j","","","","","","","","./tasks/HMM-beads/Images/NewTrialWC.png","lowH","1","74","0","0","1","1","false","",""
"image-keyboard-response","359","385547","0.0-3.0-6.0-1.0-1.74","5f4825f51e38a119965b561a","6662009ae78f21dd82fcd179","666205ebdf49db053d4e0056","null","","null","","","","","","","","./tasks/HMM-beads/Images/WhiteBeadChoice.png","","","","","","","","","",""
"image-keyboard-response","360","386057","0.0-3.0-6.0-1.0-2.74","5f4825f51e38a119965b561a","6662009ae78f21dd82fcd179","666205ebdf49db053d4e0056","null","","null","","","","","","","","./tasks/HMM-beads/Images/WhiteBeadChoiceWrong.png","","","","","","","","","",""
"image-keyboard-response","361","386134","0.0-3.0-6.0-1.0-0.75","5f4825f51e38a119965b561a","6662009ae78f21dd82fcd179","666205ebdf49db053d4e0056","75","","f","","","","","","","","./tasks/HMM-beads/Images/NewTrialBC.png","lowH","1","75","0","1","0","0","false","",""
"image-keyboard-response","362","386446","0.0-3.0-6.0-1.0-1.75","5f4825f51e38a119965b561a","6662009ae78f21dd82fcd179","666205ebdf49db053d4e0056","null","","null","","","","","","","","./tasks/HMM-beads/Images/BlackBeadChoice.png","","","","","","","","","",""
"image-keyboard-response","363","386956","0.0-3.0-6.0-1.0-2.75","5f4825f51e38a119965b561a","6662009ae78f21dd82fcd179","666205ebdf49db053d4e0056","null","","null","","","","","","","","./tasks/HMM-beads/Images/BlackBeadChoiceWrong.png","","","","","","","","","",""
"image-keyboard-response","364","387068","0.0-3.0-6.0-1.0-0.76","5f4825f51e38a119965b561a","6662009ae78f21dd82fcd179","666205ebdf49db053d4e0056","110","","j","","","","","","","","./tasks/HMM-beads/Images/NewTrialWC.png","lowH","1","76","0","1","1","1","true","",""
"image-keyboard-response","365","387379","0.0-3.0-6.0-1.0-1.76","5f4825f51e38a119965b561a","6662009ae78f21dd82fcd179","666205ebdf49db053d4e0056","null","","null","","","","","","","","./tasks/HMM-beads/Images/WhiteBeadChoice.png","","","","","","","","","",""
"image-keyboard-response","366","387891","0.0-3.0-6.0-1.0-2.76","5f4825f51e38a119965b561a","6662009ae78f21dd82fcd179","666205ebdf49db053d4e0056","null","","null","","","","","","","","./tasks/HMM-beads/Images/WhiteBeadChoiceCorrect.png","","","","","","","","","",""
"image-keyboard-response","367","388348","0.0-3.0-6.0-1.0-0.77","5f4825f51e38a119965b561a","6662009ae78f21dd82fcd179","666205ebdf49db053d4e0056","455","","j","","","","","","","","./tasks/HMM-beads/Images/NewTrialWC.png","lowH","1","77","0","0","1","1","false","",""
"image-keyboard-response","368","388664","0.0-3.0-6.0-1.0-1.77","5f4825f51e38a119965b561a","6662009ae78f21dd82fcd179","666205ebdf49db053d4e0056","null","","null","","","","","","","","./tasks/HMM-beads/Images/WhiteBeadChoice.png","","","","","","","","","",""
"image-keyboard-response","369","389187","0.0-3.0-6.0-1.0-2.77","5f4825f51e38a119965b561a","6662009ae78f21dd82fcd179","666205ebdf49db053d4e0056","null","","null","","","","","","","","./tasks/HMM-beads/Images/WhiteBeadChoiceWrong.png","","","","","","","","","",""
"image-keyboard-response","370","389767","0.0-3.0-6.0-1.0-0.78","5f4825f51e38a119965b561a","6662009ae78f21dd82fcd179","666205ebdf49db053d4e0056","579","","f","","","","","","","","./tasks/HMM-beads/Images/NewTrialBC.png","lowH","1","78","0","0","0","0","true","",""
"image-keyboard-response","371","390083","0.0-3.0-6.0-1.0-1.78","5f4825f51e38a119965b561a","6662009ae78f21dd82fcd179","666205ebdf49db053d4e0056","null","","null","","","","","","","","./tasks/HMM-beads/Images/BlackBeadChoice.png","","","","","","","","","",""
"image-keyboard-response","372","390589","0.0-3.0-6.0-1.0-2.78","5f4825f51e38a119965b561a","6662009ae78f21dd82fcd179","666205ebdf49db053d4e0056","null","","null","","","","","","","","./tasks/HMM-beads/Images/BlackBeadChoiceCorrect.png","","","","","","","","","",""
"image-keyboard-response","373","391048","0.0-3.0-6.0-1.0-0.79","5f4825f51e38a119965b561a","6662009ae78f21dd82fcd179","666205ebdf49db053d4e0056","458","","f","","","","","","","","./tasks/HMM-beads/Images/NewTrialBC.png","lowH","1","79","0","0","0","0","true","",""
"image-keyboard-response","374","391352","0.0-3.0-6.0-1.0-1.79","5f4825f51e38a119965b561a","6662009ae78f21dd82fcd179","666205ebdf49db053d4e0056","null","","null","","","","","","","","./tasks/HMM-beads/Images/BlackBeadChoice.png","","","","","","","","","",""
