"trial_type","trial_index","time_elapsed","internal_node_id","subject_id","study_id","session_id","rt","url","response","question_order","view_history","success","timeout","failed_images","failed_audio","failed_video","stimulus","block","block_rep","trial_number","jar","bead","previous_bead","choice","correct","lowH_score","total_bonus"
"pavlovia","0","2659","0.0-0.0","6108db64c7f625e1c1f8527f","6662009ae78f21dd82fcd179","666207fd0723cb029e9893bb","","","","","","","","","","","","","","","","","","","","",""
"external-html","1","22262","0.0-1.0-0.0","6108db64c7f625e1c1f8527f","6662009ae78f21dd82fcd179","666207fd0723cb029e9893bb","19397","new_consent.html","","","","","","","","","","","","","","","","","","",""
"survey-multi-choice","2","26670","0.0-1.0-1.0","6108db64c7f625e1c1f8527f","6662009ae78f21dd82fcd179","666207fd0723cb029e9893bb","4399","","{""Q0"":""Female"",""Q1"":""White""}","[0,1]","","","","","","","","","","","","","","","","",""
"survey-text","3","28458","0.0-1.0-2.0","6108db64c7f625e1c1f8527f","6662009ae78f21dd82fcd179","666207fd0723cb029e9893bb","1775","","{""Q0"":""22""}","","","","","","","","","","","","","","","","","",""
"instructions","4","29490","0.0-2.0","6108db64c7f625e1c1f8527f","6662009ae78f21dd82fcd179","666207fd0723cb029e9893bb","931","","","","[{""page_index"":0,""viewing_time"":931}]","","","","","","","","","","","","","","","",""
"preload","5","33297","0.0-3.0-0.0","6108db64c7f625e1c1f8527f","6662009ae78f21dd82fcd179","666207fd0723cb029e9893bb","","","","","","true","false","[]","[]","[]","","","","","","","","","","",""
"instructions","6","93452","0.0-3.0-1.0","6108db64c7f625e1c1f8527f","6662009ae78f21dd82fcd179","666207fd0723cb029e9893bb","60153","","","","[{""page_index"":0,""viewing_time"":7634},{""page_index"":1,""viewing_time"":4034},{""page_index"":2,""viewing_time"":2661},{""page_index"":3,""viewing_time"":1452},{""page_index"":4,""viewing_time"":6833},{""page_index"":5,""viewing_time"":8606},{""page_index"":6,""viewing_time"":2712},{""page_index"":7,""viewing_time"":7032},{""page_index"":8,""viewing_time"":4445},{""page_index"":9,""viewing_time"":3552},{""page_index"":10,""viewing_time"":9399},{""page_index"":11,""viewing_time"":1792}]","","","","","","","","","","","","","","","",""
"html-button-response","7","96189","0.0-3.0-2.0-0.0-0.0","6108db64c7f625e1c1f8527f","6662009ae78f21dd82fcd179","666207fd0723cb029e9893bb","2736","","1","","","","","","","","<div align=center>Your goal is to predict…?<br><br></div>","","","","","","","","","",""
"html-button-response","8","103019","0.0-3.0-2.0-1.0-0.0","6108db64c7f625e1c1f8527f","6662009ae78f21dd82fcd179","666207fd0723cb029e9893bb","4544","","2","","","","","","","","<div align=center>In the jar with mostly white beads, there are ___% white beads and ___% black beads?<br><br></div>","","","","","","","","","",""
"html-button-response","9","109887","0.0-3.0-2.0-2.0-0.0","6108db64c7f625e1c1f8527f","6662009ae78f21dd82fcd179","666207fd0723cb029e9893bb","5755","","0","","","","","","","","<div align=center>When there is a 1% probability that the jars will switch, the next bead will most likely be drawn from the…<br><br></div>","","","","","","","","","",""
"html-button-response","10","114481","0.0-3.0-2.0-3.0-0.0","6108db64c7f625e1c1f8527f","6662009ae78f21dd82fcd179","666207fd0723cb029e9893bb","3248","","1","","","","","","","","<div align=center>When there is a 99% probability that the jars will switch, the next bead will most likely be drawn from the…<br><br></div>","","","","","","","","","",""
"instructions","11","118767","0.0-3.0-3.0","6108db64c7f625e1c1f8527f","6662009ae78f21dd82fcd179","666207fd0723cb029e9893bb","3167","","","","[{""page_index"":0,""viewing_time"":3166}]","","","","","","","","","","","","","","","",""
"html-keyboard-response","12","131093","0.0-3.0-4.0-0.0","6108db64c7f625e1c1f8527f","6662009ae78f21dd82fcd179","666207fd0723cb029e9893bb","12325",""," ","","","","","","","","<div align=center>In this practice block, there will be a <b>1% chance</b> that the jar on the next trial will be different from the jar on the current trial.<br><br></div>","","","","","","","","","",""
"image-keyboard-response","13","136862","0.0-3.0-4.0-1.0-0.0","6108db64c7f625e1c1f8527f","6662009ae78f21dd82fcd179","666207fd0723cb029e9893bb","5748","","f","","","","","","","","./tasks/HMM-beads/Images/NoChoice.png","practice","0","0","0","0","9","0","true","",""
"image-keyboard-response","14","137180","0.0-3.0-4.0-1.0-1.0","6108db64c7f625e1c1f8527f","6662009ae78f21dd82fcd179","666207fd0723cb029e9893bb","null","","null","","","","","","","","./tasks/HMM-beads/Images/BlackBeadChoice.png","","","","","","","","","",""
"image-keyboard-response","15","137698","0.0-3.0-4.0-1.0-2.0","6108db64c7f625e1c1f8527f","6662009ae78f21dd82fcd179","666207fd0723cb029e9893bb","null","","null","","","","","","","","./tasks/HMM-beads/Images/BlackBeadChoiceCorrect.png","","","","","","","","","",""
"image-keyboard-response","16","139227","0.0-3.0-4.0-1.0-0.1","6108db64c7f625e1c1f8527f","6662009ae78f21dd82fcd179","666207fd0723cb029e9893bb","1511","","f","","","","","","","","./tasks/HMM-beads/Images/NewTrialBC.png","practice","0","1","0","0","0","0","true","",""
"image-keyboard-response","17","139530","0.0-3.0-4.0-1.0-1.1","6108db64c7f625e1c1f8527f","6662009ae78f21dd82fcd179","666207fd0723cb029e9893bb","null","","null","","","","","","","","./tasks/HMM-beads/Images/BlackBeadChoice.png","","","","","","","","","",""
"image-keyboard-response","18","140033","0.0-3.0-4.0-1.0-2.1","6108db64c7f625e1c1f8527f","6662009ae78f21dd82fcd179","666207fd0723cb029e9893bb","null","","null","","","","","","","","./tasks/HMM-beads/Images/BlackBeadChoiceCorrect.png","","","","","","","","","",""
"image-keyboard-response","19","141254","0.0-3.0-4.0-1.0-0.2","6108db64c7f625e1c1f8527f","6662009ae78f21dd82fcd179","666207fd0723cb029e9893bb","1218","","f","","","","","","","","./tasks/HMM-beads/Images/NewTrialBC.png","practice","0","2","0","1","0","0","false","",""
"image-keyboard-response","20","141559","0.0-3.0-4.0-1.0-1.2","6108db64c7f625e1c1f8527f","6662009ae78f21dd82fcd179","666207fd0723cb029e9893bb","null","","null","","","","","","","","./tasks/HMM-beads/Images/BlackBeadChoice.png","","","","","","","","","",""
"image-keyboard-response","21","142078","0.0-3.0-4.0-1.0-2.2","6108db64c7f625e1c1f8527f","6662009ae78f21dd82fcd179","666207fd0723cb029e9893bb","null","","null","","","","","","","","./tasks/HMM-beads/Images/BlackBeadChoiceWrong.png","","","","","","","","","",""
"image-keyboard-response","22","143151","0.0-3.0-4.0-1.0-0.3","6108db64c7f625e1c1f8527f","6662009ae78f21dd82fcd179","666207fd0723cb029e9893bb","1056","","f","","","","","","","","./tasks/HMM-beads/Images/NewTrialWC.png","practice","0","3","0","0","1","0","true","",""
"image-keyboard-response","23","143456","0.0-3.0-4.0-1.0-1.3","6108db64c7f625e1c1f8527f","6662009ae78f21dd82fcd179","666207fd0723cb029e9893bb","null","","null","","","","","","","","./tasks/HMM-beads/Images/BlackBeadChoice.png","","","","","","","","","",""
"image-keyboard-response","24","143962","0.0-3.0-4.0-1.0-2.3","6108db64c7f625e1c1f8527f","6662009ae78f21dd82fcd179","666207fd0723cb029e9893bb","null","","null","","","","","","","","./tasks/HMM-beads/Images/BlackBeadChoiceCorrect.png","","","","","","","","","",""
"image-keyboard-response","25","144751","0.0-3.0-4.0-1.0-0.4","6108db64c7f625e1c1f8527f","6662009ae78f21dd82fcd179","666207fd0723cb029e9893bb","785","","f","","","","","","","","./tasks/HMM-beads/Images/NewTrialBC.png","practice","0","4","0","0","0","0","true","",""
"image-keyboard-response","26","145055","0.0-3.0-4.0-1.0-1.4","6108db64c7f625e1c1f8527f","6662009ae78f21dd82fcd179","666207fd0723cb029e9893bb","null","","null","","","","","","","","./tasks/HMM-beads/Images/BlackBeadChoice.png","","","","","","","","","",""
"image-keyboard-response","27","145560","0.0-3.0-4.0-1.0-2.4","6108db64c7f625e1c1f8527f","6662009ae78f21dd82fcd179","666207fd0723cb029e9893bb","null","","null","","","","","","","","./tasks/HMM-beads/Images/BlackBeadChoiceCorrect.png","","","","","","","","","",""
"image-keyboard-response","28","146622","0.0-3.0-4.0-1.0-0.5","6108db64c7f625e1c1f8527f","6662009ae78f21dd82fcd179","666207fd0723cb029e9893bb","1059","","f","","","","","","","","./tasks/HMM-beads/Images/NewTrialBC.png","practice","0","5","0","1","0","0","false","",""
"image-keyboard-response","29","146925","0.0-3.0-4.0-1.0-1.5","6108db64c7f625e1c1f8527f","6662009ae78f21dd82fcd179","666207fd0723cb029e9893bb","null","","null","","","","","","","","./tasks/HMM-beads/Images/BlackBeadChoice.png","","","","","","","","","",""
"image-keyboard-response","30","147432","0.0-3.0-4.0-1.0-2.5","6108db64c7f625e1c1f8527f","6662009ae78f21dd82fcd179","666207fd0723cb029e9893bb","null","","null","","","","","","","","./tasks/HMM-beads/Images/BlackBeadChoiceWrong.png","","","","","","","","","",""
"image-keyboard-response","31","148963","0.0-3.0-4.0-1.0-0.6","6108db64c7f625e1c1f8527f","6662009ae78f21dd82fcd179","666207fd0723cb029e9893bb","1528","","f","","","","","","","","./tasks/HMM-beads/Images/NewTrialWC.png","practice","0","6","0","0","1","0","true","",""
"image-keyboard-response","32","149267","0.0-3.0-4.0-1.0-1.6","6108db64c7f625e1c1f8527f","6662009ae78f21dd82fcd179","666207fd0723cb029e9893bb","null","","null","","","","","","","","./tasks/HMM-beads/Images/BlackBeadChoice.png","","","","","","","","","",""
"image-keyboard-response","33","149773","0.0-3.0-4.0-1.0-2.6","6108db64c7f625e1c1f8527f","6662009ae78f21dd82fcd179","666207fd0723cb029e9893bb","null","","null","","","","","","","","./tasks/HMM-beads/Images/BlackBeadChoiceCorrect.png","","","","","","","","","",""
"image-keyboard-response","34","150264","0.0-3.0-4.0-1.0-0.7","6108db64c7f625e1c1f8527f","6662009ae78f21dd82fcd179","666207fd0723cb029e9893bb","489","","f","","","","","","","","./tasks/HMM-beads/Images/NewTrialBC.png","practice","0","7","0","0","0","0","true","",""
"image-keyboard-response","35","150571","0.0-3.0-4.0-1.0-1.7","6108db64c7f625e1c1f8527f","6662009ae78f21dd82fcd179","666207fd0723cb029e9893bb","null","","null","","","","","","","","./tasks/HMM-beads/Images/BlackBeadChoice.png","","","","","","","","","",""
"image-keyboard-response","36","151075","0.0-3.0-4.0-1.0-2.7","6108db64c7f625e1c1f8527f","6662009ae78f21dd82fcd179","666207fd0723cb029e9893bb","null","","null","","","","","","","","./tasks/HMM-beads/Images/BlackBeadChoiceCorrect.png","","","","","","","","","",""
"image-keyboard-response","37","152026","0.0-3.0-4.0-1.0-0.8","6108db64c7f625e1c1f8527f","6662009ae78f21dd82fcd179","666207fd0723cb029e9893bb","947","","j","","","","","","","","./tasks/HMM-beads/Images/NewTrialBC.png","practice","0","8","0","0","0","1","false","",""
"image-keyboard-response","38","152343","0.0-3.0-4.0-1.0-1.8","6108db64c7f625e1c1f8527f","6662009ae78f21dd82fcd179","666207fd0723cb029e9893bb","null","","null","","","","","","","","./tasks/HMM-beads/Images/WhiteBeadChoice.png","","","","","","","","","",""
"image-keyboard-response","39","152862","0.0-3.0-4.0-1.0-2.8","6108db64c7f625e1c1f8527f","6662009ae78f21dd82fcd179","666207fd0723cb029e9893bb","null","","null","","","","","","","","./tasks/HMM-beads/Images/WhiteBeadChoiceWrong.png","","","","","","","","","",""
"image-keyboard-response","40","153586","0.0-3.0-4.0-1.0-0.9","6108db64c7f625e1c1f8527f","6662009ae78f21dd82fcd179","666207fd0723cb029e9893bb","720","","f","","","","","","","","./tasks/HMM-beads/Images/NewTrialBC.png","practice","0","9","0","1","0","0","false","",""
"image-keyboard-response","41","153892","0.0-3.0-4.0-1.0-1.9","6108db64c7f625e1c1f8527f","6662009ae78f21dd82fcd179","666207fd0723cb029e9893bb","null","","null","","","","","","","","./tasks/HMM-beads/Images/BlackBeadChoice.png","","","","","","","","","",""
"image-keyboard-response","42","154397","0.0-3.0-4.0-1.0-2.9","6108db64c7f625e1c1f8527f","6662009ae78f21dd82fcd179","666207fd0723cb029e9893bb","null","","null","","","","","","","","./tasks/HMM-beads/Images/BlackBeadChoiceWrong.png","","","","","","","","","",""
"image-keyboard-response","43","154867","0.0-3.0-4.0-1.0-0.10","6108db64c7f625e1c1f8527f","6662009ae78f21dd82fcd179","666207fd0723cb029e9893bb","468","","f","","","","","","","","./tasks/HMM-beads/Images/NewTrialWC.png","practice","0","10","0","0","1","0","true","",""
"image-keyboard-response","44","155170","0.0-3.0-4.0-1.0-1.10","6108db64c7f625e1c1f8527f","6662009ae78f21dd82fcd179","666207fd0723cb029e9893bb","null","","null","","","","","","","","./tasks/HMM-beads/Images/BlackBeadChoice.png","","","","","","","","","",""
"image-keyboard-response","45","155676","0.0-3.0-4.0-1.0-2.10","6108db64c7f625e1c1f8527f","6662009ae78f21dd82fcd179","666207fd0723cb029e9893bb","null","","null","","","","","","","","./tasks/HMM-beads/Images/BlackBeadChoiceCorrect.png","","","","","","","","","",""
"image-keyboard-response","46","156246","0.0-3.0-4.0-1.0-0.11","6108db64c7f625e1c1f8527f","6662009ae78f21dd82fcd179","666207fd0723cb029e9893bb","567","","f","","","","","","","","./tasks/HMM-beads/Images/NewTrialBC.png","practice","0","11","0","1","0","0","false","",""
"image-keyboard-response","47","156551","0.0-3.0-4.0-1.0-1.11","6108db64c7f625e1c1f8527f","6662009ae78f21dd82fcd179","666207fd0723cb029e9893bb","null","","null","","","","","","","","./tasks/HMM-beads/Images/BlackBeadChoice.png","","","","","","","","","",""
"image-keyboard-response","48","157056","0.0-3.0-4.0-1.0-2.11","6108db64c7f625e1c1f8527f","6662009ae78f21dd82fcd179","666207fd0723cb029e9893bb","null","","null","","","","","","","","./tasks/HMM-beads/Images/BlackBeadChoiceWrong.png","","","","","","","","","",""
"image-keyboard-response","49","158132","0.0-3.0-4.0-1.0-0.12","6108db64c7f625e1c1f8527f","6662009ae78f21dd82fcd179","666207fd0723cb029e9893bb","1072","","f","","","","","","","","./tasks/HMM-beads/Images/NewTrialWC.png","practice","0","12","0","0","1","0","true","",""
"image-keyboard-response","50","158436","0.0-3.0-4.0-1.0-1.12","6108db64c7f625e1c1f8527f","6662009ae78f21dd82fcd179","666207fd0723cb029e9893bb","null","","null","","","","","","","","./tasks/HMM-beads/Images/BlackBeadChoice.png","","","","","","","","","",""
"image-keyboard-response","51","158940","0.0-3.0-4.0-1.0-2.12","6108db64c7f625e1c1f8527f","6662009ae78f21dd82fcd179","666207fd0723cb029e9893bb","null","","null","","","","","","","","./tasks/HMM-beads/Images/BlackBeadChoiceCorrect.png","","","","","","","","","",""
"image-keyboard-response","52","159757","0.0-3.0-4.0-1.0-0.13","6108db64c7f625e1c1f8527f","6662009ae78f21dd82fcd179","666207fd0723cb029e9893bb","812","","f","","","","","","","","./tasks/HMM-beads/Images/NewTrialBC.png","practice","0","13","0","0","0","0","true","",""
"image-keyboard-response","53","160060","0.0-3.0-4.0-1.0-1.13","6108db64c7f625e1c1f8527f","6662009ae78f21dd82fcd179","666207fd0723cb029e9893bb","null","","null","","","","","","","","./tasks/HMM-beads/Images/BlackBeadChoice.png","","","","","","","","","",""
"image-keyboard-response","54","160563","0.0-3.0-4.0-1.0-2.13","6108db64c7f625e1c1f8527f","6662009ae78f21dd82fcd179","666207fd0723cb029e9893bb","null","","null","","","","","","","","./tasks/HMM-beads/Images/BlackBeadChoiceCorrect.png","","","","","","","","","",""
"image-keyboard-response","55","160977","0.0-3.0-4.0-1.0-0.14","6108db64c7f625e1c1f8527f","6662009ae78f21dd82fcd179","666207fd0723cb029e9893bb","410","","f","","","","","","","","./tasks/HMM-beads/Images/NewTrialBC.png","practice","0","14","0","0","0","0","true","",""
"image-keyboard-response","56","161280","0.0-3.0-4.0-1.0-1.14","6108db64c7f625e1c1f8527f","6662009ae78f21dd82fcd179","666207fd0723cb029e9893bb","null","","null","","","","","","","","./tasks/HMM-beads/Images/BlackBeadChoice.png","","","","","","","","","",""
"image-keyboard-response","57","161786","0.0-3.0-4.0-1.0-2.14","6108db64c7f625e1c1f8527f","6662009ae78f21dd82fcd179","666207fd0723cb029e9893bb","null","","null","","","","","","","","./tasks/HMM-beads/Images/BlackBeadChoiceCorrect.png","","","","","","","","","",""
"image-keyboard-response","58","162178","0.0-3.0-4.0-1.0-0.15","6108db64c7f625e1c1f8527f","6662009ae78f21dd82fcd179","666207fd0723cb029e9893bb","386","","f","","","","","","","","./tasks/HMM-beads/Images/NewTrialBC.png","practice","0","15","0","0","0","0","true","",""
"image-keyboard-response","59","162481","0.0-3.0-4.0-1.0-1.15","6108db64c7f625e1c1f8527f","6662009ae78f21dd82fcd179","666207fd0723cb029e9893bb","null","","null","","","","","","","","./tasks/HMM-beads/Images/BlackBeadChoice.png","","","","","","","","","",""
"image-keyboard-response","60","162988","0.0-3.0-4.0-1.0-2.15","6108db64c7f625e1c1f8527f","6662009ae78f21dd82fcd179","666207fd0723cb029e9893bb","null","","null","","","","","","","","./tasks/HMM-beads/Images/BlackBeadChoiceCorrect.png","","","","","","","","","",""
"image-keyboard-response","61","163523","0.0-3.0-4.0-1.0-0.16","6108db64c7f625e1c1f8527f","6662009ae78f21dd82fcd179","666207fd0723cb029e9893bb","533","","j","","","","","","","","./tasks/HMM-beads/Images/NewTrialBC.png","practice","0","16","0","0","0","1","false","",""
"image-keyboard-response","62","163826","0.0-3.0-4.0-1.0-1.16","6108db64c7f625e1c1f8527f","6662009ae78f21dd82fcd179","666207fd0723cb029e9893bb","null","","null","","","","","","","","./tasks/HMM-beads/Images/WhiteBeadChoice.png","","","","","","","","","",""
"image-keyboard-response","63","164330","0.0-3.0-4.0-1.0-2.16","6108db64c7f625e1c1f8527f","6662009ae78f21dd82fcd179","666207fd0723cb029e9893bb","null","","null","","","","","","","","./tasks/HMM-beads/Images/WhiteBeadChoiceWrong.png","","","","","","","","","",""
"image-keyboard-response","64","165188","0.0-3.0-4.0-1.0-0.17","6108db64c7f625e1c1f8527f","6662009ae78f21dd82fcd179","666207fd0723cb029e9893bb","854","","j","","","","","","","","./tasks/HMM-beads/Images/NewTrialBC.png","practice","0","17","0","0","0","1","false","",""
"image-keyboard-response","65","165491","0.0-3.0-4.0-1.0-1.17","6108db64c7f625e1c1f8527f","6662009ae78f21dd82fcd179","666207fd0723cb029e9893bb","null","","null","","","","","","","","./tasks/HMM-beads/Images/WhiteBeadChoice.png","","","","","","","","","",""
"image-keyboard-response","66","165995","0.0-3.0-4.0-1.0-2.17","6108db64c7f625e1c1f8527f","6662009ae78f21dd82fcd179","666207fd0723cb029e9893bb","null","","null","","","","","","","","./tasks/HMM-beads/Images/WhiteBeadChoiceWrong.png","","","","","","","","","",""
"image-keyboard-response","67","166350","0.0-3.0-4.0-1.0-0.18","6108db64c7f625e1c1f8527f","6662009ae78f21dd82fcd179","666207fd0723cb029e9893bb","352","","f","","","","","","","","./tasks/HMM-beads/Images/NewTrialBC.png","practice","0","18","0","1","0","0","false","",""
"image-keyboard-response","68","166654","0.0-3.0-4.0-1.0-1.18","6108db64c7f625e1c1f8527f","6662009ae78f21dd82fcd179","666207fd0723cb029e9893bb","null","","null","","","","","","","","./tasks/HMM-beads/Images/BlackBeadChoice.png","","","","","","","","","",""
"image-keyboard-response","69","167160","0.0-3.0-4.0-1.0-2.18","6108db64c7f625e1c1f8527f","6662009ae78f21dd82fcd179","666207fd0723cb029e9893bb","null","","null","","","","","","","","./tasks/HMM-beads/Images/BlackBeadChoiceWrong.png","","","","","","","","","",""
"image-keyboard-response","70","167725","0.0-3.0-4.0-1.0-0.19","6108db64c7f625e1c1f8527f","6662009ae78f21dd82fcd179","666207fd0723cb029e9893bb","562","","f","","","","","","","","./tasks/HMM-beads/Images/NewTrialWC.png","practice","0","19","0","0","1","0","true","",""
"image-keyboard-response","71","168029","0.0-3.0-4.0-1.0-1.19","6108db64c7f625e1c1f8527f","6662009ae78f21dd82fcd179","666207fd0723cb029e9893bb","null","","null","","","","","","","","./tasks/HMM-beads/Images/BlackBeadChoice.png","","","","","","","","","",""
"image-keyboard-response","72","168534","0.0-3.0-4.0-1.0-2.19","6108db64c7f625e1c1f8527f","6662009ae78f21dd82fcd179","666207fd0723cb029e9893bb","null","","null","","","","","","","","./tasks/HMM-beads/Images/BlackBeadChoiceCorrect.png","","","","","","","","","",""
"image-keyboard-response","73","168677","0.0-3.0-4.0-1.0-0.20","6108db64c7f625e1c1f8527f","6662009ae78f21dd82fcd179","666207fd0723cb029e9893bb","140","","f","","","","","","","","./tasks/HMM-beads/Images/NewTrialBC.png","practice","0","20","0","0","0","0","true","",""
"image-keyboard-response","74","168981","0.0-3.0-4.0-1.0-1.20","6108db64c7f625e1c1f8527f","6662009ae78f21dd82fcd179","666207fd0723cb029e9893bb","null","","null","","","","","","","","./tasks/HMM-beads/Images/BlackBeadChoice.png","","","","","","","","","",""
"image-keyboard-response","75","169485","0.0-3.0-4.0-1.0-2.20","6108db64c7f625e1c1f8527f","6662009ae78f21dd82fcd179","666207fd0723cb029e9893bb","null","","null","","","","","","","","./tasks/HMM-beads/Images/BlackBeadChoiceCorrect.png","","","","","","","","","",""
"image-keyboard-response","76","170038","0.0-3.0-4.0-1.0-0.21","6108db64c7f625e1c1f8527f","6662009ae78f21dd82fcd179","666207fd0723cb029e9893bb","550","","f","","","","","","","","./tasks/HMM-beads/Images/NewTrialBC.png","practice","0","21","0","1","0","0","false","",""
"image-keyboard-response","77","170342","0.0-3.0-4.0-1.0-1.21","6108db64c7f625e1c1f8527f","6662009ae78f21dd82fcd179","666207fd0723cb029e9893bb","null","","null","","","","","","","","./tasks/HMM-beads/Images/BlackBeadChoice.png","","","","","","","","","",""
"image-keyboard-response","78","170846","0.0-3.0-4.0-1.0-2.21","6108db64c7f625e1c1f8527f","6662009ae78f21dd82fcd179","666207fd0723cb029e9893bb","null","","null","","","","","","","","./tasks/HMM-beads/Images/BlackBeadChoiceWrong.png","","","","","","","","","",""
"image-keyboard-response","79","171299","0.0-3.0-4.0-1.0-0.22","6108db64c7f625e1c1f8527f","6662009ae78f21dd82fcd179","666207fd0723cb029e9893bb","449","","f","","","","","","","","./tasks/HMM-beads/Images/NewTrialWC.png","practice","0","22","1","1","1","0","false","",""
"image-keyboard-response","80","171602","0.0-3.0-4.0-1.0-1.22","6108db64c7f625e1c1f8527f","6662009ae78f21dd82fcd179","666207fd0723cb029e9893bb","null","","null","","","","","","","","./tasks/HMM-beads/Images/BlackBeadChoice.png","","","","","","","","","",""
"image-keyboard-response","81","172106","0.0-3.0-4.0-1.0-2.22","6108db64c7f625e1c1f8527f","6662009ae78f21dd82fcd179","666207fd0723cb029e9893bb","null","","null","","","","","","","","./tasks/HMM-beads/Images/BlackBeadChoiceWrong.png","","","","","","","","","",""
"image-keyboard-response","82","172540","0.0-3.0-4.0-1.0-0.23","6108db64c7f625e1c1f8527f","6662009ae78f21dd82fcd179","666207fd0723cb029e9893bb","429","","f","","","","","","","","./tasks/HMM-beads/Images/NewTrialWC.png","practice","0","23","1","0","1","0","true","",""
"image-keyboard-response","83","172844","0.0-3.0-4.0-1.0-1.23","6108db64c7f625e1c1f8527f","6662009ae78f21dd82fcd179","666207fd0723cb029e9893bb","null","","null","","","","","","","","./tasks/HMM-beads/Images/BlackBeadChoice.png","","","","","","","","","",""
"image-keyboard-response","84","173348","0.0-3.0-4.0-1.0-2.23","6108db64c7f625e1c1f8527f","6662009ae78f21dd82fcd179","666207fd0723cb029e9893bb","null","","null","","","","","","","","./tasks/HMM-beads/Images/BlackBeadChoiceCorrect.png","","","","","","","","","",""
"image-keyboard-response","85","173809","0.0-3.0-4.0-1.0-0.24","6108db64c7f625e1c1f8527f","6662009ae78f21dd82fcd179","666207fd0723cb029e9893bb","457","","f","","","","","","","","./tasks/HMM-beads/Images/NewTrialBC.png","practice","0","24","1","1","0","0","false","",""
"image-keyboard-response","86","174113","0.0-3.0-4.0-1.0-1.24","6108db64c7f625e1c1f8527f","6662009ae78f21dd82fcd179","666207fd0723cb029e9893bb","null","","null","","","","","","","","./tasks/HMM-beads/Images/BlackBeadChoice.png","","","","","","","","","",""
"image-keyboard-response","87","174620","0.0-3.0-4.0-1.0-2.24","6108db64c7f625e1c1f8527f","6662009ae78f21dd82fcd179","666207fd0723cb029e9893bb","null","","null","","","","","","","","./tasks/HMM-beads/Images/BlackBeadChoiceWrong.png","","","","","","","","","",""
"image-keyboard-response","88","176072","0.0-3.0-4.0-1.0-0.25","6108db64c7f625e1c1f8527f","6662009ae78f21dd82fcd179","666207fd0723cb029e9893bb","1449","","f","","","","","","","","./tasks/HMM-beads/Images/NewTrialWC.png","practice","0","25","1","1","1","0","false","",""
"image-keyboard-response","89","176376","0.0-3.0-4.0-1.0-1.25","6108db64c7f625e1c1f8527f","6662009ae78f21dd82fcd179","666207fd0723cb029e9893bb","null","","null","","","","","","","","./tasks/HMM-beads/Images/BlackBeadChoice.png","","","","","","","","","",""
"image-keyboard-response","90","176880","0.0-3.0-4.0-1.0-2.25","6108db64c7f625e1c1f8527f","6662009ae78f21dd82fcd179","666207fd0723cb029e9893bb","null","","null","","","","","","","","./tasks/HMM-beads/Images/BlackBeadChoiceWrong.png","","","","","","","","","",""
"image-keyboard-response","91","177809","0.0-3.0-4.0-1.0-0.26","6108db64c7f625e1c1f8527f","6662009ae78f21dd82fcd179","666207fd0723cb029e9893bb","926","","f","","","","","","","","./tasks/HMM-beads/Images/NewTrialWC.png","practice","0","26","1","1","1","0","false","",""
"image-keyboard-response","92","178113","0.0-3.0-4.0-1.0-1.26","6108db64c7f625e1c1f8527f","6662009ae78f21dd82fcd179","666207fd0723cb029e9893bb","null","","null","","","","","","","","./tasks/HMM-beads/Images/BlackBeadChoice.png","","","","","","","","","",""
"image-keyboard-response","93","178617","0.0-3.0-4.0-1.0-2.26","6108db64c7f625e1c1f8527f","6662009ae78f21dd82fcd179","666207fd0723cb029e9893bb","null","","null","","","","","","","","./tasks/HMM-beads/Images/BlackBeadChoiceWrong.png","","","","","","","","","",""
"image-keyboard-response","94","179943","0.0-3.0-4.0-1.0-0.27","6108db64c7f625e1c1f8527f","6662009ae78f21dd82fcd179","666207fd0723cb029e9893bb","1323","","f","","","","","","","","./tasks/HMM-beads/Images/NewTrialWC.png","practice","0","27","1","1","1","0","false","",""
"image-keyboard-response","95","180248","0.0-3.0-4.0-1.0-1.27","6108db64c7f625e1c1f8527f","6662009ae78f21dd82fcd179","666207fd0723cb029e9893bb","null","","null","","","","","","","","./tasks/HMM-beads/Images/BlackBeadChoice.png","","","","","","","","","",""
"image-keyboard-response","96","180752","0.0-3.0-4.0-1.0-2.27","6108db64c7f625e1c1f8527f","6662009ae78f21dd82fcd179","666207fd0723cb029e9893bb","null","","null","","","","","","","","./tasks/HMM-beads/Images/BlackBeadChoiceWrong.png","","","","","","","","","",""
"image-keyboard-response","97","181737","0.0-3.0-4.0-1.0-0.28","6108db64c7f625e1c1f8527f","6662009ae78f21dd82fcd179","666207fd0723cb029e9893bb","982","","f","","","","","","","","./tasks/HMM-beads/Images/NewTrialWC.png","practice","0","28","1","0","1","0","true","",""
"image-keyboard-response","98","182039","0.0-3.0-4.0-1.0-1.28","6108db64c7f625e1c1f8527f","6662009ae78f21dd82fcd179","666207fd0723cb029e9893bb","null","","null","","","","","","","","./tasks/HMM-beads/Images/BlackBeadChoice.png","","","","","","","","","",""
"image-keyboard-response","99","182543","0.0-3.0-4.0-1.0-2.28","6108db64c7f625e1c1f8527f","6662009ae78f21dd82fcd179","666207fd0723cb029e9893bb","null","","null","","","","","","","","./tasks/HMM-beads/Images/BlackBeadChoiceCorrect.png","","","","","","","","","",""
"image-keyboard-response","100","183094","0.0-3.0-4.0-1.0-0.29","6108db64c7f625e1c1f8527f","6662009ae78f21dd82fcd179","666207fd0723cb029e9893bb","547","","f","","","","","","","","./tasks/HMM-beads/Images/NewTrialBC.png","practice","0","29","1","1","0","0","false","",""
"image-keyboard-response","101","183399","0.0-3.0-4.0-1.0-1.29","6108db64c7f625e1c1f8527f","6662009ae78f21dd82fcd179","666207fd0723cb029e9893bb","null","","null","","","","","","","","./tasks/HMM-beads/Images/BlackBeadChoice.png","","","","","","","","","",""
"image-keyboard-response","102","183904","0.0-3.0-4.0-1.0-2.29","6108db64c7f625e1c1f8527f","6662009ae78f21dd82fcd179","666207fd0723cb029e9893bb","null","","null","","","","","","","","./tasks/HMM-beads/Images/BlackBeadChoiceWrong.png","","","","","","","","","",""
"image-keyboard-response","103","184650","0.0-3.0-4.0-1.0-0.30","6108db64c7f625e1c1f8527f","6662009ae78f21dd82fcd179","666207fd0723cb029e9893bb","743","","f","","","","","","","","./tasks/HMM-beads/Images/NewTrialWC.png","practice","0","30","1","0","1","0","true","",""
"image-keyboard-response","104","184953","0.0-3.0-4.0-1.0-1.30","6108db64c7f625e1c1f8527f","6662009ae78f21dd82fcd179","666207fd0723cb029e9893bb","null","","null","","","","","","","","./tasks/HMM-beads/Images/BlackBeadChoice.png","","","","","","","","","",""
"image-keyboard-response","105","185456","0.0-3.0-4.0-1.0-2.30","6108db64c7f625e1c1f8527f","6662009ae78f21dd82fcd179","666207fd0723cb029e9893bb","null","","null","","","","","","","","./tasks/HMM-beads/Images/BlackBeadChoiceCorrect.png","","","","","","","","","",""
"image-keyboard-response","106","186265","0.0-3.0-4.0-1.0-0.31","6108db64c7f625e1c1f8527f","6662009ae78f21dd82fcd179","666207fd0723cb029e9893bb","806","","f","","","","","","","","./tasks/HMM-beads/Images/NewTrialBC.png","practice","0","31","1","1","0","0","false","",""
"image-keyboard-response","107","186569","0.0-3.0-4.0-1.0-1.31","6108db64c7f625e1c1f8527f","6662009ae78f21dd82fcd179","666207fd0723cb029e9893bb","null","","null","","","","","","","","./tasks/HMM-beads/Images/BlackBeadChoice.png","","","","","","","","","",""
"image-keyboard-response","108","187075","0.0-3.0-4.0-1.0-2.31","6108db64c7f625e1c1f8527f","6662009ae78f21dd82fcd179","666207fd0723cb029e9893bb","null","","null","","","","","","","","./tasks/HMM-beads/Images/BlackBeadChoiceWrong.png","","","","","","","","","",""
"image-keyboard-response","109","187685","0.0-3.0-4.0-1.0-0.32","6108db64c7f625e1c1f8527f","6662009ae78f21dd82fcd179","666207fd0723cb029e9893bb","608","","f","","","","","","","","./tasks/HMM-beads/Images/NewTrialWC.png","practice","0","32","1","1","1","0","false","",""
"image-keyboard-response","110","187989","0.0-3.0-4.0-1.0-1.32","6108db64c7f625e1c1f8527f","6662009ae78f21dd82fcd179","666207fd0723cb029e9893bb","null","","null","","","","","","","","./tasks/HMM-beads/Images/BlackBeadChoice.png","","","","","","","","","",""
"image-keyboard-response","111","188492","0.0-3.0-4.0-1.0-2.32","6108db64c7f625e1c1f8527f","6662009ae78f21dd82fcd179","666207fd0723cb029e9893bb","null","","null","","","","","","","","./tasks/HMM-beads/Images/BlackBeadChoiceWrong.png","","","","","","","","","",""
"image-keyboard-response","112","189684","0.0-3.0-4.0-1.0-0.33","6108db64c7f625e1c1f8527f","6662009ae78f21dd82fcd179","666207fd0723cb029e9893bb","1189","","f","","","","","","","","./tasks/HMM-beads/Images/NewTrialWC.png","practice","0","33","1","1","1","0","false","",""
"image-keyboard-response","113","189989","0.0-3.0-4.0-1.0-1.33","6108db64c7f625e1c1f8527f","6662009ae78f21dd82fcd179","666207fd0723cb029e9893bb","null","","null","","","","","","","","./tasks/HMM-beads/Images/BlackBeadChoice.png","","","","","","","","","",""
"image-keyboard-response","114","190493","0.0-3.0-4.0-1.0-2.33","6108db64c7f625e1c1f8527f","6662009ae78f21dd82fcd179","666207fd0723cb029e9893bb","null","","null","","","","","","","","./tasks/HMM-beads/Images/BlackBeadChoiceWrong.png","","","","","","","","","",""
"image-keyboard-response","115","191817","0.0-3.0-4.0-1.0-0.34","6108db64c7f625e1c1f8527f","6662009ae78f21dd82fcd179","666207fd0723cb029e9893bb","1321","","j","","","","","","","","./tasks/HMM-beads/Images/NewTrialWC.png","practice","0","34","1","1","1","1","true","",""
"image-keyboard-response","116","192120","0.0-3.0-4.0-1.0-1.34","6108db64c7f625e1c1f8527f","6662009ae78f21dd82fcd179","666207fd0723cb029e9893bb","null","","null","","","","","","","","./tasks/HMM-beads/Images/WhiteBeadChoice.png","","","","","","","","","",""
"image-keyboard-response","117","192638","0.0-3.0-4.0-1.0-2.34","6108db64c7f625e1c1f8527f","6662009ae78f21dd82fcd179","666207fd0723cb029e9893bb","null","","null","","","","","","","","./tasks/HMM-beads/Images/WhiteBeadChoiceCorrect.png","","","","","","","","","",""
"image-keyboard-response","118","193768","0.0-3.0-4.0-1.0-0.35","6108db64c7f625e1c1f8527f","6662009ae78f21dd82fcd179","666207fd0723cb029e9893bb","1126","","f","","","","","","","","./tasks/HMM-beads/Images/NewTrialWC.png","practice","0","35","1","1","1","0","false","",""
"image-keyboard-response","119","194072","0.0-3.0-4.0-1.0-1.35","6108db64c7f625e1c1f8527f","6662009ae78f21dd82fcd179","666207fd0723cb029e9893bb","null","","null","","","","","","","","./tasks/HMM-beads/Images/BlackBeadChoice.png","","","","","","","","","",""
"image-keyboard-response","120","194575","0.0-3.0-4.0-1.0-2.35","6108db64c7f625e1c1f8527f","6662009ae78f21dd82fcd179","666207fd0723cb029e9893bb","null","","null","","","","","","","","./tasks/HMM-beads/Images/BlackBeadChoiceWrong.png","","","","","","","","","",""
"image-keyboard-response","121","196857","0.0-3.0-4.0-1.0-0.36","6108db64c7f625e1c1f8527f","6662009ae78f21dd82fcd179","666207fd0723cb029e9893bb","2280","","j","","","","","","","","./tasks/HMM-beads/Images/NewTrialWC.png","practice","0","36","1","0","1","1","false","",""
"image-keyboard-response","122","197163","0.0-3.0-4.0-1.0-1.36","6108db64c7f625e1c1f8527f","6662009ae78f21dd82fcd179","666207fd0723cb029e9893bb","null","","null","","","","","","","","./tasks/HMM-beads/Images/WhiteBeadChoice.png","","","","","","","","","",""
"image-keyboard-response","123","197666","0.0-3.0-4.0-1.0-2.36","6108db64c7f625e1c1f8527f","6662009ae78f21dd82fcd179","666207fd0723cb029e9893bb","null","","null","","","","","","","","./tasks/HMM-beads/Images/WhiteBeadChoiceWrong.png","","","","","","","","","",""
"image-keyboard-response","124","198407","0.0-3.0-4.0-1.0-0.37","6108db64c7f625e1c1f8527f","6662009ae78f21dd82fcd179","666207fd0723cb029e9893bb","737","","f","","","","","","","","./tasks/HMM-beads/Images/NewTrialBC.png","practice","0","37","1","1","0","0","false","",""
"image-keyboard-response","125","198712","0.0-3.0-4.0-1.0-1.37","6108db64c7f625e1c1f8527f","6662009ae78f21dd82fcd179","666207fd0723cb029e9893bb","null","","null","","","","","","","","./tasks/HMM-beads/Images/BlackBeadChoice.png","","","","","","","","","",""
"image-keyboard-response","126","199216","0.0-3.0-4.0-1.0-2.37","6108db64c7f625e1c1f8527f","6662009ae78f21dd82fcd179","666207fd0723cb029e9893bb","null","","null","","","","","","","","./tasks/HMM-beads/Images/BlackBeadChoiceWrong.png","","","","","","","","","",""
"image-keyboard-response","127","199406","0.0-3.0-4.0-1.0-0.38","6108db64c7f625e1c1f8527f","6662009ae78f21dd82fcd179","666207fd0723cb029e9893bb","188","","j","","","","","","","","./tasks/HMM-beads/Images/NewTrialWC.png","practice","0","38","1","1","1","1","true","",""
"image-keyboard-response","128","199709","0.0-3.0-4.0-1.0-1.38","6108db64c7f625e1c1f8527f","6662009ae78f21dd82fcd179","666207fd0723cb029e9893bb","null","","null","","","","","","","","./tasks/HMM-beads/Images/WhiteBeadChoice.png","","","","","","","","","",""
"image-keyboard-response","129","200212","0.0-3.0-4.0-1.0-2.38","6108db64c7f625e1c1f8527f","6662009ae78f21dd82fcd179","666207fd0723cb029e9893bb","null","","null","","","","","","","","./tasks/HMM-beads/Images/WhiteBeadChoiceCorrect.png","","","","","","","","","",""
"image-keyboard-response","130","201095","0.0-3.0-4.0-1.0-0.39","6108db64c7f625e1c1f8527f","6662009ae78f21dd82fcd179","666207fd0723cb029e9893bb","880","","f","","","","","","","","./tasks/HMM-beads/Images/NewTrialWC.png","practice","0","39","1","1","1","0","false","",""
"image-keyboard-response","131","201399","0.0-3.0-4.0-1.0-1.39","6108db64c7f625e1c1f8527f","6662009ae78f21dd82fcd179","666207fd0723cb029e9893bb","null","","null","","","","","","","","./tasks/HMM-beads/Images/BlackBeadChoice.png","","","","","","","","","",""
"image-keyboard-response","132","201907","0.0-3.0-4.0-1.0-2.39","6108db64c7f625e1c1f8527f","6662009ae78f21dd82fcd179","666207fd0723cb029e9893bb","null","","null","","","","","","","","./tasks/HMM-beads/Images/BlackBeadChoiceWrong.png","","","","","","","","","",""
"html-keyboard-response","133","204571","0.0-3.0-4.0-2.0","6108db64c7f625e1c1f8527f","6662009ae78f21dd82fcd179","666207fd0723cb029e9893bb","2663",""," ","","","","","","","","","","","","","","","","","",""
"instructions","134","212659","0.0-3.0-5.0","6108db64c7f625e1c1f8527f","6662009ae78f21dd82fcd179","666207fd0723cb029e9893bb","8087","","","","[{""page_index"":0,""viewing_time"":6071},{""page_index"":1,""viewing_time"":2016}]","","","","","","","","","","","","","","","",""
"html-keyboard-response","135","214379","0.0-3.0-6.0-0.0","6108db64c7f625e1c1f8527f","6662009ae78f21dd82fcd179","666207fd0723cb029e9893bb","1719",""," ","","","","","","","","<div align=center>In this block, there will be a <b>1% chance</b> that the jar on the next trial will be different from the jar on the current trial.<br><br></div>","","","","","","","","","",""
"image-keyboard-response","136","217553","0.0-3.0-6.0-1.0-0.0","6108db64c7f625e1c1f8527f","6662009ae78f21dd82fcd179","666207fd0723cb029e9893bb","3171","","f","","","","","","","","./tasks/HMM-beads/Images/NoChoice.png","lowH","1","0","1","0","9","0","true","",""
"image-keyboard-response","137","217858","0.0-3.0-6.0-1.0-1.0","6108db64c7f625e1c1f8527f","6662009ae78f21dd82fcd179","666207fd0723cb029e9893bb","null","","null","","","","","","","","./tasks/HMM-beads/Images/BlackBeadChoice.png","","","","","","","","","",""
"image-keyboard-response","138","218362","0.0-3.0-6.0-1.0-2.0","6108db64c7f625e1c1f8527f","6662009ae78f21dd82fcd179","666207fd0723cb029e9893bb","null","","null","","","","","","","","./tasks/HMM-beads/Images/BlackBeadChoiceCorrect.png","","","","","","","","","",""
"image-keyboard-response","139","219533","0.0-3.0-6.0-1.0-0.1","6108db64c7f625e1c1f8527f","6662009ae78f21dd82fcd179","666207fd0723cb029e9893bb","1168","","f","","","","","","","","./tasks/HMM-beads/Images/NewTrialBC.png","lowH","1","1","1","1","0","0","false","",""
"image-keyboard-response","140","219838","0.0-3.0-6.0-1.0-1.1","6108db64c7f625e1c1f8527f","6662009ae78f21dd82fcd179","666207fd0723cb029e9893bb","null","","null","","","","","","","","./tasks/HMM-beads/Images/BlackBeadChoice.png","","","","","","","","","",""
"image-keyboard-response","141","220341","0.0-3.0-6.0-1.0-2.1","6108db64c7f625e1c1f8527f","6662009ae78f21dd82fcd179","666207fd0723cb029e9893bb","null","","null","","","","","","","","./tasks/HMM-beads/Images/BlackBeadChoiceWrong.png","","","","","","","","","",""
"image-keyboard-response","142","221052","0.0-3.0-6.0-1.0-0.2","6108db64c7f625e1c1f8527f","6662009ae78f21dd82fcd179","666207fd0723cb029e9893bb","708","","j","","","","","","","","./tasks/HMM-beads/Images/NewTrialWC.png","lowH","1","2","1","1","1","1","true","",""
"image-keyboard-response","143","221356","0.0-3.0-6.0-1.0-1.2","6108db64c7f625e1c1f8527f","6662009ae78f21dd82fcd179","666207fd0723cb029e9893bb","null","","null","","","","","","","","./tasks/HMM-beads/Images/WhiteBeadChoice.png","","","","","","","","","",""
"image-keyboard-response","144","221860","0.0-3.0-6.0-1.0-2.2","6108db64c7f625e1c1f8527f","6662009ae78f21dd82fcd179","666207fd0723cb029e9893bb","null","","null","","","","","","","","./tasks/HMM-beads/Images/WhiteBeadChoiceCorrect.png","","","","","","","","","",""
"image-keyboard-response","145","222275","0.0-3.0-6.0-1.0-0.3","6108db64c7f625e1c1f8527f","6662009ae78f21dd82fcd179","666207fd0723cb029e9893bb","412","","j","","","","","","","","./tasks/HMM-beads/Images/NewTrialWC.png","lowH","1","3","1","1","1","1","true","",""
"image-keyboard-response","146","222578","0.0-3.0-6.0-1.0-1.3","6108db64c7f625e1c1f8527f","6662009ae78f21dd82fcd179","666207fd0723cb029e9893bb","null","","null","","","","","","","","./tasks/HMM-beads/Images/WhiteBeadChoice.png","","","","","","","","","",""
"image-keyboard-response","147","223082","0.0-3.0-6.0-1.0-2.3","6108db64c7f625e1c1f8527f","6662009ae78f21dd82fcd179","666207fd0723cb029e9893bb","null","","null","","","","","","","","./tasks/HMM-beads/Images/WhiteBeadChoiceCorrect.png","","","","","","","","","",""
"image-keyboard-response","148","223450","0.0-3.0-6.0-1.0-0.4","6108db64c7f625e1c1f8527f","6662009ae78f21dd82fcd179","666207fd0723cb029e9893bb","365","","j","","","","","","","","./tasks/HMM-beads/Images/NewTrialWC.png","lowH","1","4","1","1","1","1","true","",""
"image-keyboard-response","149","223754","0.0-3.0-6.0-1.0-1.4","6108db64c7f625e1c1f8527f","6662009ae78f21dd82fcd179","666207fd0723cb029e9893bb","null","","null","","","","","","","","./tasks/HMM-beads/Images/WhiteBeadChoice.png","","","","","","","","","",""
"image-keyboard-response","150","224259","0.0-3.0-6.0-1.0-2.4","6108db64c7f625e1c1f8527f","6662009ae78f21dd82fcd179","666207fd0723cb029e9893bb","null","","null","","","","","","","","./tasks/HMM-beads/Images/WhiteBeadChoiceCorrect.png","","","","","","","","","",""
"image-keyboard-response","151","224676","0.0-3.0-6.0-1.0-0.5","6108db64c7f625e1c1f8527f","6662009ae78f21dd82fcd179","666207fd0723cb029e9893bb","414","","j","","","","","","","","./tasks/HMM-beads/Images/NewTrialWC.png","lowH","1","5","1","1","1","1","true","",""
"image-keyboard-response","152","224979","0.0-3.0-6.0-1.0-1.5","6108db64c7f625e1c1f8527f","6662009ae78f21dd82fcd179","666207fd0723cb029e9893bb","null","","null","","","","","","","","./tasks/HMM-beads/Images/WhiteBeadChoice.png","","","","","","","","","",""
"image-keyboard-response","153","225482","0.0-3.0-6.0-1.0-2.5","6108db64c7f625e1c1f8527f","6662009ae78f21dd82fcd179","666207fd0723cb029e9893bb","null","","null","","","","","","","","./tasks/HMM-beads/Images/WhiteBeadChoiceCorrect.png","","","","","","","","","",""
"image-keyboard-response","154","225859","0.0-3.0-6.0-1.0-0.6","6108db64c7f625e1c1f8527f","6662009ae78f21dd82fcd179","666207fd0723cb029e9893bb","374","","j","","","","","","","","./tasks/HMM-beads/Images/NewTrialWC.png","lowH","1","6","1","0","1","1","false","",""
"image-keyboard-response","155","226161","0.0-3.0-6.0-1.0-1.6","6108db64c7f625e1c1f8527f","6662009ae78f21dd82fcd179","666207fd0723cb029e9893bb","null","","null","","","","","","","","./tasks/HMM-beads/Images/WhiteBeadChoice.png","","","","","","","","","",""
"image-keyboard-response","156","226665","0.0-3.0-6.0-1.0-2.6","6108db64c7f625e1c1f8527f","6662009ae78f21dd82fcd179","666207fd0723cb029e9893bb","null","","null","","","","","","","","./tasks/HMM-beads/Images/WhiteBeadChoiceWrong.png","","","","","","","","","",""
"image-keyboard-response","157","227652","0.0-3.0-6.0-1.0-0.7","6108db64c7f625e1c1f8527f","6662009ae78f21dd82fcd179","666207fd0723cb029e9893bb","984","","j","","","","","","","","./tasks/HMM-beads/Images/NewTrialBC.png","lowH","1","7","1","1","0","1","true","",""
"image-keyboard-response","158","227955","0.0-3.0-6.0-1.0-1.7","6108db64c7f625e1c1f8527f","6662009ae78f21dd82fcd179","666207fd0723cb029e9893bb","null","","null","","","","","","","","./tasks/HMM-beads/Images/WhiteBeadChoice.png","","","","","","","","","",""
"image-keyboard-response","159","228459","0.0-3.0-6.0-1.0-2.7","6108db64c7f625e1c1f8527f","6662009ae78f21dd82fcd179","666207fd0723cb029e9893bb","null","","null","","","","","","","","./tasks/HMM-beads/Images/WhiteBeadChoiceCorrect.png","","","","","","","","","",""
"image-keyboard-response","160","228640","0.0-3.0-6.0-1.0-0.8","6108db64c7f625e1c1f8527f","6662009ae78f21dd82fcd179","666207fd0723cb029e9893bb","179","","j","","","","","","","","./tasks/HMM-beads/Images/NewTrialWC.png","lowH","1","8","1","1","1","1","true","",""
"image-keyboard-response","161","228944","0.0-3.0-6.0-1.0-1.8","6108db64c7f625e1c1f8527f","6662009ae78f21dd82fcd179","666207fd0723cb029e9893bb","null","","null","","","","","","","","./tasks/HMM-beads/Images/WhiteBeadChoice.png","","","","","","","","","",""
"image-keyboard-response","162","229448","0.0-3.0-6.0-1.0-2.8","6108db64c7f625e1c1f8527f","6662009ae78f21dd82fcd179","666207fd0723cb029e9893bb","null","","null","","","","","","","","./tasks/HMM-beads/Images/WhiteBeadChoiceCorrect.png","","","","","","","","","",""
"image-keyboard-response","163","229845","0.0-3.0-6.0-1.0-0.9","6108db64c7f625e1c1f8527f","6662009ae78f21dd82fcd179","666207fd0723cb029e9893bb","392","","j","","","","","","","","./tasks/HMM-beads/Images/NewTrialWC.png","lowH","1","9","1","1","1","1","true","",""
"image-keyboard-response","164","230148","0.0-3.0-6.0-1.0-1.9","6108db64c7f625e1c1f8527f","6662009ae78f21dd82fcd179","666207fd0723cb029e9893bb","null","","null","","","","","","","","./tasks/HMM-beads/Images/WhiteBeadChoice.png","","","","","","","","","",""
"image-keyboard-response","165","230651","0.0-3.0-6.0-1.0-2.9","6108db64c7f625e1c1f8527f","6662009ae78f21dd82fcd179","666207fd0723cb029e9893bb","null","","null","","","","","","","","./tasks/HMM-beads/Images/WhiteBeadChoiceCorrect.png","","","","","","","","","",""
"image-keyboard-response","166","230946","0.0-3.0-6.0-1.0-0.10","6108db64c7f625e1c1f8527f","6662009ae78f21dd82fcd179","666207fd0723cb029e9893bb","288","","j","","","","","","","","./tasks/HMM-beads/Images/NewTrialWC.png","lowH","1","10","1","1","1","1","true","",""
"image-keyboard-response","167","231249","0.0-3.0-6.0-1.0-1.10","6108db64c7f625e1c1f8527f","6662009ae78f21dd82fcd179","666207fd0723cb029e9893bb","null","","null","","","","","","","","./tasks/HMM-beads/Images/WhiteBeadChoice.png","","","","","","","","","",""
"image-keyboard-response","168","231752","0.0-3.0-6.0-1.0-2.10","6108db64c7f625e1c1f8527f","6662009ae78f21dd82fcd179","666207fd0723cb029e9893bb","null","","null","","","","","","","","./tasks/HMM-beads/Images/WhiteBeadChoiceCorrect.png","","","","","","","","","",""
"image-keyboard-response","169","232257","0.0-3.0-6.0-1.0-0.11","6108db64c7f625e1c1f8527f","6662009ae78f21dd82fcd179","666207fd0723cb029e9893bb","502","","j","","","","","","","","./tasks/HMM-beads/Images/NewTrialWC.png","lowH","1","11","1","1","1","1","true","",""
"image-keyboard-response","170","232563","0.0-3.0-6.0-1.0-1.11","6108db64c7f625e1c1f8527f","6662009ae78f21dd82fcd179","666207fd0723cb029e9893bb","null","","null","","","","","","","","./tasks/HMM-beads/Images/WhiteBeadChoice.png","","","","","","","","","",""
"image-keyboard-response","171","233067","0.0-3.0-6.0-1.0-2.11","6108db64c7f625e1c1f8527f","6662009ae78f21dd82fcd179","666207fd0723cb029e9893bb","null","","null","","","","","","","","./tasks/HMM-beads/Images/WhiteBeadChoiceCorrect.png","","","","","","","","","",""
"image-keyboard-response","172","233418","0.0-3.0-6.0-1.0-0.12","6108db64c7f625e1c1f8527f","6662009ae78f21dd82fcd179","666207fd0723cb029e9893bb","348","","j","","","","","","","","./tasks/HMM-beads/Images/NewTrialWC.png","lowH","1","12","1","1","1","1","true","",""
"image-keyboard-response","173","233721","0.0-3.0-6.0-1.0-1.12","6108db64c7f625e1c1f8527f","6662009ae78f21dd82fcd179","666207fd0723cb029e9893bb","null","","null","","","","","","","","./tasks/HMM-beads/Images/WhiteBeadChoice.png","","","","","","","","","",""
"image-keyboard-response","174","234225","0.0-3.0-6.0-1.0-2.12","6108db64c7f625e1c1f8527f","6662009ae78f21dd82fcd179","666207fd0723cb029e9893bb","null","","null","","","","","","","","./tasks/HMM-beads/Images/WhiteBeadChoiceCorrect.png","","","","","","","","","",""
"image-keyboard-response","175","234520","0.0-3.0-6.0-1.0-0.13","6108db64c7f625e1c1f8527f","6662009ae78f21dd82fcd179","666207fd0723cb029e9893bb","292","","j","","","","","","","","./tasks/HMM-beads/Images/NewTrialWC.png","lowH","1","13","1","0","1","1","false","",""
"image-keyboard-response","176","234826","0.0-3.0-6.0-1.0-1.13","6108db64c7f625e1c1f8527f","6662009ae78f21dd82fcd179","666207fd0723cb029e9893bb","null","","null","","","","","","","","./tasks/HMM-beads/Images/WhiteBeadChoice.png","","","","","","","","","",""
"image-keyboard-response","177","235330","0.0-3.0-6.0-1.0-2.13","6108db64c7f625e1c1f8527f","6662009ae78f21dd82fcd179","666207fd0723cb029e9893bb","null","","null","","","","","","","","./tasks/HMM-beads/Images/WhiteBeadChoiceWrong.png","","","","","","","","","",""
"image-keyboard-response","178","236096","0.0-3.0-6.0-1.0-0.14","6108db64c7f625e1c1f8527f","6662009ae78f21dd82fcd179","666207fd0723cb029e9893bb","763","","j","","","","","","","","./tasks/HMM-beads/Images/NewTrialBC.png","lowH","1","14","1","0","0","1","false","",""
"image-keyboard-response","179","236399","0.0-3.0-6.0-1.0-1.14","6108db64c7f625e1c1f8527f","6662009ae78f21dd82fcd179","666207fd0723cb029e9893bb","null","","null","","","","","","","","./tasks/HMM-beads/Images/WhiteBeadChoice.png","","","","","","","","","",""
"image-keyboard-response","180","236902","0.0-3.0-6.0-1.0-2.14","6108db64c7f625e1c1f8527f","6662009ae78f21dd82fcd179","666207fd0723cb029e9893bb","null","","null","","","","","","","","./tasks/HMM-beads/Images/WhiteBeadChoiceWrong.png","","","","","","","","","",""
"image-keyboard-response","181","238318","0.0-3.0-6.0-1.0-0.15","6108db64c7f625e1c1f8527f","6662009ae78f21dd82fcd179","666207fd0723cb029e9893bb","1413","","j","","","","","","","","./tasks/HMM-beads/Images/NewTrialBC.png","lowH","1","15","1","1","0","1","true","",""
"image-keyboard-response","182","238623","0.0-3.0-6.0-1.0-1.15","6108db64c7f625e1c1f8527f","6662009ae78f21dd82fcd179","666207fd0723cb029e9893bb","null","","null","","","","","","","","./tasks/HMM-beads/Images/WhiteBeadChoice.png","","","","","","","","","",""
"image-keyboard-response","183","239127","0.0-3.0-6.0-1.0-2.15","6108db64c7f625e1c1f8527f","6662009ae78f21dd82fcd179","666207fd0723cb029e9893bb","null","","null","","","","","","","","./tasks/HMM-beads/Images/WhiteBeadChoiceCorrect.png","","","","","","","","","",""
"image-keyboard-response","184","239456","0.0-3.0-6.0-1.0-0.16","6108db64c7f625e1c1f8527f","6662009ae78f21dd82fcd179","666207fd0723cb029e9893bb","326","","j","","","","","","","","./tasks/HMM-beads/Images/NewTrialWC.png","lowH","1","16","1","1","1","1","true","",""
"image-keyboard-response","185","239761","0.0-3.0-6.0-1.0-1.16","6108db64c7f625e1c1f8527f","6662009ae78f21dd82fcd179","666207fd0723cb029e9893bb","null","","null","","","","","","","","./tasks/HMM-beads/Images/WhiteBeadChoice.png","","","","","","","","","",""
"image-keyboard-response","186","240265","0.0-3.0-6.0-1.0-2.16","6108db64c7f625e1c1f8527f","6662009ae78f21dd82fcd179","666207fd0723cb029e9893bb","null","","null","","","","","","","","./tasks/HMM-beads/Images/WhiteBeadChoiceCorrect.png","","","","","","","","","",""
"image-keyboard-response","187","240561","0.0-3.0-6.0-1.0-0.17","6108db64c7f625e1c1f8527f","6662009ae78f21dd82fcd179","666207fd0723cb029e9893bb","293","","j","","","","","","","","./tasks/HMM-beads/Images/NewTrialWC.png","lowH","1","17","1","1","1","1","true","",""
"image-keyboard-response","188","240864","0.0-3.0-6.0-1.0-1.17","6108db64c7f625e1c1f8527f","6662009ae78f21dd82fcd179","666207fd0723cb029e9893bb","null","","null","","","","","","","","./tasks/HMM-beads/Images/WhiteBeadChoice.png","","","","","","","","","",""
"image-keyboard-response","189","241367","0.0-3.0-6.0-1.0-2.17","6108db64c7f625e1c1f8527f","6662009ae78f21dd82fcd179","666207fd0723cb029e9893bb","null","","null","","","","","","","","./tasks/HMM-beads/Images/WhiteBeadChoiceCorrect.png","","","","","","","","","",""
"image-keyboard-response","190","241698","0.0-3.0-6.0-1.0-0.18","6108db64c7f625e1c1f8527f","6662009ae78f21dd82fcd179","666207fd0723cb029e9893bb","324","","j","","","","","","","","./tasks/HMM-beads/Images/NewTrialWC.png","lowH","1","18","1","1","1","1","true","",""
"image-keyboard-response","191","242001","0.0-3.0-6.0-1.0-1.18","6108db64c7f625e1c1f8527f","6662009ae78f21dd82fcd179","666207fd0723cb029e9893bb","null","","null","","","","","","","","./tasks/HMM-beads/Images/WhiteBeadChoice.png","","","","","","","","","",""
"image-keyboard-response","192","242504","0.0-3.0-6.0-1.0-2.18","6108db64c7f625e1c1f8527f","6662009ae78f21dd82fcd179","666207fd0723cb029e9893bb","null","","null","","","","","","","","./tasks/HMM-beads/Images/WhiteBeadChoiceCorrect.png","","","","","","","","","",""
"image-keyboard-response","193","243092","0.0-3.0-6.0-1.0-0.19","6108db64c7f625e1c1f8527f","6662009ae78f21dd82fcd179","666207fd0723cb029e9893bb","585","","f","","","","","","","","./tasks/HMM-beads/Images/NewTrialWC.png","lowH","1","19","1","1","1","0","false","",""
"image-keyboard-response","194","243396","0.0-3.0-6.0-1.0-1.19","6108db64c7f625e1c1f8527f","6662009ae78f21dd82fcd179","666207fd0723cb029e9893bb","null","","null","","","","","","","","./tasks/HMM-beads/Images/BlackBeadChoice.png","","","","","","","","","",""
"image-keyboard-response","195","243899","0.0-3.0-6.0-1.0-2.19","6108db64c7f625e1c1f8527f","6662009ae78f21dd82fcd179","666207fd0723cb029e9893bb","null","","null","","","","","","","","./tasks/HMM-beads/Images/BlackBeadChoiceWrong.png","","","","","","","","","",""
"image-keyboard-response","196","244678","0.0-3.0-6.0-1.0-0.20","6108db64c7f625e1c1f8527f","6662009ae78f21dd82fcd179","666207fd0723cb029e9893bb","777","","f","","","","","","","","./tasks/HMM-beads/Images/NewTrialWC.png","lowH","1","20","1","1","1","0","false","",""
"image-keyboard-response","197","244983","0.0-3.0-6.0-1.0-1.20","6108db64c7f625e1c1f8527f","6662009ae78f21dd82fcd179","666207fd0723cb029e9893bb","null","","null","","","","","","","","./tasks/HMM-beads/Images/BlackBeadChoice.png","","","","","","","","","",""
"image-keyboard-response","198","245486","0.0-3.0-6.0-1.0-2.20","6108db64c7f625e1c1f8527f","6662009ae78f21dd82fcd179","666207fd0723cb029e9893bb","null","","null","","","","","","","","./tasks/HMM-beads/Images/BlackBeadChoiceWrong.png","","","","","","","","","",""
"image-keyboard-response","199","245535","0.0-3.0-6.0-1.0-0.21","6108db64c7f625e1c1f8527f","6662009ae78f21dd82fcd179","666207fd0723cb029e9893bb","42","","j","","","","","","","","./tasks/HMM-beads/Images/NewTrialWC.png","lowH","1","21","1","1","1","1","true","",""
"image-keyboard-response","200","245839","0.0-3.0-6.0-1.0-1.21","6108db64c7f625e1c1f8527f","6662009ae78f21dd82fcd179","666207fd0723cb029e9893bb","null","","null","","","","","","","","./tasks/HMM-beads/Images/WhiteBeadChoice.png","","","","","","","","","",""
"image-keyboard-response","201","246343","0.0-3.0-6.0-1.0-2.21","6108db64c7f625e1c1f8527f","6662009ae78f21dd82fcd179","666207fd0723cb029e9893bb","null","","null","","","","","","","","./tasks/HMM-beads/Images/WhiteBeadChoiceCorrect.png","","","","","","","","","",""
"image-keyboard-response","202","246763","0.0-3.0-6.0-1.0-0.22","6108db64c7f625e1c1f8527f","6662009ae78f21dd82fcd179","666207fd0723cb029e9893bb","417","","j","","","","","","","","./tasks/HMM-beads/Images/NewTrialWC.png","lowH","1","22","1","1","1","1","true","",""
"image-keyboard-response","203","247066","0.0-3.0-6.0-1.0-1.22","6108db64c7f625e1c1f8527f","6662009ae78f21dd82fcd179","666207fd0723cb029e9893bb","null","","null","","","","","","","","./tasks/HMM-beads/Images/WhiteBeadChoice.png","","","","","","","","","",""
"image-keyboard-response","204","247570","0.0-3.0-6.0-1.0-2.22","6108db64c7f625e1c1f8527f","6662009ae78f21dd82fcd179","666207fd0723cb029e9893bb","null","","null","","","","","","","","./tasks/HMM-beads/Images/WhiteBeadChoiceCorrect.png","","","","","","","","","",""
"image-keyboard-response","205","247906","0.0-3.0-6.0-1.0-0.23","6108db64c7f625e1c1f8527f","6662009ae78f21dd82fcd179","666207fd0723cb029e9893bb","332","","j","","","","","","","","./tasks/HMM-beads/Images/NewTrialWC.png","lowH","1","23","1","1","1","1","true","",""
"image-keyboard-response","206","248210","0.0-3.0-6.0-1.0-1.23","6108db64c7f625e1c1f8527f","6662009ae78f21dd82fcd179","666207fd0723cb029e9893bb","null","","null","","","","","","","","./tasks/HMM-beads/Images/WhiteBeadChoice.png","","","","","","","","","",""
"image-keyboard-response","207","248714","0.0-3.0-6.0-1.0-2.23","6108db64c7f625e1c1f8527f","6662009ae78f21dd82fcd179","666207fd0723cb029e9893bb","null","","null","","","","","","","","./tasks/HMM-beads/Images/WhiteBeadChoiceCorrect.png","","","","","","","","","",""
"image-keyboard-response","208","249023","0.0-3.0-6.0-1.0-0.24","6108db64c7f625e1c1f8527f","6662009ae78f21dd82fcd179","666207fd0723cb029e9893bb","306","","j","","","","","","","","./tasks/HMM-beads/Images/NewTrialWC.png","lowH","1","24","1","0","1","1","false","",""
"image-keyboard-response","209","249327","0.0-3.0-6.0-1.0-1.24","6108db64c7f625e1c1f8527f","6662009ae78f21dd82fcd179","666207fd0723cb029e9893bb","null","","null","","","","","","","","./tasks/HMM-beads/Images/WhiteBeadChoice.png","","","","","","","","","",""
"image-keyboard-response","210","249832","0.0-3.0-6.0-1.0-2.24","6108db64c7f625e1c1f8527f","6662009ae78f21dd82fcd179","666207fd0723cb029e9893bb","null","","null","","","","","","","","./tasks/HMM-beads/Images/WhiteBeadChoiceWrong.png","","","","","","","","","",""
"image-keyboard-response","211","250283","0.0-3.0-6.0-1.0-0.25","6108db64c7f625e1c1f8527f","6662009ae78f21dd82fcd179","666207fd0723cb029e9893bb","448","","j","","","","","","","","./tasks/HMM-beads/Images/NewTrialBC.png","lowH","1","25","1","1","0","1","true","",""
"image-keyboard-response","212","250586","0.0-3.0-6.0-1.0-1.25","6108db64c7f625e1c1f8527f","6662009ae78f21dd82fcd179","666207fd0723cb029e9893bb","null","","null","","","","","","","","./tasks/HMM-beads/Images/WhiteBeadChoice.png","","","","","","","","","",""
"image-keyboard-response","213","251089","0.0-3.0-6.0-1.0-2.25","6108db64c7f625e1c1f8527f","6662009ae78f21dd82fcd179","666207fd0723cb029e9893bb","null","","null","","","","","","","","./tasks/HMM-beads/Images/WhiteBeadChoiceCorrect.png","","","","","","","","","",""
"image-keyboard-response","214","251601","0.0-3.0-6.0-1.0-0.26","6108db64c7f625e1c1f8527f","6662009ae78f21dd82fcd179","666207fd0723cb029e9893bb","508","","j","","","","","","","","./tasks/HMM-beads/Images/NewTrialWC.png","lowH","1","26","1","0","1","1","false","",""
"image-keyboard-response","215","251906","0.0-3.0-6.0-1.0-1.26","6108db64c7f625e1c1f8527f","6662009ae78f21dd82fcd179","666207fd0723cb029e9893bb","null","","null","","","","","","","","./tasks/HMM-beads/Images/WhiteBeadChoice.png","","","","","","","","","",""
"image-keyboard-response","216","252410","0.0-3.0-6.0-1.0-2.26","6108db64c7f625e1c1f8527f","6662009ae78f21dd82fcd179","666207fd0723cb029e9893bb","null","","null","","","","","","","","./tasks/HMM-beads/Images/WhiteBeadChoiceWrong.png","","","","","","","","","",""
"image-keyboard-response","217","252786","0.0-3.0-6.0-1.0-0.27","6108db64c7f625e1c1f8527f","6662009ae78f21dd82fcd179","666207fd0723cb029e9893bb","373","","j","","","","","","","","./tasks/HMM-beads/Images/NewTrialBC.png","lowH","1","27","1","1","0","1","true","",""
"image-keyboard-response","218","253089","0.0-3.0-6.0-1.0-1.27","6108db64c7f625e1c1f8527f","6662009ae78f21dd82fcd179","666207fd0723cb029e9893bb","null","","null","","","","","","","","./tasks/HMM-beads/Images/WhiteBeadChoice.png","","","","","","","","","",""
"image-keyboard-response","219","253593","0.0-3.0-6.0-1.0-2.27","6108db64c7f625e1c1f8527f","6662009ae78f21dd82fcd179","666207fd0723cb029e9893bb","null","","null","","","","","","","","./tasks/HMM-beads/Images/WhiteBeadChoiceCorrect.png","","","","","","","","","",""
"image-keyboard-response","220","253753","0.0-3.0-6.0-1.0-0.28","6108db64c7f625e1c1f8527f","6662009ae78f21dd82fcd179","666207fd0723cb029e9893bb","157","","j","","","","","","","","./tasks/HMM-beads/Images/NewTrialWC.png","lowH","1","28","1","1","1","1","true","",""
"image-keyboard-response","221","254056","0.0-3.0-6.0-1.0-1.28","6108db64c7f625e1c1f8527f","6662009ae78f21dd82fcd179","666207fd0723cb029e9893bb","null","","null","","","","","","","","./tasks/HMM-beads/Images/WhiteBeadChoice.png","","","","","","","","","",""
"image-keyboard-response","222","254560","0.0-3.0-6.0-1.0-2.28","6108db64c7f625e1c1f8527f","6662009ae78f21dd82fcd179","666207fd0723cb029e9893bb","null","","null","","","","","","","","./tasks/HMM-beads/Images/WhiteBeadChoiceCorrect.png","","","","","","","","","",""
"image-keyboard-response","223","254792","0.0-3.0-6.0-1.0-0.29","6108db64c7f625e1c1f8527f","6662009ae78f21dd82fcd179","666207fd0723cb029e9893bb","229","","j","","","","","","","","./tasks/HMM-beads/Images/NewTrialWC.png","lowH","1","29","1","1","1","1","true","",""
"image-keyboard-response","224","255096","0.0-3.0-6.0-1.0-1.29","6108db64c7f625e1c1f8527f","6662009ae78f21dd82fcd179","666207fd0723cb029e9893bb","null","","null","","","","","","","","./tasks/HMM-beads/Images/WhiteBeadChoice.png","","","","","","","","","",""
"image-keyboard-response","225","255599","0.0-3.0-6.0-1.0-2.29","6108db64c7f625e1c1f8527f","6662009ae78f21dd82fcd179","666207fd0723cb029e9893bb","null","","null","","","","","","","","./tasks/HMM-beads/Images/WhiteBeadChoiceCorrect.png","","","","","","","","","",""
"image-keyboard-response","226","255726","0.0-3.0-6.0-1.0-0.30","6108db64c7f625e1c1f8527f","6662009ae78f21dd82fcd179","666207fd0723cb029e9893bb","124","","j","","","","","","","","./tasks/HMM-beads/Images/NewTrialWC.png","lowH","1","30","1","1","1","1","true","",""
"image-keyboard-response","227","256030","0.0-3.0-6.0-1.0-1.30","6108db64c7f625e1c1f8527f","6662009ae78f21dd82fcd179","666207fd0723cb029e9893bb","null","","null","","","","","","","","./tasks/HMM-beads/Images/WhiteBeadChoice.png","","","","","","","","","",""
"image-keyboard-response","228","256533","0.0-3.0-6.0-1.0-2.30","6108db64c7f625e1c1f8527f","6662009ae78f21dd82fcd179","666207fd0723cb029e9893bb","null","","null","","","","","","","","./tasks/HMM-beads/Images/WhiteBeadChoiceCorrect.png","","","","","","","","","",""
"image-keyboard-response","229","257038","0.0-3.0-6.0-1.0-0.31","6108db64c7f625e1c1f8527f","6662009ae78f21dd82fcd179","666207fd0723cb029e9893bb","503","","j","","","","","","","","./tasks/HMM-beads/Images/NewTrialWC.png","lowH","1","31","1","1","1","1","true","",""
"image-keyboard-response","230","257342","0.0-3.0-6.0-1.0-1.31","6108db64c7f625e1c1f8527f","6662009ae78f21dd82fcd179","666207fd0723cb029e9893bb","null","","null","","","","","","","","./tasks/HMM-beads/Images/WhiteBeadChoice.png","","","","","","","","","",""
"image-keyboard-response","231","257846","0.0-3.0-6.0-1.0-2.31","6108db64c7f625e1c1f8527f","6662009ae78f21dd82fcd179","666207fd0723cb029e9893bb","null","","null","","","","","","","","./tasks/HMM-beads/Images/WhiteBeadChoiceCorrect.png","","","","","","","","","",""
"image-keyboard-response","232","258089","0.0-3.0-6.0-1.0-0.32","6108db64c7f625e1c1f8527f","6662009ae78f21dd82fcd179","666207fd0723cb029e9893bb","240","","j","","","","","","","","./tasks/HMM-beads/Images/NewTrialWC.png","lowH","1","32","1","1","1","1","true","",""
"image-keyboard-response","233","258392","0.0-3.0-6.0-1.0-1.32","6108db64c7f625e1c1f8527f","6662009ae78f21dd82fcd179","666207fd0723cb029e9893bb","null","","null","","","","","","","","./tasks/HMM-beads/Images/WhiteBeadChoice.png","","","","","","","","","",""
"image-keyboard-response","234","258895","0.0-3.0-6.0-1.0-2.32","6108db64c7f625e1c1f8527f","6662009ae78f21dd82fcd179","666207fd0723cb029e9893bb","null","","null","","","","","","","","./tasks/HMM-beads/Images/WhiteBeadChoiceCorrect.png","","","","","","","","","",""
"image-keyboard-response","235","259212","0.0-3.0-6.0-1.0-0.33","6108db64c7f625e1c1f8527f","6662009ae78f21dd82fcd179","666207fd0723cb029e9893bb","314","","j","","","","","","","","./tasks/HMM-beads/Images/NewTrialWC.png","lowH","1","33","1","1","1","1","true","",""
"image-keyboard-response","236","259515","0.0-3.0-6.0-1.0-1.33","6108db64c7f625e1c1f8527f","6662009ae78f21dd82fcd179","666207fd0723cb029e9893bb","null","","null","","","","","","","","./tasks/HMM-beads/Images/WhiteBeadChoice.png","","","","","","","","","",""
"image-keyboard-response","237","260019","0.0-3.0-6.0-1.0-2.33","6108db64c7f625e1c1f8527f","6662009ae78f21dd82fcd179","666207fd0723cb029e9893bb","null","","null","","","","","","","","./tasks/HMM-beads/Images/WhiteBeadChoiceCorrect.png","","","","","","","","","",""
"image-keyboard-response","238","260510","0.0-3.0-6.0-1.0-0.34","6108db64c7f625e1c1f8527f","6662009ae78f21dd82fcd179","666207fd0723cb029e9893bb","486","","j","","","","","","","","./tasks/HMM-beads/Images/NewTrialWC.png","lowH","1","34","1","1","1","1","true","",""
"image-keyboard-response","239","260814","0.0-3.0-6.0-1.0-1.34","6108db64c7f625e1c1f8527f","6662009ae78f21dd82fcd179","666207fd0723cb029e9893bb","null","","null","","","","","","","","./tasks/HMM-beads/Images/WhiteBeadChoice.png","","","","","","","","","",""
"image-keyboard-response","240","261318","0.0-3.0-6.0-1.0-2.34","6108db64c7f625e1c1f8527f","6662009ae78f21dd82fcd179","666207fd0723cb029e9893bb","null","","null","","","","","","","","./tasks/HMM-beads/Images/WhiteBeadChoiceCorrect.png","","","","","","","","","",""
"image-keyboard-response","241","261695","0.0-3.0-6.0-1.0-0.35","6108db64c7f625e1c1f8527f","6662009ae78f21dd82fcd179","666207fd0723cb029e9893bb","374","","j","","","","","","","","./tasks/HMM-beads/Images/NewTrialWC.png","lowH","1","35","1","1","1","1","true","",""
"image-keyboard-response","242","261998","0.0-3.0-6.0-1.0-1.35","6108db64c7f625e1c1f8527f","6662009ae78f21dd82fcd179","666207fd0723cb029e9893bb","null","","null","","","","","","","","./tasks/HMM-beads/Images/WhiteBeadChoice.png","","","","","","","","","",""
"image-keyboard-response","243","262501","0.0-3.0-6.0-1.0-2.35","6108db64c7f625e1c1f8527f","6662009ae78f21dd82fcd179","666207fd0723cb029e9893bb","null","","null","","","","","","","","./tasks/HMM-beads/Images/WhiteBeadChoiceCorrect.png","","","","","","","","","",""
"image-keyboard-response","244","262843","0.0-3.0-6.0-1.0-0.36","6108db64c7f625e1c1f8527f","6662009ae78f21dd82fcd179","666207fd0723cb029e9893bb","336","","j","","","","","","","","./tasks/HMM-beads/Images/NewTrialWC.png","lowH","1","36","1","1","1","1","true","",""
"image-keyboard-response","245","263147","0.0-3.0-6.0-1.0-1.36","6108db64c7f625e1c1f8527f","6662009ae78f21dd82fcd179","666207fd0723cb029e9893bb","null","","null","","","","","","","","./tasks/HMM-beads/Images/WhiteBeadChoice.png","","","","","","","","","",""
"image-keyboard-response","246","263651","0.0-3.0-6.0-1.0-2.36","6108db64c7f625e1c1f8527f","6662009ae78f21dd82fcd179","666207fd0723cb029e9893bb","null","","null","","","","","","","","./tasks/HMM-beads/Images/WhiteBeadChoiceCorrect.png","","","","","","","","","",""
"image-keyboard-response","247","263881","0.0-3.0-6.0-1.0-0.37","6108db64c7f625e1c1f8527f","6662009ae78f21dd82fcd179","666207fd0723cb029e9893bb","227","","j","","","","","","","","./tasks/HMM-beads/Images/NewTrialWC.png","lowH","1","37","1","1","1","1","true","",""
"image-keyboard-response","248","264185","0.0-3.0-6.0-1.0-1.37","6108db64c7f625e1c1f8527f","6662009ae78f21dd82fcd179","666207fd0723cb029e9893bb","null","","null","","","","","","","","./tasks/HMM-beads/Images/WhiteBeadChoice.png","","","","","","","","","",""
"image-keyboard-response","249","264689","0.0-3.0-6.0-1.0-2.37","6108db64c7f625e1c1f8527f","6662009ae78f21dd82fcd179","666207fd0723cb029e9893bb","null","","null","","","","","","","","./tasks/HMM-beads/Images/WhiteBeadChoiceCorrect.png","","","","","","","","","",""
"image-keyboard-response","250","264997","0.0-3.0-6.0-1.0-0.38","6108db64c7f625e1c1f8527f","6662009ae78f21dd82fcd179","666207fd0723cb029e9893bb","305","","j","","","","","","","","./tasks/HMM-beads/Images/NewTrialWC.png","lowH","1","38","1","1","1","1","true","",""
"image-keyboard-response","251","265299","0.0-3.0-6.0-1.0-1.38","6108db64c7f625e1c1f8527f","6662009ae78f21dd82fcd179","666207fd0723cb029e9893bb","null","","null","","","","","","","","./tasks/HMM-beads/Images/WhiteBeadChoice.png","","","","","","","","","",""
"image-keyboard-response","252","265806","0.0-3.0-6.0-1.0-2.38","6108db64c7f625e1c1f8527f","6662009ae78f21dd82fcd179","666207fd0723cb029e9893bb","null","","null","","","","","","","","./tasks/HMM-beads/Images/WhiteBeadChoiceCorrect.png","","","","","","","","","",""
"image-keyboard-response","253","266107","0.0-3.0-6.0-1.0-0.39","6108db64c7f625e1c1f8527f","6662009ae78f21dd82fcd179","666207fd0723cb029e9893bb","298","","j","","","","","","","","./tasks/HMM-beads/Images/NewTrialWC.png","lowH","1","39","1","1","1","1","true","",""
"image-keyboard-response","254","266411","0.0-3.0-6.0-1.0-1.39","6108db64c7f625e1c1f8527f","6662009ae78f21dd82fcd179","666207fd0723cb029e9893bb","null","","null","","","","","","","","./tasks/HMM-beads/Images/WhiteBeadChoice.png","","","","","","","","","",""
"image-keyboard-response","255","266915","0.0-3.0-6.0-1.0-2.39","6108db64c7f625e1c1f8527f","6662009ae78f21dd82fcd179","666207fd0723cb029e9893bb","null","","null","","","","","","","","./tasks/HMM-beads/Images/WhiteBeadChoiceCorrect.png","","","","","","","","","",""
"image-keyboard-response","256","267218","0.0-3.0-6.0-1.0-0.40","6108db64c7f625e1c1f8527f","6662009ae78f21dd82fcd179","666207fd0723cb029e9893bb","301","","j","","","","","","","","./tasks/HMM-beads/Images/NewTrialWC.png","lowH","1","40","1","1","1","1","true","",""
"image-keyboard-response","257","267521","0.0-3.0-6.0-1.0-1.40","6108db64c7f625e1c1f8527f","6662009ae78f21dd82fcd179","666207fd0723cb029e9893bb","null","","null","","","","","","","","./tasks/HMM-beads/Images/WhiteBeadChoice.png","","","","","","","","","",""
"image-keyboard-response","258","268025","0.0-3.0-6.0-1.0-2.40","6108db64c7f625e1c1f8527f","6662009ae78f21dd82fcd179","666207fd0723cb029e9893bb","null","","null","","","","","","","","./tasks/HMM-beads/Images/WhiteBeadChoiceCorrect.png","","","","","","","","","",""
"image-keyboard-response","259","268327","0.0-3.0-6.0-1.0-0.41","6108db64c7f625e1c1f8527f","6662009ae78f21dd82fcd179","666207fd0723cb029e9893bb","299","","j","","","","","","","","./tasks/HMM-beads/Images/NewTrialWC.png","lowH","1","41","1","1","1","1","true","",""
"image-keyboard-response","260","268631","0.0-3.0-6.0-1.0-1.41","6108db64c7f625e1c1f8527f","6662009ae78f21dd82fcd179","666207fd0723cb029e9893bb","null","","null","","","","","","","","./tasks/HMM-beads/Images/WhiteBeadChoice.png","","","","","","","","","",""
"image-keyboard-response","261","269134","0.0-3.0-6.0-1.0-2.41","6108db64c7f625e1c1f8527f","6662009ae78f21dd82fcd179","666207fd0723cb029e9893bb","null","","null","","","","","","","","./tasks/HMM-beads/Images/WhiteBeadChoiceCorrect.png","","","","","","","","","",""
"image-keyboard-response","262","269428","0.0-3.0-6.0-1.0-0.42","6108db64c7f625e1c1f8527f","6662009ae78f21dd82fcd179","666207fd0723cb029e9893bb","291","","j","","","","","","","","./tasks/HMM-beads/Images/NewTrialWC.png","lowH","1","42","1","1","1","1","true","",""
"image-keyboard-response","263","269732","0.0-3.0-6.0-1.0-1.42","6108db64c7f625e1c1f8527f","6662009ae78f21dd82fcd179","666207fd0723cb029e9893bb","null","","null","","","","","","","","./tasks/HMM-beads/Images/WhiteBeadChoice.png","","","","","","","","","",""
"image-keyboard-response","264","270236","0.0-3.0-6.0-1.0-2.42","6108db64c7f625e1c1f8527f","6662009ae78f21dd82fcd179","666207fd0723cb029e9893bb","null","","null","","","","","","","","./tasks/HMM-beads/Images/WhiteBeadChoiceCorrect.png","","","","","","","","","",""
"image-keyboard-response","265","270549","0.0-3.0-6.0-1.0-0.43","6108db64c7f625e1c1f8527f","6662009ae78f21dd82fcd179","666207fd0723cb029e9893bb","311","","j","","","","","","","","./tasks/HMM-beads/Images/NewTrialWC.png","lowH","1","43","1","1","1","1","true","",""
"image-keyboard-response","266","270852","0.0-3.0-6.0-1.0-1.43","6108db64c7f625e1c1f8527f","6662009ae78f21dd82fcd179","666207fd0723cb029e9893bb","null","","null","","","","","","","","./tasks/HMM-beads/Images/WhiteBeadChoice.png","","","","","","","","","",""
"image-keyboard-response","267","271357","0.0-3.0-6.0-1.0-2.43","6108db64c7f625e1c1f8527f","6662009ae78f21dd82fcd179","666207fd0723cb029e9893bb","null","","null","","","","","","","","./tasks/HMM-beads/Images/WhiteBeadChoiceCorrect.png","","","","","","","","","",""
"image-keyboard-response","268","271466","0.0-3.0-6.0-1.0-0.44","6108db64c7f625e1c1f8527f","6662009ae78f21dd82fcd179","666207fd0723cb029e9893bb","105","","j","","","","","","","","./tasks/HMM-beads/Images/NewTrialWC.png","lowH","1","44","1","1","1","1","true","",""
"image-keyboard-response","269","271771","0.0-3.0-6.0-1.0-1.44","6108db64c7f625e1c1f8527f","6662009ae78f21dd82fcd179","666207fd0723cb029e9893bb","null","","null","","","","","","","","./tasks/HMM-beads/Images/WhiteBeadChoice.png","","","","","","","","","",""
"image-keyboard-response","270","272274","0.0-3.0-6.0-1.0-2.44","6108db64c7f625e1c1f8527f","6662009ae78f21dd82fcd179","666207fd0723cb029e9893bb","null","","null","","","","","","","","./tasks/HMM-beads/Images/WhiteBeadChoiceCorrect.png","","","","","","","","","",""
"image-keyboard-response","271","272464","0.0-3.0-6.0-1.0-0.45","6108db64c7f625e1c1f8527f","6662009ae78f21dd82fcd179","666207fd0723cb029e9893bb","187","","j","","","","","","","","./tasks/HMM-beads/Images/NewTrialWC.png","lowH","1","45","1","1","1","1","true","",""
"image-keyboard-response","272","272768","0.0-3.0-6.0-1.0-1.45","6108db64c7f625e1c1f8527f","6662009ae78f21dd82fcd179","666207fd0723cb029e9893bb","null","","null","","","","","","","","./tasks/HMM-beads/Images/WhiteBeadChoice.png","","","","","","","","","",""
"image-keyboard-response","273","273271","0.0-3.0-6.0-1.0-2.45","6108db64c7f625e1c1f8527f","6662009ae78f21dd82fcd179","666207fd0723cb029e9893bb","null","","null","","","","","","","","./tasks/HMM-beads/Images/WhiteBeadChoiceCorrect.png","","","","","","","","","",""
"image-keyboard-response","274","273714","0.0-3.0-6.0-1.0-0.46","6108db64c7f625e1c1f8527f","6662009ae78f21dd82fcd179","666207fd0723cb029e9893bb","441","","j","","","","","","","","./tasks/HMM-beads/Images/NewTrialWC.png","lowH","1","46","1","1","1","1","true","",""
"image-keyboard-response","275","274018","0.0-3.0-6.0-1.0-1.46","6108db64c7f625e1c1f8527f","6662009ae78f21dd82fcd179","666207fd0723cb029e9893bb","null","","null","","","","","","","","./tasks/HMM-beads/Images/WhiteBeadChoice.png","","","","","","","","","",""
"image-keyboard-response","276","274521","0.0-3.0-6.0-1.0-2.46","6108db64c7f625e1c1f8527f","6662009ae78f21dd82fcd179","666207fd0723cb029e9893bb","null","","null","","","","","","","","./tasks/HMM-beads/Images/WhiteBeadChoiceCorrect.png","","","","","","","","","",""
"image-keyboard-response","277","274974","0.0-3.0-6.0-1.0-0.47","6108db64c7f625e1c1f8527f","6662009ae78f21dd82fcd179","666207fd0723cb029e9893bb","450","","j","","","","","","","","./tasks/HMM-beads/Images/NewTrialWC.png","lowH","1","47","1","0","1","1","false","",""
"image-keyboard-response","278","275278","0.0-3.0-6.0-1.0-1.47","6108db64c7f625e1c1f8527f","6662009ae78f21dd82fcd179","666207fd0723cb029e9893bb","null","","null","","","","","","","","./tasks/HMM-beads/Images/WhiteBeadChoice.png","","","","","","","","","",""
"image-keyboard-response","279","275782","0.0-3.0-6.0-1.0-2.47","6108db64c7f625e1c1f8527f","6662009ae78f21dd82fcd179","666207fd0723cb029e9893bb","null","","null","","","","","","","","./tasks/HMM-beads/Images/WhiteBeadChoiceWrong.png","","","","","","","","","",""
"image-keyboard-response","280","276165","0.0-3.0-6.0-1.0-0.48","6108db64c7f625e1c1f8527f","6662009ae78f21dd82fcd179","666207fd0723cb029e9893bb","381","","j","","","","","","","","./tasks/HMM-beads/Images/NewTrialBC.png","lowH","1","48","1","0","0","1","false","",""
"image-keyboard-response","281","276469","0.0-3.0-6.0-1.0-1.48","6108db64c7f625e1c1f8527f","6662009ae78f21dd82fcd179","666207fd0723cb029e9893bb","null","","null","","","","","","","","./tasks/HMM-beads/Images/WhiteBeadChoice.png","","","","","","","","","",""
"image-keyboard-response","282","276973","0.0-3.0-6.0-1.0-2.48","6108db64c7f625e1c1f8527f","6662009ae78f21dd82fcd179","666207fd0723cb029e9893bb","null","","null","","","","","","","","./tasks/HMM-beads/Images/WhiteBeadChoiceWrong.png","","","","","","","","","",""
"image-keyboard-response","283","277427","0.0-3.0-6.0-1.0-0.49","6108db64c7f625e1c1f8527f","6662009ae78f21dd82fcd179","666207fd0723cb029e9893bb","452","","j","","","","","","","","./tasks/HMM-beads/Images/NewTrialBC.png","lowH","1","49","1","0","0","1","false","",""
"image-keyboard-response","284","277730","0.0-3.0-6.0-1.0-1.49","6108db64c7f625e1c1f8527f","6662009ae78f21dd82fcd179","666207fd0723cb029e9893bb","null","","null","","","","","","","","./tasks/HMM-beads/Images/WhiteBeadChoice.png","","","","","","","","","",""
"image-keyboard-response","285","278237","0.0-3.0-6.0-1.0-2.49","6108db64c7f625e1c1f8527f","6662009ae78f21dd82fcd179","666207fd0723cb029e9893bb","null","","null","","","","","","","","./tasks/HMM-beads/Images/WhiteBeadChoiceWrong.png","","","","","","","","","",""
"image-keyboard-response","286","278606","0.0-3.0-6.0-1.0-0.50","6108db64c7f625e1c1f8527f","6662009ae78f21dd82fcd179","666207fd0723cb029e9893bb","367","","j","","","","","","","","./tasks/HMM-beads/Images/NewTrialBC.png","lowH","1","50","1","1","0","1","true","",""
"image-keyboard-response","287","278910","0.0-3.0-6.0-1.0-1.50","6108db64c7f625e1c1f8527f","6662009ae78f21dd82fcd179","666207fd0723cb029e9893bb","null","","null","","","","","","","","./tasks/HMM-beads/Images/WhiteBeadChoice.png","","","","","","","","","",""
"image-keyboard-response","288","279414","0.0-3.0-6.0-1.0-2.50","6108db64c7f625e1c1f8527f","6662009ae78f21dd82fcd179","666207fd0723cb029e9893bb","null","","null","","","","","","","","./tasks/HMM-beads/Images/WhiteBeadChoiceCorrect.png","","","","","","","","","",""
"image-keyboard-response","289","279631","0.0-3.0-6.0-1.0-0.51","6108db64c7f625e1c1f8527f","6662009ae78f21dd82fcd179","666207fd0723cb029e9893bb","214","","j","","","","","","","","./tasks/HMM-beads/Images/NewTrialWC.png","lowH","1","51","1","1","1","1","true","",""
"image-keyboard-response","290","279933","0.0-3.0-6.0-1.0-1.51","6108db64c7f625e1c1f8527f","6662009ae78f21dd82fcd179","666207fd0723cb029e9893bb","null","","null","","","","","","","","./tasks/HMM-beads/Images/WhiteBeadChoice.png","","","","","","","","","",""
"image-keyboard-response","291","280437","0.0-3.0-6.0-1.0-2.51","6108db64c7f625e1c1f8527f","6662009ae78f21dd82fcd179","666207fd0723cb029e9893bb","null","","null","","","","","","","","./tasks/HMM-beads/Images/WhiteBeadChoiceCorrect.png","","","","","","","","","",""
"image-keyboard-response","292","280913","0.0-3.0-6.0-1.0-0.52","6108db64c7f625e1c1f8527f","6662009ae78f21dd82fcd179","666207fd0723cb029e9893bb","472","","j","","","","","","","","./tasks/HMM-beads/Images/NewTrialWC.png","lowH","1","52","1","1","1","1","true","",""
"image-keyboard-response","293","281216","0.0-3.0-6.0-1.0-1.52","6108db64c7f625e1c1f8527f","6662009ae78f21dd82fcd179","666207fd0723cb029e9893bb","null","","null","","","","","","","","./tasks/HMM-beads/Images/WhiteBeadChoice.png","","","","","","","","","",""
"image-keyboard-response","294","281720","0.0-3.0-6.0-1.0-2.52","6108db64c7f625e1c1f8527f","6662009ae78f21dd82fcd179","666207fd0723cb029e9893bb","null","","null","","","","","","","","./tasks/HMM-beads/Images/WhiteBeadChoiceCorrect.png","","","","","","","","","",""
"image-keyboard-response","295","282012","0.0-3.0-6.0-1.0-0.53","6108db64c7f625e1c1f8527f","6662009ae78f21dd82fcd179","666207fd0723cb029e9893bb","289","","j","","","","","","","","./tasks/HMM-beads/Images/NewTrialWC.png","lowH","1","53","1","1","1","1","true","",""
"image-keyboard-response","296","282314","0.0-3.0-6.0-1.0-1.53","6108db64c7f625e1c1f8527f","6662009ae78f21dd82fcd179","666207fd0723cb029e9893bb","null","","null","","","","","","","","./tasks/HMM-beads/Images/WhiteBeadChoice.png","","","","","","","","","",""
"image-keyboard-response","297","282818","0.0-3.0-6.0-1.0-2.53","6108db64c7f625e1c1f8527f","6662009ae78f21dd82fcd179","666207fd0723cb029e9893bb","null","","null","","","","","","","","./tasks/HMM-beads/Images/WhiteBeadChoiceCorrect.png","","","","","","","","","",""
"image-keyboard-response","298","283129","0.0-3.0-6.0-1.0-0.54","6108db64c7f625e1c1f8527f","6662009ae78f21dd82fcd179","666207fd0723cb029e9893bb","305","","j","","","","","","","","./tasks/HMM-beads/Images/NewTrialWC.png","lowH","1","54","1","1","1","1","true","",""
"image-keyboard-response","299","283433","0.0-3.0-6.0-1.0-1.54","6108db64c7f625e1c1f8527f","6662009ae78f21dd82fcd179","666207fd0723cb029e9893bb","null","","null","","","","","","","","./tasks/HMM-beads/Images/WhiteBeadChoice.png","","","","","","","","","",""
"image-keyboard-response","300","283937","0.0-3.0-6.0-1.0-2.54","6108db64c7f625e1c1f8527f","6662009ae78f21dd82fcd179","666207fd0723cb029e9893bb","null","","null","","","","","","","","./tasks/HMM-beads/Images/WhiteBeadChoiceCorrect.png","","","","","","","","","",""
"image-keyboard-response","301","284299","0.0-3.0-6.0-1.0-0.55","6108db64c7f625e1c1f8527f","6662009ae78f21dd82fcd179","666207fd0723cb029e9893bb","360","","j","","","","","","","","./tasks/HMM-beads/Images/NewTrialWC.png","lowH","1","55","1","1","1","1","true","",""
"image-keyboard-response","302","284602","0.0-3.0-6.0-1.0-1.55","6108db64c7f625e1c1f8527f","6662009ae78f21dd82fcd179","666207fd0723cb029e9893bb","null","","null","","","","","","","","./tasks/HMM-beads/Images/WhiteBeadChoice.png","","","","","","","","","",""
"image-keyboard-response","303","285106","0.0-3.0-6.0-1.0-2.55","6108db64c7f625e1c1f8527f","6662009ae78f21dd82fcd179","666207fd0723cb029e9893bb","null","","null","","","","","","","","./tasks/HMM-beads/Images/WhiteBeadChoiceCorrect.png","","","","","","","","","",""
"image-keyboard-response","304","285417","0.0-3.0-6.0-1.0-0.56","6108db64c7f625e1c1f8527f","6662009ae78f21dd82fcd179","666207fd0723cb029e9893bb","309","","j","","","","","","","","./tasks/HMM-beads/Images/NewTrialWC.png","lowH","1","56","1","1","1","1","true","",""
"image-keyboard-response","305","285722","0.0-3.0-6.0-1.0-1.56","6108db64c7f625e1c1f8527f","6662009ae78f21dd82fcd179","666207fd0723cb029e9893bb","null","","null","","","","","","","","./tasks/HMM-beads/Images/WhiteBeadChoice.png","","","","","","","","","",""
"image-keyboard-response","306","286227","0.0-3.0-6.0-1.0-2.56","6108db64c7f625e1c1f8527f","6662009ae78f21dd82fcd179","666207fd0723cb029e9893bb","null","","null","","","","","","","","./tasks/HMM-beads/Images/WhiteBeadChoiceCorrect.png","","","","","","","","","",""
"image-keyboard-response","307","286524","0.0-3.0-6.0-1.0-0.57","6108db64c7f625e1c1f8527f","6662009ae78f21dd82fcd179","666207fd0723cb029e9893bb","295","","j","","","","","","","","./tasks/HMM-beads/Images/NewTrialWC.png","lowH","1","57","1","1","1","1","true","",""
"image-keyboard-response","308","286829","0.0-3.0-6.0-1.0-1.57","6108db64c7f625e1c1f8527f","6662009ae78f21dd82fcd179","666207fd0723cb029e9893bb","null","","null","","","","","","","","./tasks/HMM-beads/Images/WhiteBeadChoice.png","","","","","","","","","",""
"image-keyboard-response","309","287333","0.0-3.0-6.0-1.0-2.57","6108db64c7f625e1c1f8527f","6662009ae78f21dd82fcd179","666207fd0723cb029e9893bb","null","","null","","","","","","","","./tasks/HMM-beads/Images/WhiteBeadChoiceCorrect.png","","","","","","","","","",""
"image-keyboard-response","310","287714","0.0-3.0-6.0-1.0-0.58","6108db64c7f625e1c1f8527f","6662009ae78f21dd82fcd179","666207fd0723cb029e9893bb","378","","j","","","","","","","","./tasks/HMM-beads/Images/NewTrialWC.png","lowH","1","58","1","1","1","1","true","",""
"image-keyboard-response","311","288017","0.0-3.0-6.0-1.0-1.58","6108db64c7f625e1c1f8527f","6662009ae78f21dd82fcd179","666207fd0723cb029e9893bb","null","","null","","","","","","","","./tasks/HMM-beads/Images/WhiteBeadChoice.png","","","","","","","","","",""
"image-keyboard-response","312","288522","0.0-3.0-6.0-1.0-2.58","6108db64c7f625e1c1f8527f","6662009ae78f21dd82fcd179","666207fd0723cb029e9893bb","null","","null","","","","","","","","./tasks/HMM-beads/Images/WhiteBeadChoiceCorrect.png","","","","","","","","","",""
"image-keyboard-response","313","288779","0.0-3.0-6.0-1.0-0.59","6108db64c7f625e1c1f8527f","6662009ae78f21dd82fcd179","666207fd0723cb029e9893bb","252","","j","","","","","","","","./tasks/HMM-beads/Images/NewTrialWC.png","lowH","1","59","1","0","1","1","false","",""
"image-keyboard-response","314","289083","0.0-3.0-6.0-1.0-1.59","6108db64c7f625e1c1f8527f","6662009ae78f21dd82fcd179","666207fd0723cb029e9893bb","null","","null","","","","","","","","./tasks/HMM-beads/Images/WhiteBeadChoice.png","","","","","","","","","",""
"image-keyboard-response","315","289587","0.0-3.0-6.0-1.0-2.59","6108db64c7f625e1c1f8527f","6662009ae78f21dd82fcd179","666207fd0723cb029e9893bb","null","","null","","","","","","","","./tasks/HMM-beads/Images/WhiteBeadChoiceWrong.png","","","","","","","","","",""
"image-keyboard-response","316","290029","0.0-3.0-6.0-1.0-0.60","6108db64c7f625e1c1f8527f","6662009ae78f21dd82fcd179","666207fd0723cb029e9893bb","440","","j","","","","","","","","./tasks/HMM-beads/Images/NewTrialBC.png","lowH","1","60","1","1","0","1","true","",""
"image-keyboard-response","317","290332","0.0-3.0-6.0-1.0-1.60","6108db64c7f625e1c1f8527f","6662009ae78f21dd82fcd179","666207fd0723cb029e9893bb","null","","null","","","","","","","","./tasks/HMM-beads/Images/WhiteBeadChoice.png","","","","","","","","","",""
"image-keyboard-response","318","290836","0.0-3.0-6.0-1.0-2.60","6108db64c7f625e1c1f8527f","6662009ae78f21dd82fcd179","666207fd0723cb029e9893bb","null","","null","","","","","","","","./tasks/HMM-beads/Images/WhiteBeadChoiceCorrect.png","","","","","","","","","",""
"image-keyboard-response","319","291221","0.0-3.0-6.0-1.0-0.61","6108db64c7f625e1c1f8527f","6662009ae78f21dd82fcd179","666207fd0723cb029e9893bb","383","","j","","","","","","","","./tasks/HMM-beads/Images/NewTrialWC.png","lowH","1","61","1","1","1","1","true","",""
"image-keyboard-response","320","291524","0.0-3.0-6.0-1.0-1.61","6108db64c7f625e1c1f8527f","6662009ae78f21dd82fcd179","666207fd0723cb029e9893bb","null","","null","","","","","","","","./tasks/HMM-beads/Images/WhiteBeadChoice.png","","","","","","","","","",""
"image-keyboard-response","321","292028","0.0-3.0-6.0-1.0-2.61","6108db64c7f625e1c1f8527f","6662009ae78f21dd82fcd179","666207fd0723cb029e9893bb","null","","null","","","","","","","","./tasks/HMM-beads/Images/WhiteBeadChoiceCorrect.png","","","","","","","","","",""
"image-keyboard-response","322","292221","0.0-3.0-6.0-1.0-0.62","6108db64c7f625e1c1f8527f","6662009ae78f21dd82fcd179","666207fd0723cb029e9893bb","188","","j","","","","","","","","./tasks/HMM-beads/Images/NewTrialWC.png","lowH","1","62","1","0","1","1","false","",""
"image-keyboard-response","323","292525","0.0-3.0-6.0-1.0-1.62","6108db64c7f625e1c1f8527f","6662009ae78f21dd82fcd179","666207fd0723cb029e9893bb","null","","null","","","","","","","","./tasks/HMM-beads/Images/WhiteBeadChoice.png","","","","","","","","","",""
"image-keyboard-response","324","293028","0.0-3.0-6.0-1.0-2.62","6108db64c7f625e1c1f8527f","6662009ae78f21dd82fcd179","666207fd0723cb029e9893bb","null","","null","","","","","","","","./tasks/HMM-beads/Images/WhiteBeadChoiceWrong.png","","","","","","","","","",""
"image-keyboard-response","325","293400","0.0-3.0-6.0-1.0-0.63","6108db64c7f625e1c1f8527f","6662009ae78f21dd82fcd179","666207fd0723cb029e9893bb","370","","j","","","","","","","","./tasks/HMM-beads/Images/NewTrialBC.png","lowH","1","63","1","1","0","1","true","",""
"image-keyboard-response","326","293703","0.0-3.0-6.0-1.0-1.63","6108db64c7f625e1c1f8527f","6662009ae78f21dd82fcd179","666207fd0723cb029e9893bb","null","","null","","","","","","","","./tasks/HMM-beads/Images/WhiteBeadChoice.png","","","","","","","","","",""
"image-keyboard-response","327","294207","0.0-3.0-6.0-1.0-2.63","6108db64c7f625e1c1f8527f","6662009ae78f21dd82fcd179","666207fd0723cb029e9893bb","null","","null","","","","","","","","./tasks/HMM-beads/Images/WhiteBeadChoiceCorrect.png","","","","","","","","","",""
"image-keyboard-response","328","294551","0.0-3.0-6.0-1.0-0.64","6108db64c7f625e1c1f8527f","6662009ae78f21dd82fcd179","666207fd0723cb029e9893bb","342","","j","","","","","","","","./tasks/HMM-beads/Images/NewTrialWC.png","lowH","1","64","1","1","1","1","true","",""
"image-keyboard-response","329","294854","0.0-3.0-6.0-1.0-1.64","6108db64c7f625e1c1f8527f","6662009ae78f21dd82fcd179","666207fd0723cb029e9893bb","null","","null","","","","","","","","./tasks/HMM-beads/Images/WhiteBeadChoice.png","","","","","","","","","",""
"image-keyboard-response","330","295358","0.0-3.0-6.0-1.0-2.64","6108db64c7f625e1c1f8527f","6662009ae78f21dd82fcd179","666207fd0723cb029e9893bb","null","","null","","","","","","","","./tasks/HMM-beads/Images/WhiteBeadChoiceCorrect.png","","","","","","","","","",""
"image-keyboard-response","331","295557","0.0-3.0-6.0-1.0-0.65","6108db64c7f625e1c1f8527f","6662009ae78f21dd82fcd179","666207fd0723cb029e9893bb","195","","j","","","","","","","","./tasks/HMM-beads/Images/NewTrialWC.png","lowH","1","65","1","1","1","1","true","",""
"image-keyboard-response","332","295860","0.0-3.0-6.0-1.0-1.65","6108db64c7f625e1c1f8527f","6662009ae78f21dd82fcd179","666207fd0723cb029e9893bb","null","","null","","","","","","","","./tasks/HMM-beads/Images/WhiteBeadChoice.png","","","","","","","","","",""
"image-keyboard-response","333","296363","0.0-3.0-6.0-1.0-2.65","6108db64c7f625e1c1f8527f","6662009ae78f21dd82fcd179","666207fd0723cb029e9893bb","null","","null","","","","","","","","./tasks/HMM-beads/Images/WhiteBeadChoiceCorrect.png","","","","","","","","","",""
"image-keyboard-response","334","296451","0.0-3.0-6.0-1.0-0.66","6108db64c7f625e1c1f8527f","6662009ae78f21dd82fcd179","666207fd0723cb029e9893bb","85","","j","","","","","","","","./tasks/HMM-beads/Images/NewTrialWC.png","lowH","1","66","1","1","1","1","true","",""
"image-keyboard-response","335","296753","0.0-3.0-6.0-1.0-1.66","6108db64c7f625e1c1f8527f","6662009ae78f21dd82fcd179","666207fd0723cb029e9893bb","null","","null","","","","","","","","./tasks/HMM-beads/Images/WhiteBeadChoice.png","","","","","","","","","",""
"image-keyboard-response","336","297256","0.0-3.0-6.0-1.0-2.66","6108db64c7f625e1c1f8527f","6662009ae78f21dd82fcd179","666207fd0723cb029e9893bb","null","","null","","","","","","","","./tasks/HMM-beads/Images/WhiteBeadChoiceCorrect.png","","","","","","","","","",""
"image-keyboard-response","337","297692","0.0-3.0-6.0-1.0-0.67","6108db64c7f625e1c1f8527f","6662009ae78f21dd82fcd179","666207fd0723cb029e9893bb","432","","j","","","","","","","","./tasks/HMM-beads/Images/NewTrialWC.png","lowH","1","67","1","0","1","1","false","",""
"image-keyboard-response","338","297997","0.0-3.0-6.0-1.0-1.67","6108db64c7f625e1c1f8527f","6662009ae78f21dd82fcd179","666207fd0723cb029e9893bb","null","","null","","","","","","","","./tasks/HMM-beads/Images/WhiteBeadChoice.png","","","","","","","","","",""
"image-keyboard-response","339","298500","0.0-3.0-6.0-1.0-2.67","6108db64c7f625e1c1f8527f","6662009ae78f21dd82fcd179","666207fd0723cb029e9893bb","null","","null","","","","","","","","./tasks/HMM-beads/Images/WhiteBeadChoiceWrong.png","","","","","","","","","",""
"image-keyboard-response","340","298830","0.0-3.0-6.0-1.0-0.68","6108db64c7f625e1c1f8527f","6662009ae78f21dd82fcd179","666207fd0723cb029e9893bb","327","","j","","","","","","","","./tasks/HMM-beads/Images/NewTrialBC.png","lowH","1","68","1","1","0","1","true","",""
"image-keyboard-response","341","299133","0.0-3.0-6.0-1.0-1.68","6108db64c7f625e1c1f8527f","6662009ae78f21dd82fcd179","666207fd0723cb029e9893bb","null","","null","","","","","","","","./tasks/HMM-beads/Images/WhiteBeadChoice.png","","","","","","","","","",""
"image-keyboard-response","342","299637","0.0-3.0-6.0-1.0-2.68","6108db64c7f625e1c1f8527f","6662009ae78f21dd82fcd179","666207fd0723cb029e9893bb","null","","null","","","","","","","","./tasks/HMM-beads/Images/WhiteBeadChoiceCorrect.png","","","","","","","","","",""
"image-keyboard-response","343","299906","0.0-3.0-6.0-1.0-0.69","6108db64c7f625e1c1f8527f","6662009ae78f21dd82fcd179","666207fd0723cb029e9893bb","266","","j","","","","","","","","./tasks/HMM-beads/Images/NewTrialWC.png","lowH","1","69","0","1","1","1","true","",""
"image-keyboard-response","344","300208","0.0-3.0-6.0-1.0-1.69","6108db64c7f625e1c1f8527f","6662009ae78f21dd82fcd179","666207fd0723cb029e9893bb","null","","null","","","","","","","","./tasks/HMM-beads/Images/WhiteBeadChoice.png","","","","","","","","","",""
"image-keyboard-response","345","300712","0.0-3.0-6.0-1.0-2.69","6108db64c7f625e1c1f8527f","6662009ae78f21dd82fcd179","666207fd0723cb029e9893bb","null","","null","","","","","","","","./tasks/HMM-beads/Images/WhiteBeadChoiceCorrect.png","","","","","","","","","",""
"image-keyboard-response","346","301227","0.0-3.0-6.0-1.0-0.70","6108db64c7f625e1c1f8527f","6662009ae78f21dd82fcd179","666207fd0723cb029e9893bb","513","","j","","","","","","","","./tasks/HMM-beads/Images/NewTrialWC.png","lowH","1","70","0","1","1","1","true","",""
"image-keyboard-response","347","301530","0.0-3.0-6.0-1.0-1.70","6108db64c7f625e1c1f8527f","6662009ae78f21dd82fcd179","666207fd0723cb029e9893bb","null","","null","","","","","","","","./tasks/HMM-beads/Images/WhiteBeadChoice.png","","","","","","","","","",""
"image-keyboard-response","348","302033","0.0-3.0-6.0-1.0-2.70","6108db64c7f625e1c1f8527f","6662009ae78f21dd82fcd179","666207fd0723cb029e9893bb","null","","null","","","","","","","","./tasks/HMM-beads/Images/WhiteBeadChoiceCorrect.png","","","","","","","","","",""
"image-keyboard-response","349","302549","0.0-3.0-6.0-1.0-0.71","6108db64c7f625e1c1f8527f","6662009ae78f21dd82fcd179","666207fd0723cb029e9893bb","514","","j","","","","","","","","./tasks/HMM-beads/Images/NewTrialWC.png","lowH","1","71","0","0","1","1","false","",""
"image-keyboard-response","350","302852","0.0-3.0-6.0-1.0-1.71","6108db64c7f625e1c1f8527f","6662009ae78f21dd82fcd179","666207fd0723cb029e9893bb","null","","null","","","","","","","","./tasks/HMM-beads/Images/WhiteBeadChoice.png","","","","","","","","","",""
"image-keyboard-response","351","303358","0.0-3.0-6.0-1.0-2.71","6108db64c7f625e1c1f8527f","6662009ae78f21dd82fcd179","666207fd0723cb029e9893bb","null","","null","","","","","","","","./tasks/HMM-beads/Images/WhiteBeadChoiceWrong.png","","","","","","","","","",""
"image-keyboard-response","352","303588","0.0-3.0-6.0-1.0-0.72","6108db64c7f625e1c1f8527f","6662009ae78f21dd82fcd179","666207fd0723cb029e9893bb","228","","j","","","","","","","","./tasks/HMM-beads/Images/NewTrialBC.png","lowH","1","72","0","0","0","1","false","",""
"image-keyboard-response","353","303891","0.0-3.0-6.0-1.0-1.72","6108db64c7f625e1c1f8527f","6662009ae78f21dd82fcd179","666207fd0723cb029e9893bb","null","","null","","","","","","","","./tasks/HMM-beads/Images/WhiteBeadChoice.png","","","","","","","","","",""
"image-keyboard-response","354","304395","0.0-3.0-6.0-1.0-2.72","6108db64c7f625e1c1f8527f","6662009ae78f21dd82fcd179","666207fd0723cb029e9893bb","null","","null","","","","","","","","./tasks/HMM-beads/Images/WhiteBeadChoiceWrong.png","","","","","","","","","",""
"image-keyboard-response","355","304622","0.0-3.0-6.0-1.0-0.73","6108db64c7f625e1c1f8527f","6662009ae78f21dd82fcd179","666207fd0723cb029e9893bb","224","","j","","","","","","","","./tasks/HMM-beads/Images/NewTrialBC.png","lowH","1","73","0","1","0","1","true","",""
"image-keyboard-response","356","304925","0.0-3.0-6.0-1.0-1.73","6108db64c7f625e1c1f8527f","6662009ae78f21dd82fcd179","666207fd0723cb029e9893bb","null","","null","","","","","","","","./tasks/HMM-beads/Images/WhiteBeadChoice.png","","","","","","","","","",""
"image-keyboard-response","357","305428","0.0-3.0-6.0-1.0-2.73","6108db64c7f625e1c1f8527f","6662009ae78f21dd82fcd179","666207fd0723cb029e9893bb","null","","null","","","","","","","","./tasks/HMM-beads/Images/WhiteBeadChoiceCorrect.png","","","","","","","","","",""
"image-keyboard-response","358","305780","0.0-3.0-6.0-1.0-0.74","6108db64c7f625e1c1f8527f","6662009ae78f21dd82fcd179","666207fd0723cb029e9893bb","348","","j","","","","","","","","./tasks/HMM-beads/Images/NewTrialWC.png","lowH","1","74","0","0","1","1","false","",""
"image-keyboard-response","359","306085","0.0-3.0-6.0-1.0-1.74","6108db64c7f625e1c1f8527f","6662009ae78f21dd82fcd179","666207fd0723cb029e9893bb","null","","null","","","","","","","","./tasks/HMM-beads/Images/WhiteBeadChoice.png","","","","","","","","","",""
"image-keyboard-response","360","306589","0.0-3.0-6.0-1.0-2.74","6108db64c7f625e1c1f8527f","6662009ae78f21dd82fcd179","666207fd0723cb029e9893bb","null","","null","","","","","","","","./tasks/HMM-beads/Images/WhiteBeadChoiceWrong.png","","","","","","","","","",""
"image-keyboard-response","361","306938","0.0-3.0-6.0-1.0-0.75","6108db64c7f625e1c1f8527f","6662009ae78f21dd82fcd179","666207fd0723cb029e9893bb","346","","j","","","","","","","","./tasks/HMM-beads/Images/NewTrialBC.png","lowH","1","75","0","1","0","1","true","",""
"image-keyboard-response","362","307241","0.0-3.0-6.0-1.0-1.75","6108db64c7f625e1c1f8527f","6662009ae78f21dd82fcd179","666207fd0723cb029e9893bb","null","","null","","","","","","","","./tasks/HMM-beads/Images/WhiteBeadChoice.png","","","","","","","","","",""
"image-keyboard-response","363","307745","0.0-3.0-6.0-1.0-2.75","6108db64c7f625e1c1f8527f","6662009ae78f21dd82fcd179","666207fd0723cb029e9893bb","null","","null","","","","","","","","./tasks/HMM-beads/Images/WhiteBeadChoiceCorrect.png","","","","","","","","","",""
"image-keyboard-response","364","308201","0.0-3.0-6.0-1.0-0.76","6108db64c7f625e1c1f8527f","6662009ae78f21dd82fcd179","666207fd0723cb029e9893bb","454","","j","","","","","","","","./tasks/HMM-beads/Images/NewTrialWC.png","lowH","1","76","0","1","1","1","true","",""
"image-keyboard-response","365","308504","0.0-3.0-6.0-1.0-1.76","6108db64c7f625e1c1f8527f","6662009ae78f21dd82fcd179","666207fd0723cb029e9893bb","null","","null","","","","","","","","./tasks/HMM-beads/Images/WhiteBeadChoice.png","","","","","","","","","",""
"image-keyboard-response","366","309008","0.0-3.0-6.0-1.0-2.76","6108db64c7f625e1c1f8527f","6662009ae78f21dd82fcd179","666207fd0723cb029e9893bb","null","","null","","","","","","","","./tasks/HMM-beads/Images/WhiteBeadChoiceCorrect.png","","","","","","","","","",""
"image-keyboard-response","367","309281","0.0-3.0-6.0-1.0-0.77","6108db64c7f625e1c1f8527f","6662009ae78f21dd82fcd179","666207fd0723cb029e9893bb","267","","j","","","","","","","","./tasks/HMM-beads/Images/NewTrialWC.png","lowH","1","77","0","0","1","1","false","",""
"image-keyboard-response","368","309584","0.0-3.0-6.0-1.0-1.77","6108db64c7f625e1c1f8527f","6662009ae78f21dd82fcd179","666207fd0723cb029e9893bb","null","","null","","","","","","","","./tasks/HMM-beads/Images/WhiteBeadChoice.png","","","","","","","","","",""
"image-keyboard-response","369","310088","0.0-3.0-6.0-1.0-2.77","6108db64c7f625e1c1f8527f","6662009ae78f21dd82fcd179","666207fd0723cb029e9893bb","null","","null","","","","","","","","./tasks/HMM-beads/Images/WhiteBeadChoiceWrong.png","","","","","","","","","",""
"image-keyboard-response","370","311022","0.0-3.0-6.0-1.0-0.78","6108db64c7f625e1c1f8527f","6662009ae78f21dd82fcd179","666207fd0723cb029e9893bb","931","","j","","","","","","","","./tasks/HMM-beads/Images/NewTrialBC.png","lowH","1","78","0","0","0","1","false","",""
"image-keyboard-response","371","311326","0.0-3.0-6.0-1.0-1.78","6108db64c7f625e1c1f8527f","6662009ae78f21dd82fcd179","666207fd0723cb029e9893bb","null","","null","","","","","","","","./tasks/HMM-beads/Images/WhiteBeadChoice.png","","","","","","","","","",""
"image-keyboard-response","372","311830","0.0-3.0-6.0-1.0-2.78","6108db64c7f625e1c1f8527f","6662009ae78f21dd82fcd179","666207fd0723cb029e9893bb","null","","null","","","","","","","","./tasks/HMM-beads/Images/WhiteBeadChoiceWrong.png","","","","","","","","","",""
"image-keyboard-response","373","313555","0.0-3.0-6.0-1.0-0.79","6108db64c7f625e1c1f8527f","6662009ae78f21dd82fcd179","666207fd0723cb029e9893bb","1723","","f","","","","","","","","./tasks/HMM-beads/Images/NewTrialBC.png","lowH","1","79","0","0","0","0","true","",""
"image-keyboard-response","374","313858","0.0-3.0-6.0-1.0-1.79","6108db64c7f625e1c1f8527f","6662009ae78f21dd82fcd179","666207fd0723cb029e9893bb","null","","null","","","","","","","","./tasks/HMM-beads/Images/BlackBeadChoice.png","","","","","","","","","",""
