"trial_type","trial_index","time_elapsed","internal_node_id","subject_id","study_id","session_id","rt","url","response","question_order","view_history","success","timeout","failed_images","failed_audio","failed_video","stimulus","block","block_rep","trial_number","jar","bead","previous_bead","choice","correct","lowH_score","total_bonus"
"pavlovia","0","1382","0.0-0.0","5f3be5b76e42ae9700e3a8af","6662009ae78f21dd82fcd179","66620a6196bb7dd754b9e5ee","","","","","","","","","","","","","","","","","","","","",""
"external-html","1","12540","0.0-1.0-0.0","5f3be5b76e42ae9700e3a8af","6662009ae78f21dd82fcd179","66620a6196bb7dd754b9e5ee","10984","new_consent.html","","","","","","","","","","","","","","","","","","",""
"survey-multi-choice","2","17280","0.0-1.0-1.0","5f3be5b76e42ae9700e3a8af","6662009ae78f21dd82fcd179","66620a6196bb7dd754b9e5ee","4738","","{""Q0"":""Male"",""Q1"":""Hispanic or Latino""}","[0,1]","","","","","","","","","","","","","","","","",""
"survey-text","3","20160","0.0-1.0-2.0","5f3be5b76e42ae9700e3a8af","6662009ae78f21dd82fcd179","66620a6196bb7dd754b9e5ee","2873","","{""Q0"":""32""}","","","","","","","","","","","","","","","","","",""
"instructions","4","22263","0.0-2.0","5f3be5b76e42ae9700e3a8af","6662009ae78f21dd82fcd179","66620a6196bb7dd754b9e5ee","1990","","","","[{""page_index"":0,""viewing_time"":1990}]","","","","","","","","","","","","","","","",""
"preload","5","26405","0.0-3.0-0.0","5f3be5b76e42ae9700e3a8af","6662009ae78f21dd82fcd179","66620a6196bb7dd754b9e5ee","","","","","","true","false","[]","[]","[]","","","","","","","","","","",""
"instructions","6","96210","0.0-3.0-1.0","5f3be5b76e42ae9700e3a8af","6662009ae78f21dd82fcd179","66620a6196bb7dd754b9e5ee","69805","","","","[{""page_index"":0,""viewing_time"":8285},{""page_index"":1,""viewing_time"":5923},{""page_index"":2,""viewing_time"":4707},{""page_index"":3,""viewing_time"":1457},{""page_index"":4,""viewing_time"":6146},{""page_index"":5,""viewing_time"":12796},{""page_index"":6,""viewing_time"":4820},{""page_index"":7,""viewing_time"":4293},{""page_index"":8,""viewing_time"":4476},{""page_index"":9,""viewing_time"":7207},{""page_index"":10,""viewing_time"":7206},{""page_index"":11,""viewing_time"":2488}]","","","","","","","","","","","","","","","",""
"html-button-response","7","99550","0.0-3.0-2.0-0.0-0.0","5f3be5b76e42ae9700e3a8af","6662009ae78f21dd82fcd179","66620a6196bb7dd754b9e5ee","3338","","1","","","","","","","","<div align=center>Your goal is to predict…?<br><br></div>","","","","","","","","","",""
"html-button-response","8","105863","0.0-3.0-2.0-1.0-0.0","5f3be5b76e42ae9700e3a8af","6662009ae78f21dd82fcd179","66620a6196bb7dd754b9e5ee","5171","","2","","","","","","","","<div align=center>In the jar with mostly white beads, there are ___% white beads and ___% black beads?<br><br></div>","","","","","","","","","",""
"html-button-response","9","114622","0.0-3.0-2.0-2.0-0.0","5f3be5b76e42ae9700e3a8af","6662009ae78f21dd82fcd179","66620a6196bb7dd754b9e5ee","7629","","0","","","","","","","","<div align=center>When there is a 1% probability that the jars will switch, the next bead will most likely be drawn from the…<br><br></div>","","","","","","","","","",""
"html-button-response","10","117156","0.0-3.0-2.0-3.0-0.0","5f3be5b76e42ae9700e3a8af","6662009ae78f21dd82fcd179","66620a6196bb7dd754b9e5ee","1564","","1","","","","","","","","<div align=center>When there is a 99% probability that the jars will switch, the next bead will most likely be drawn from the…<br><br></div>","","","","","","","","","",""
"instructions","11","124853","0.0-3.0-3.0","5f3be5b76e42ae9700e3a8af","6662009ae78f21dd82fcd179","66620a6196bb7dd754b9e5ee","6851","","","","[{""page_index"":0,""viewing_time"":6850}]","","","","","","","","","","","","","","","",""
"html-keyboard-response","12","129914","0.0-3.0-4.0-0.0","5f3be5b76e42ae9700e3a8af","6662009ae78f21dd82fcd179","66620a6196bb7dd754b9e5ee","5059",""," ","","","","","","","","<div align=center>In this practice block, there will be a <b>1% chance</b> that the jar on the next trial will be different from the jar on the current trial.<br><br></div>","","","","","","","","","",""
"image-keyboard-response","13","133624","0.0-3.0-4.0-1.0-0.0","5f3be5b76e42ae9700e3a8af","6662009ae78f21dd82fcd179","66620a6196bb7dd754b9e5ee","3709","","f","","","","","","","","./tasks/HMM-beads/Images/NoChoice.png","practice","0","0","0","0","9","0","true","",""
"image-keyboard-response","14","133933","0.0-3.0-4.0-1.0-1.0","5f3be5b76e42ae9700e3a8af","6662009ae78f21dd82fcd179","66620a6196bb7dd754b9e5ee","null","","null","","","","","","","","./tasks/HMM-beads/Images/BlackBeadChoice.png","","","","","","","","","",""
"image-keyboard-response","15","134444","0.0-3.0-4.0-1.0-2.0","5f3be5b76e42ae9700e3a8af","6662009ae78f21dd82fcd179","66620a6196bb7dd754b9e5ee","null","","null","","","","","","","","./tasks/HMM-beads/Images/BlackBeadChoiceCorrect.png","","","","","","","","","",""
"image-keyboard-response","16","136896","0.0-3.0-4.0-1.0-0.1","5f3be5b76e42ae9700e3a8af","6662009ae78f21dd82fcd179","66620a6196bb7dd754b9e5ee","2451","","f","","","","","","","","./tasks/HMM-beads/Images/NewTrialBC.png","practice","0","1","0","0","0","0","true","",""
"image-keyboard-response","17","137201","0.0-3.0-4.0-1.0-1.1","5f3be5b76e42ae9700e3a8af","6662009ae78f21dd82fcd179","66620a6196bb7dd754b9e5ee","null","","null","","","","","","","","./tasks/HMM-beads/Images/BlackBeadChoice.png","","","","","","","","","",""
"image-keyboard-response","18","137709","0.0-3.0-4.0-1.0-2.1","5f3be5b76e42ae9700e3a8af","6662009ae78f21dd82fcd179","66620a6196bb7dd754b9e5ee","null","","null","","","","","","","","./tasks/HMM-beads/Images/BlackBeadChoiceCorrect.png","","","","","","","","","",""
"image-keyboard-response","19","139164","0.0-3.0-4.0-1.0-0.2","5f3be5b76e42ae9700e3a8af","6662009ae78f21dd82fcd179","66620a6196bb7dd754b9e5ee","1454","","f","","","","","","","","./tasks/HMM-beads/Images/NewTrialBC.png","practice","0","2","0","1","0","0","false","",""
"image-keyboard-response","20","139475","0.0-3.0-4.0-1.0-1.2","5f3be5b76e42ae9700e3a8af","6662009ae78f21dd82fcd179","66620a6196bb7dd754b9e5ee","null","","null","","","","","","","","./tasks/HMM-beads/Images/BlackBeadChoice.png","","","","","","","","","",""
"image-keyboard-response","21","139983","0.0-3.0-4.0-1.0-2.2","5f3be5b76e42ae9700e3a8af","6662009ae78f21dd82fcd179","66620a6196bb7dd754b9e5ee","null","","null","","","","","","","","./tasks/HMM-beads/Images/BlackBeadChoiceWrong.png","","","","","","","","","",""
"image-keyboard-response","22","140868","0.0-3.0-4.0-1.0-0.3","5f3be5b76e42ae9700e3a8af","6662009ae78f21dd82fcd179","66620a6196bb7dd754b9e5ee","885","","f","","","","","","","","./tasks/HMM-beads/Images/NewTrialWC.png","practice","0","3","0","0","1","0","true","",""
"image-keyboard-response","23","141184","0.0-3.0-4.0-1.0-1.3","5f3be5b76e42ae9700e3a8af","6662009ae78f21dd82fcd179","66620a6196bb7dd754b9e5ee","null","","null","","","","","","","","./tasks/HMM-beads/Images/BlackBeadChoice.png","","","","","","","","","",""
"image-keyboard-response","24","141691","0.0-3.0-4.0-1.0-2.3","5f3be5b76e42ae9700e3a8af","6662009ae78f21dd82fcd179","66620a6196bb7dd754b9e5ee","null","","null","","","","","","","","./tasks/HMM-beads/Images/BlackBeadChoiceCorrect.png","","","","","","","","","",""
"image-keyboard-response","25","142367","0.0-3.0-4.0-1.0-0.4","5f3be5b76e42ae9700e3a8af","6662009ae78f21dd82fcd179","66620a6196bb7dd754b9e5ee","675","","f","","","","","","","","./tasks/HMM-beads/Images/NewTrialBC.png","practice","0","4","0","0","0","0","true","",""
"image-keyboard-response","26","142678","0.0-3.0-4.0-1.0-1.4","5f3be5b76e42ae9700e3a8af","6662009ae78f21dd82fcd179","66620a6196bb7dd754b9e5ee","null","","null","","","","","","","","./tasks/HMM-beads/Images/BlackBeadChoice.png","","","","","","","","","",""
"image-keyboard-response","27","143187","0.0-3.0-4.0-1.0-2.4","5f3be5b76e42ae9700e3a8af","6662009ae78f21dd82fcd179","66620a6196bb7dd754b9e5ee","null","","null","","","","","","","","./tasks/HMM-beads/Images/BlackBeadChoiceCorrect.png","","","","","","","","","",""
"image-keyboard-response","28","143643","0.0-3.0-4.0-1.0-0.5","5f3be5b76e42ae9700e3a8af","6662009ae78f21dd82fcd179","66620a6196bb7dd754b9e5ee","455","","f","","","","","","","","./tasks/HMM-beads/Images/NewTrialBC.png","practice","0","5","0","1","0","0","false","",""
"image-keyboard-response","29","143957","0.0-3.0-4.0-1.0-1.5","5f3be5b76e42ae9700e3a8af","6662009ae78f21dd82fcd179","66620a6196bb7dd754b9e5ee","null","","null","","","","","","","","./tasks/HMM-beads/Images/BlackBeadChoice.png","","","","","","","","","",""
"image-keyboard-response","30","144464","0.0-3.0-4.0-1.0-2.5","5f3be5b76e42ae9700e3a8af","6662009ae78f21dd82fcd179","66620a6196bb7dd754b9e5ee","null","","null","","","","","","","","./tasks/HMM-beads/Images/BlackBeadChoiceWrong.png","","","","","","","","","",""
"image-keyboard-response","31","145275","0.0-3.0-4.0-1.0-0.6","5f3be5b76e42ae9700e3a8af","6662009ae78f21dd82fcd179","66620a6196bb7dd754b9e5ee","810","","f","","","","","","","","./tasks/HMM-beads/Images/NewTrialWC.png","practice","0","6","0","0","1","0","true","",""
"image-keyboard-response","32","145588","0.0-3.0-4.0-1.0-1.6","5f3be5b76e42ae9700e3a8af","6662009ae78f21dd82fcd179","66620a6196bb7dd754b9e5ee","null","","null","","","","","","","","./tasks/HMM-beads/Images/BlackBeadChoice.png","","","","","","","","","",""
"image-keyboard-response","33","146096","0.0-3.0-4.0-1.0-2.6","5f3be5b76e42ae9700e3a8af","6662009ae78f21dd82fcd179","66620a6196bb7dd754b9e5ee","null","","null","","","","","","","","./tasks/HMM-beads/Images/BlackBeadChoiceCorrect.png","","","","","","","","","",""
"image-keyboard-response","34","146447","0.0-3.0-4.0-1.0-0.7","5f3be5b76e42ae9700e3a8af","6662009ae78f21dd82fcd179","66620a6196bb7dd754b9e5ee","350","","f","","","","","","","","./tasks/HMM-beads/Images/NewTrialBC.png","practice","0","7","0","0","0","0","true","",""
"image-keyboard-response","35","146757","0.0-3.0-4.0-1.0-1.7","5f3be5b76e42ae9700e3a8af","6662009ae78f21dd82fcd179","66620a6196bb7dd754b9e5ee","null","","null","","","","","","","","./tasks/HMM-beads/Images/BlackBeadChoice.png","","","","","","","","","",""
"image-keyboard-response","36","147263","0.0-3.0-4.0-1.0-2.7","5f3be5b76e42ae9700e3a8af","6662009ae78f21dd82fcd179","66620a6196bb7dd754b9e5ee","null","","null","","","","","","","","./tasks/HMM-beads/Images/BlackBeadChoiceCorrect.png","","","","","","","","","",""
"image-keyboard-response","37","147425","0.0-3.0-4.0-1.0-0.8","5f3be5b76e42ae9700e3a8af","6662009ae78f21dd82fcd179","66620a6196bb7dd754b9e5ee","161","","f","","","","","","","","./tasks/HMM-beads/Images/NewTrialBC.png","practice","0","8","0","0","0","0","true","",""
"image-keyboard-response","38","147740","0.0-3.0-4.0-1.0-1.8","5f3be5b76e42ae9700e3a8af","6662009ae78f21dd82fcd179","66620a6196bb7dd754b9e5ee","null","","null","","","","","","","","./tasks/HMM-beads/Images/BlackBeadChoice.png","","","","","","","","","",""
"image-keyboard-response","39","148249","0.0-3.0-4.0-1.0-2.8","5f3be5b76e42ae9700e3a8af","6662009ae78f21dd82fcd179","66620a6196bb7dd754b9e5ee","null","","null","","","","","","","","./tasks/HMM-beads/Images/BlackBeadChoiceCorrect.png","","","","","","","","","",""
"image-keyboard-response","40","148637","0.0-3.0-4.0-1.0-0.9","5f3be5b76e42ae9700e3a8af","6662009ae78f21dd82fcd179","66620a6196bb7dd754b9e5ee","388","","f","","","","","","","","./tasks/HMM-beads/Images/NewTrialBC.png","practice","0","9","0","1","0","0","false","",""
"image-keyboard-response","41","148943","0.0-3.0-4.0-1.0-1.9","5f3be5b76e42ae9700e3a8af","6662009ae78f21dd82fcd179","66620a6196bb7dd754b9e5ee","null","","null","","","","","","","","./tasks/HMM-beads/Images/BlackBeadChoice.png","","","","","","","","","",""
"image-keyboard-response","42","149452","0.0-3.0-4.0-1.0-2.9","5f3be5b76e42ae9700e3a8af","6662009ae78f21dd82fcd179","66620a6196bb7dd754b9e5ee","null","","null","","","","","","","","./tasks/HMM-beads/Images/BlackBeadChoiceWrong.png","","","","","","","","","",""
"image-keyboard-response","43","149610","0.0-3.0-4.0-1.0-0.10","5f3be5b76e42ae9700e3a8af","6662009ae78f21dd82fcd179","66620a6196bb7dd754b9e5ee","157","","f","","","","","","","","./tasks/HMM-beads/Images/NewTrialWC.png","practice","0","10","0","0","1","0","true","",""
"image-keyboard-response","44","149912","0.0-3.0-4.0-1.0-1.10","5f3be5b76e42ae9700e3a8af","6662009ae78f21dd82fcd179","66620a6196bb7dd754b9e5ee","null","","null","","","","","","","","./tasks/HMM-beads/Images/BlackBeadChoice.png","","","","","","","","","",""
"image-keyboard-response","45","150420","0.0-3.0-4.0-1.0-2.10","5f3be5b76e42ae9700e3a8af","6662009ae78f21dd82fcd179","66620a6196bb7dd754b9e5ee","null","","null","","","","","","","","./tasks/HMM-beads/Images/BlackBeadChoiceCorrect.png","","","","","","","","","",""
"image-keyboard-response","46","150505","0.0-3.0-4.0-1.0-0.11","5f3be5b76e42ae9700e3a8af","6662009ae78f21dd82fcd179","66620a6196bb7dd754b9e5ee","84","","f","","","","","","","","./tasks/HMM-beads/Images/NewTrialBC.png","practice","0","11","0","1","0","0","false","",""
"image-keyboard-response","47","150820","0.0-3.0-4.0-1.0-1.11","5f3be5b76e42ae9700e3a8af","6662009ae78f21dd82fcd179","66620a6196bb7dd754b9e5ee","null","","null","","","","","","","","./tasks/HMM-beads/Images/BlackBeadChoice.png","","","","","","","","","",""
"image-keyboard-response","48","151329","0.0-3.0-4.0-1.0-2.11","5f3be5b76e42ae9700e3a8af","6662009ae78f21dd82fcd179","66620a6196bb7dd754b9e5ee","null","","null","","","","","","","","./tasks/HMM-beads/Images/BlackBeadChoiceWrong.png","","","","","","","","","",""
"image-keyboard-response","49","151685","0.0-3.0-4.0-1.0-0.12","5f3be5b76e42ae9700e3a8af","6662009ae78f21dd82fcd179","66620a6196bb7dd754b9e5ee","355","","f","","","","","","","","./tasks/HMM-beads/Images/NewTrialWC.png","practice","0","12","0","0","1","0","true","",""
"image-keyboard-response","50","151992","0.0-3.0-4.0-1.0-1.12","5f3be5b76e42ae9700e3a8af","6662009ae78f21dd82fcd179","66620a6196bb7dd754b9e5ee","null","","null","","","","","","","","./tasks/HMM-beads/Images/BlackBeadChoice.png","","","","","","","","","",""
"image-keyboard-response","51","152500","0.0-3.0-4.0-1.0-2.12","5f3be5b76e42ae9700e3a8af","6662009ae78f21dd82fcd179","66620a6196bb7dd754b9e5ee","null","","null","","","","","","","","./tasks/HMM-beads/Images/BlackBeadChoiceCorrect.png","","","","","","","","","",""
"image-keyboard-response","52","152641","0.0-3.0-4.0-1.0-0.13","5f3be5b76e42ae9700e3a8af","6662009ae78f21dd82fcd179","66620a6196bb7dd754b9e5ee","140","","f","","","","","","","","./tasks/HMM-beads/Images/NewTrialBC.png","practice","0","13","0","0","0","0","true","",""
"image-keyboard-response","53","152946","0.0-3.0-4.0-1.0-1.13","5f3be5b76e42ae9700e3a8af","6662009ae78f21dd82fcd179","66620a6196bb7dd754b9e5ee","null","","null","","","","","","","","./tasks/HMM-beads/Images/BlackBeadChoice.png","","","","","","","","","",""
"image-keyboard-response","54","153452","0.0-3.0-4.0-1.0-2.13","5f3be5b76e42ae9700e3a8af","6662009ae78f21dd82fcd179","66620a6196bb7dd754b9e5ee","null","","null","","","","","","","","./tasks/HMM-beads/Images/BlackBeadChoiceCorrect.png","","","","","","","","","",""
"image-keyboard-response","55","153673","0.0-3.0-4.0-1.0-0.14","5f3be5b76e42ae9700e3a8af","6662009ae78f21dd82fcd179","66620a6196bb7dd754b9e5ee","220","","f","","","","","","","","./tasks/HMM-beads/Images/NewTrialBC.png","practice","0","14","0","0","0","0","true","",""
"image-keyboard-response","56","153975","0.0-3.0-4.0-1.0-1.14","5f3be5b76e42ae9700e3a8af","6662009ae78f21dd82fcd179","66620a6196bb7dd754b9e5ee","null","","null","","","","","","","","./tasks/HMM-beads/Images/BlackBeadChoice.png","","","","","","","","","",""
"image-keyboard-response","57","154483","0.0-3.0-4.0-1.0-2.14","5f3be5b76e42ae9700e3a8af","6662009ae78f21dd82fcd179","66620a6196bb7dd754b9e5ee","null","","null","","","","","","","","./tasks/HMM-beads/Images/BlackBeadChoiceCorrect.png","","","","","","","","","",""
"image-keyboard-response","58","154601","0.0-3.0-4.0-1.0-0.15","5f3be5b76e42ae9700e3a8af","6662009ae78f21dd82fcd179","66620a6196bb7dd754b9e5ee","117","","f","","","","","","","","./tasks/HMM-beads/Images/NewTrialBC.png","practice","0","15","0","0","0","0","true","",""
"image-keyboard-response","59","154914","0.0-3.0-4.0-1.0-1.15","5f3be5b76e42ae9700e3a8af","6662009ae78f21dd82fcd179","66620a6196bb7dd754b9e5ee","null","","null","","","","","","","","./tasks/HMM-beads/Images/BlackBeadChoice.png","","","","","","","","","",""
"image-keyboard-response","60","155421","0.0-3.0-4.0-1.0-2.15","5f3be5b76e42ae9700e3a8af","6662009ae78f21dd82fcd179","66620a6196bb7dd754b9e5ee","null","","null","","","","","","","","./tasks/HMM-beads/Images/BlackBeadChoiceCorrect.png","","","","","","","","","",""
"image-keyboard-response","61","155569","0.0-3.0-4.0-1.0-0.16","5f3be5b76e42ae9700e3a8af","6662009ae78f21dd82fcd179","66620a6196bb7dd754b9e5ee","147","","f","","","","","","","","./tasks/HMM-beads/Images/NewTrialBC.png","practice","0","16","0","0","0","0","true","",""
"image-keyboard-response","62","155883","0.0-3.0-4.0-1.0-1.16","5f3be5b76e42ae9700e3a8af","6662009ae78f21dd82fcd179","66620a6196bb7dd754b9e5ee","null","","null","","","","","","","","./tasks/HMM-beads/Images/BlackBeadChoice.png","","","","","","","","","",""
"image-keyboard-response","63","156391","0.0-3.0-4.0-1.0-2.16","5f3be5b76e42ae9700e3a8af","6662009ae78f21dd82fcd179","66620a6196bb7dd754b9e5ee","null","","null","","","","","","","","./tasks/HMM-beads/Images/BlackBeadChoiceCorrect.png","","","","","","","","","",""
"image-keyboard-response","64","156577","0.0-3.0-4.0-1.0-0.17","5f3be5b76e42ae9700e3a8af","6662009ae78f21dd82fcd179","66620a6196bb7dd754b9e5ee","184","","f","","","","","","","","./tasks/HMM-beads/Images/NewTrialBC.png","practice","0","17","0","0","0","0","true","",""
"image-keyboard-response","65","156883","0.0-3.0-4.0-1.0-1.17","5f3be5b76e42ae9700e3a8af","6662009ae78f21dd82fcd179","66620a6196bb7dd754b9e5ee","null","","null","","","","","","","","./tasks/HMM-beads/Images/BlackBeadChoice.png","","","","","","","","","",""
"image-keyboard-response","66","157392","0.0-3.0-4.0-1.0-2.17","5f3be5b76e42ae9700e3a8af","6662009ae78f21dd82fcd179","66620a6196bb7dd754b9e5ee","null","","null","","","","","","","","./tasks/HMM-beads/Images/BlackBeadChoiceCorrect.png","","","","","","","","","",""
"image-keyboard-response","67","157505","0.0-3.0-4.0-1.0-0.18","5f3be5b76e42ae9700e3a8af","6662009ae78f21dd82fcd179","66620a6196bb7dd754b9e5ee","112","","f","","","","","","","","./tasks/HMM-beads/Images/NewTrialBC.png","practice","0","18","0","1","0","0","false","",""
"image-keyboard-response","68","157807","0.0-3.0-4.0-1.0-1.18","5f3be5b76e42ae9700e3a8af","6662009ae78f21dd82fcd179","66620a6196bb7dd754b9e5ee","null","","null","","","","","","","","./tasks/HMM-beads/Images/BlackBeadChoice.png","","","","","","","","","",""
"image-keyboard-response","69","158314","0.0-3.0-4.0-1.0-2.18","5f3be5b76e42ae9700e3a8af","6662009ae78f21dd82fcd179","66620a6196bb7dd754b9e5ee","null","","null","","","","","","","","./tasks/HMM-beads/Images/BlackBeadChoiceWrong.png","","","","","","","","","",""
"image-keyboard-response","70","158585","0.0-3.0-4.0-1.0-0.19","5f3be5b76e42ae9700e3a8af","6662009ae78f21dd82fcd179","66620a6196bb7dd754b9e5ee","270","","f","","","","","","","","./tasks/HMM-beads/Images/NewTrialWC.png","practice","0","19","0","0","1","0","true","",""
"image-keyboard-response","71","158897","0.0-3.0-4.0-1.0-1.19","5f3be5b76e42ae9700e3a8af","6662009ae78f21dd82fcd179","66620a6196bb7dd754b9e5ee","null","","null","","","","","","","","./tasks/HMM-beads/Images/BlackBeadChoice.png","","","","","","","","","",""
"image-keyboard-response","72","159405","0.0-3.0-4.0-1.0-2.19","5f3be5b76e42ae9700e3a8af","6662009ae78f21dd82fcd179","66620a6196bb7dd754b9e5ee","null","","null","","","","","","","","./tasks/HMM-beads/Images/BlackBeadChoiceCorrect.png","","","","","","","","","",""
"image-keyboard-response","73","159569","0.0-3.0-4.0-1.0-0.20","5f3be5b76e42ae9700e3a8af","6662009ae78f21dd82fcd179","66620a6196bb7dd754b9e5ee","163","","f","","","","","","","","./tasks/HMM-beads/Images/NewTrialBC.png","practice","0","20","0","0","0","0","true","",""
"image-keyboard-response","74","159883","0.0-3.0-4.0-1.0-1.20","5f3be5b76e42ae9700e3a8af","6662009ae78f21dd82fcd179","66620a6196bb7dd754b9e5ee","null","","null","","","","","","","","./tasks/HMM-beads/Images/BlackBeadChoice.png","","","","","","","","","",""
"image-keyboard-response","75","160390","0.0-3.0-4.0-1.0-2.20","5f3be5b76e42ae9700e3a8af","6662009ae78f21dd82fcd179","66620a6196bb7dd754b9e5ee","null","","null","","","","","","","","./tasks/HMM-beads/Images/BlackBeadChoiceCorrect.png","","","","","","","","","",""
"image-keyboard-response","76","160574","0.0-3.0-4.0-1.0-0.21","5f3be5b76e42ae9700e3a8af","6662009ae78f21dd82fcd179","66620a6196bb7dd754b9e5ee","183","","f","","","","","","","","./tasks/HMM-beads/Images/NewTrialBC.png","practice","0","21","0","1","0","0","false","",""
"image-keyboard-response","77","160884","0.0-3.0-4.0-1.0-1.21","5f3be5b76e42ae9700e3a8af","6662009ae78f21dd82fcd179","66620a6196bb7dd754b9e5ee","null","","null","","","","","","","","./tasks/HMM-beads/Images/BlackBeadChoice.png","","","","","","","","","",""
"image-keyboard-response","78","161392","0.0-3.0-4.0-1.0-2.21","5f3be5b76e42ae9700e3a8af","6662009ae78f21dd82fcd179","66620a6196bb7dd754b9e5ee","null","","null","","","","","","","","./tasks/HMM-beads/Images/BlackBeadChoiceWrong.png","","","","","","","","","",""
"image-keyboard-response","79","161513","0.0-3.0-4.0-1.0-0.22","5f3be5b76e42ae9700e3a8af","6662009ae78f21dd82fcd179","66620a6196bb7dd754b9e5ee","120","","f","","","","","","","","./tasks/HMM-beads/Images/NewTrialWC.png","practice","0","22","1","1","1","0","false","",""
"image-keyboard-response","80","161824","0.0-3.0-4.0-1.0-1.22","5f3be5b76e42ae9700e3a8af","6662009ae78f21dd82fcd179","66620a6196bb7dd754b9e5ee","null","","null","","","","","","","","./tasks/HMM-beads/Images/BlackBeadChoice.png","","","","","","","","","",""
"image-keyboard-response","81","162331","0.0-3.0-4.0-1.0-2.22","5f3be5b76e42ae9700e3a8af","6662009ae78f21dd82fcd179","66620a6196bb7dd754b9e5ee","null","","null","","","","","","","","./tasks/HMM-beads/Images/BlackBeadChoiceWrong.png","","","","","","","","","",""
"image-keyboard-response","82","162461","0.0-3.0-4.0-1.0-0.23","5f3be5b76e42ae9700e3a8af","6662009ae78f21dd82fcd179","66620a6196bb7dd754b9e5ee","129","","f","","","","","","","","./tasks/HMM-beads/Images/NewTrialWC.png","practice","0","23","1","0","1","0","true","",""
"image-keyboard-response","83","162776","0.0-3.0-4.0-1.0-1.23","5f3be5b76e42ae9700e3a8af","6662009ae78f21dd82fcd179","66620a6196bb7dd754b9e5ee","null","","null","","","","","","","","./tasks/HMM-beads/Images/BlackBeadChoice.png","","","","","","","","","",""
"image-keyboard-response","84","163286","0.0-3.0-4.0-1.0-2.23","5f3be5b76e42ae9700e3a8af","6662009ae78f21dd82fcd179","66620a6196bb7dd754b9e5ee","null","","null","","","","","","","","./tasks/HMM-beads/Images/BlackBeadChoiceCorrect.png","","","","","","","","","",""
"image-keyboard-response","85","163445","0.0-3.0-4.0-1.0-0.24","5f3be5b76e42ae9700e3a8af","6662009ae78f21dd82fcd179","66620a6196bb7dd754b9e5ee","158","","f","","","","","","","","./tasks/HMM-beads/Images/NewTrialBC.png","practice","0","24","1","1","0","0","false","",""
"image-keyboard-response","86","163747","0.0-3.0-4.0-1.0-1.24","5f3be5b76e42ae9700e3a8af","6662009ae78f21dd82fcd179","66620a6196bb7dd754b9e5ee","null","","null","","","","","","","","./tasks/HMM-beads/Images/BlackBeadChoice.png","","","","","","","","","",""
"image-keyboard-response","87","164254","0.0-3.0-4.0-1.0-2.24","5f3be5b76e42ae9700e3a8af","6662009ae78f21dd82fcd179","66620a6196bb7dd754b9e5ee","null","","null","","","","","","","","./tasks/HMM-beads/Images/BlackBeadChoiceWrong.png","","","","","","","","","",""
"image-keyboard-response","88","164548","0.0-3.0-4.0-1.0-0.25","5f3be5b76e42ae9700e3a8af","6662009ae78f21dd82fcd179","66620a6196bb7dd754b9e5ee","293","","j","","","","","","","","./tasks/HMM-beads/Images/NewTrialWC.png","practice","0","25","1","1","1","1","true","",""
"image-keyboard-response","89","164857","0.0-3.0-4.0-1.0-1.25","5f3be5b76e42ae9700e3a8af","6662009ae78f21dd82fcd179","66620a6196bb7dd754b9e5ee","null","","null","","","","","","","","./tasks/HMM-beads/Images/WhiteBeadChoice.png","","","","","","","","","",""
"image-keyboard-response","90","165364","0.0-3.0-4.0-1.0-2.25","5f3be5b76e42ae9700e3a8af","6662009ae78f21dd82fcd179","66620a6196bb7dd754b9e5ee","null","","null","","","","","","","","./tasks/HMM-beads/Images/WhiteBeadChoiceCorrect.png","","","","","","","","","",""
"image-keyboard-response","91","165529","0.0-3.0-4.0-1.0-0.26","5f3be5b76e42ae9700e3a8af","6662009ae78f21dd82fcd179","66620a6196bb7dd754b9e5ee","164","","j","","","","","","","","./tasks/HMM-beads/Images/NewTrialWC.png","practice","0","26","1","1","1","1","true","",""
"image-keyboard-response","92","165841","0.0-3.0-4.0-1.0-1.26","5f3be5b76e42ae9700e3a8af","6662009ae78f21dd82fcd179","66620a6196bb7dd754b9e5ee","null","","null","","","","","","","","./tasks/HMM-beads/Images/WhiteBeadChoice.png","","","","","","","","","",""
"image-keyboard-response","93","166350","0.0-3.0-4.0-1.0-2.26","5f3be5b76e42ae9700e3a8af","6662009ae78f21dd82fcd179","66620a6196bb7dd754b9e5ee","null","","null","","","","","","","","./tasks/HMM-beads/Images/WhiteBeadChoiceCorrect.png","","","","","","","","","",""
"image-keyboard-response","94","166576","0.0-3.0-4.0-1.0-0.27","5f3be5b76e42ae9700e3a8af","6662009ae78f21dd82fcd179","66620a6196bb7dd754b9e5ee","225","","j","","","","","","","","./tasks/HMM-beads/Images/NewTrialWC.png","practice","0","27","1","1","1","1","true","",""
"image-keyboard-response","95","166891","0.0-3.0-4.0-1.0-1.27","5f3be5b76e42ae9700e3a8af","6662009ae78f21dd82fcd179","66620a6196bb7dd754b9e5ee","null","","null","","","","","","","","./tasks/HMM-beads/Images/WhiteBeadChoice.png","","","","","","","","","",""
"image-keyboard-response","96","167399","0.0-3.0-4.0-1.0-2.27","5f3be5b76e42ae9700e3a8af","6662009ae78f21dd82fcd179","66620a6196bb7dd754b9e5ee","null","","null","","","","","","","","./tasks/HMM-beads/Images/WhiteBeadChoiceCorrect.png","","","","","","","","","",""
"image-keyboard-response","97","167629","0.0-3.0-4.0-1.0-0.28","5f3be5b76e42ae9700e3a8af","6662009ae78f21dd82fcd179","66620a6196bb7dd754b9e5ee","229","","j","","","","","","","","./tasks/HMM-beads/Images/NewTrialWC.png","practice","0","28","1","0","1","1","false","",""
"image-keyboard-response","98","167938","0.0-3.0-4.0-1.0-1.28","5f3be5b76e42ae9700e3a8af","6662009ae78f21dd82fcd179","66620a6196bb7dd754b9e5ee","null","","null","","","","","","","","./tasks/HMM-beads/Images/WhiteBeadChoice.png","","","","","","","","","",""
"image-keyboard-response","99","168444","0.0-3.0-4.0-1.0-2.28","5f3be5b76e42ae9700e3a8af","6662009ae78f21dd82fcd179","66620a6196bb7dd754b9e5ee","null","","null","","","","","","","","./tasks/HMM-beads/Images/WhiteBeadChoiceWrong.png","","","","","","","","","",""
"image-keyboard-response","100","168719","0.0-3.0-4.0-1.0-0.29","5f3be5b76e42ae9700e3a8af","6662009ae78f21dd82fcd179","66620a6196bb7dd754b9e5ee","274","","j","","","","","","","","./tasks/HMM-beads/Images/NewTrialBC.png","practice","0","29","1","1","0","1","true","",""
"image-keyboard-response","101","169030","0.0-3.0-4.0-1.0-1.29","5f3be5b76e42ae9700e3a8af","6662009ae78f21dd82fcd179","66620a6196bb7dd754b9e5ee","null","","null","","","","","","","","./tasks/HMM-beads/Images/WhiteBeadChoice.png","","","","","","","","","",""
"image-keyboard-response","102","169538","0.0-3.0-4.0-1.0-2.29","5f3be5b76e42ae9700e3a8af","6662009ae78f21dd82fcd179","66620a6196bb7dd754b9e5ee","null","","null","","","","","","","","./tasks/HMM-beads/Images/WhiteBeadChoiceCorrect.png","","","","","","","","","",""
"image-keyboard-response","103","169791","0.0-3.0-4.0-1.0-0.30","5f3be5b76e42ae9700e3a8af","6662009ae78f21dd82fcd179","66620a6196bb7dd754b9e5ee","252","","j","","","","","","","","./tasks/HMM-beads/Images/NewTrialWC.png","practice","0","30","1","0","1","1","false","",""
"image-keyboard-response","104","170093","0.0-3.0-4.0-1.0-1.30","5f3be5b76e42ae9700e3a8af","6662009ae78f21dd82fcd179","66620a6196bb7dd754b9e5ee","null","","null","","","","","","","","./tasks/HMM-beads/Images/WhiteBeadChoice.png","","","","","","","","","",""
"image-keyboard-response","105","170599","0.0-3.0-4.0-1.0-2.30","5f3be5b76e42ae9700e3a8af","6662009ae78f21dd82fcd179","66620a6196bb7dd754b9e5ee","null","","null","","","","","","","","./tasks/HMM-beads/Images/WhiteBeadChoiceWrong.png","","","","","","","","","",""
"image-keyboard-response","106","170844","0.0-3.0-4.0-1.0-0.31","5f3be5b76e42ae9700e3a8af","6662009ae78f21dd82fcd179","66620a6196bb7dd754b9e5ee","245","","j","","","","","","","","./tasks/HMM-beads/Images/NewTrialBC.png","practice","0","31","1","1","0","1","true","",""
"image-keyboard-response","107","171152","0.0-3.0-4.0-1.0-1.31","5f3be5b76e42ae9700e3a8af","6662009ae78f21dd82fcd179","66620a6196bb7dd754b9e5ee","null","","null","","","","","","","","./tasks/HMM-beads/Images/WhiteBeadChoice.png","","","","","","","","","",""
"image-keyboard-response","108","171660","0.0-3.0-4.0-1.0-2.31","5f3be5b76e42ae9700e3a8af","6662009ae78f21dd82fcd179","66620a6196bb7dd754b9e5ee","null","","null","","","","","","","","./tasks/HMM-beads/Images/WhiteBeadChoiceCorrect.png","","","","","","","","","",""
"image-keyboard-response","109","171887","0.0-3.0-4.0-1.0-0.32","5f3be5b76e42ae9700e3a8af","6662009ae78f21dd82fcd179","66620a6196bb7dd754b9e5ee","226","","j","","","","","","","","./tasks/HMM-beads/Images/NewTrialWC.png","practice","0","32","1","1","1","1","true","",""
"image-keyboard-response","110","172199","0.0-3.0-4.0-1.0-1.32","5f3be5b76e42ae9700e3a8af","6662009ae78f21dd82fcd179","66620a6196bb7dd754b9e5ee","null","","null","","","","","","","","./tasks/HMM-beads/Images/WhiteBeadChoice.png","","","","","","","","","",""
"image-keyboard-response","111","172706","0.0-3.0-4.0-1.0-2.32","5f3be5b76e42ae9700e3a8af","6662009ae78f21dd82fcd179","66620a6196bb7dd754b9e5ee","null","","null","","","","","","","","./tasks/HMM-beads/Images/WhiteBeadChoiceCorrect.png","","","","","","","","","",""
"image-keyboard-response","112","172887","0.0-3.0-4.0-1.0-0.33","5f3be5b76e42ae9700e3a8af","6662009ae78f21dd82fcd179","66620a6196bb7dd754b9e5ee","180","","j","","","","","","","","./tasks/HMM-beads/Images/NewTrialWC.png","practice","0","33","1","1","1","1","true","",""
"image-keyboard-response","113","173199","0.0-3.0-4.0-1.0-1.33","5f3be5b76e42ae9700e3a8af","6662009ae78f21dd82fcd179","66620a6196bb7dd754b9e5ee","null","","null","","","","","","","","./tasks/HMM-beads/Images/WhiteBeadChoice.png","","","","","","","","","",""
"image-keyboard-response","114","173705","0.0-3.0-4.0-1.0-2.33","5f3be5b76e42ae9700e3a8af","6662009ae78f21dd82fcd179","66620a6196bb7dd754b9e5ee","null","","null","","","","","","","","./tasks/HMM-beads/Images/WhiteBeadChoiceCorrect.png","","","","","","","","","",""
"image-keyboard-response","115","173819","0.0-3.0-4.0-1.0-0.34","5f3be5b76e42ae9700e3a8af","6662009ae78f21dd82fcd179","66620a6196bb7dd754b9e5ee","113","","j","","","","","","","","./tasks/HMM-beads/Images/NewTrialWC.png","practice","0","34","1","1","1","1","true","",""
"image-keyboard-response","116","174121","0.0-3.0-4.0-1.0-1.34","5f3be5b76e42ae9700e3a8af","6662009ae78f21dd82fcd179","66620a6196bb7dd754b9e5ee","null","","null","","","","","","","","./tasks/HMM-beads/Images/WhiteBeadChoice.png","","","","","","","","","",""
"image-keyboard-response","117","174629","0.0-3.0-4.0-1.0-2.34","5f3be5b76e42ae9700e3a8af","6662009ae78f21dd82fcd179","66620a6196bb7dd754b9e5ee","null","","null","","","","","","","","./tasks/HMM-beads/Images/WhiteBeadChoiceCorrect.png","","","","","","","","","",""
"image-keyboard-response","118","174803","0.0-3.0-4.0-1.0-0.35","5f3be5b76e42ae9700e3a8af","6662009ae78f21dd82fcd179","66620a6196bb7dd754b9e5ee","173","","j","","","","","","","","./tasks/HMM-beads/Images/NewTrialWC.png","practice","0","35","1","1","1","1","true","",""
"image-keyboard-response","119","175105","0.0-3.0-4.0-1.0-1.35","5f3be5b76e42ae9700e3a8af","6662009ae78f21dd82fcd179","66620a6196bb7dd754b9e5ee","null","","null","","","","","","","","./tasks/HMM-beads/Images/WhiteBeadChoice.png","","","","","","","","","",""
"image-keyboard-response","120","175613","0.0-3.0-4.0-1.0-2.35","5f3be5b76e42ae9700e3a8af","6662009ae78f21dd82fcd179","66620a6196bb7dd754b9e5ee","null","","null","","","","","","","","./tasks/HMM-beads/Images/WhiteBeadChoiceCorrect.png","","","","","","","","","",""
"image-keyboard-response","121","175839","0.0-3.0-4.0-1.0-0.36","5f3be5b76e42ae9700e3a8af","6662009ae78f21dd82fcd179","66620a6196bb7dd754b9e5ee","225","","j","","","","","","","","./tasks/HMM-beads/Images/NewTrialWC.png","practice","0","36","1","0","1","1","false","",""
"image-keyboard-response","122","176150","0.0-3.0-4.0-1.0-1.36","5f3be5b76e42ae9700e3a8af","6662009ae78f21dd82fcd179","66620a6196bb7dd754b9e5ee","null","","null","","","","","","","","./tasks/HMM-beads/Images/WhiteBeadChoice.png","","","","","","","","","",""
"image-keyboard-response","123","176658","0.0-3.0-4.0-1.0-2.36","5f3be5b76e42ae9700e3a8af","6662009ae78f21dd82fcd179","66620a6196bb7dd754b9e5ee","null","","null","","","","","","","","./tasks/HMM-beads/Images/WhiteBeadChoiceWrong.png","","","","","","","","","",""
"image-keyboard-response","124","176871","0.0-3.0-4.0-1.0-0.37","5f3be5b76e42ae9700e3a8af","6662009ae78f21dd82fcd179","66620a6196bb7dd754b9e5ee","212","","j","","","","","","","","./tasks/HMM-beads/Images/NewTrialBC.png","practice","0","37","1","1","0","1","true","",""
"image-keyboard-response","125","177183","0.0-3.0-4.0-1.0-1.37","5f3be5b76e42ae9700e3a8af","6662009ae78f21dd82fcd179","66620a6196bb7dd754b9e5ee","null","","null","","","","","","","","./tasks/HMM-beads/Images/WhiteBeadChoice.png","","","","","","","","","",""
"image-keyboard-response","126","177691","0.0-3.0-4.0-1.0-2.37","5f3be5b76e42ae9700e3a8af","6662009ae78f21dd82fcd179","66620a6196bb7dd754b9e5ee","null","","null","","","","","","","","./tasks/HMM-beads/Images/WhiteBeadChoiceCorrect.png","","","","","","","","","",""
"image-keyboard-response","127","177863","0.0-3.0-4.0-1.0-0.38","5f3be5b76e42ae9700e3a8af","6662009ae78f21dd82fcd179","66620a6196bb7dd754b9e5ee","171","","j","","","","","","","","./tasks/HMM-beads/Images/NewTrialWC.png","practice","0","38","1","1","1","1","true","",""
"image-keyboard-response","128","178169","0.0-3.0-4.0-1.0-1.38","5f3be5b76e42ae9700e3a8af","6662009ae78f21dd82fcd179","66620a6196bb7dd754b9e5ee","null","","null","","","","","","","","./tasks/HMM-beads/Images/WhiteBeadChoice.png","","","","","","","","","",""
"image-keyboard-response","129","178676","0.0-3.0-4.0-1.0-2.38","5f3be5b76e42ae9700e3a8af","6662009ae78f21dd82fcd179","66620a6196bb7dd754b9e5ee","null","","null","","","","","","","","./tasks/HMM-beads/Images/WhiteBeadChoiceCorrect.png","","","","","","","","","",""
"image-keyboard-response","130","178947","0.0-3.0-4.0-1.0-0.39","5f3be5b76e42ae9700e3a8af","6662009ae78f21dd82fcd179","66620a6196bb7dd754b9e5ee","270","","j","","","","","","","","./tasks/HMM-beads/Images/NewTrialWC.png","practice","0","39","1","1","1","1","true","",""
"image-keyboard-response","131","179261","0.0-3.0-4.0-1.0-1.39","5f3be5b76e42ae9700e3a8af","6662009ae78f21dd82fcd179","66620a6196bb7dd754b9e5ee","null","","null","","","","","","","","./tasks/HMM-beads/Images/WhiteBeadChoice.png","","","","","","","","","",""
"image-keyboard-response","132","179769","0.0-3.0-4.0-1.0-2.39","5f3be5b76e42ae9700e3a8af","6662009ae78f21dd82fcd179","66620a6196bb7dd754b9e5ee","null","","null","","","","","","","","./tasks/HMM-beads/Images/WhiteBeadChoiceCorrect.png","","","","","","","","","",""
"html-keyboard-response","133","182003","0.0-3.0-4.0-2.0","5f3be5b76e42ae9700e3a8af","6662009ae78f21dd82fcd179","66620a6196bb7dd754b9e5ee","2232",""," ","","","","","","","","","","","","","","","","","",""
"instructions","134","190611","0.0-3.0-5.0","5f3be5b76e42ae9700e3a8af","6662009ae78f21dd82fcd179","66620a6196bb7dd754b9e5ee","8608","","","","[{""page_index"":0,""viewing_time"":6654},{""page_index"":1,""viewing_time"":1954}]","","","","","","","","","","","","","","","",""
"html-keyboard-response","135","192524","0.0-3.0-6.0-0.0","5f3be5b76e42ae9700e3a8af","6662009ae78f21dd82fcd179","66620a6196bb7dd754b9e5ee","1912",""," ","","","","","","","","<div align=center>In this block, there will be a <b>1% chance</b> that the jar on the next trial will be different from the jar on the current trial.<br><br></div>","","","","","","","","","",""
"image-keyboard-response","136","193393","0.0-3.0-6.0-1.0-0.0","5f3be5b76e42ae9700e3a8af","6662009ae78f21dd82fcd179","66620a6196bb7dd754b9e5ee","868","","f","","","","","","","","./tasks/HMM-beads/Images/NoChoice.png","lowH","1","0","1","0","9","0","true","",""
"image-keyboard-response","137","193704","0.0-3.0-6.0-1.0-1.0","5f3be5b76e42ae9700e3a8af","6662009ae78f21dd82fcd179","66620a6196bb7dd754b9e5ee","null","","null","","","","","","","","./tasks/HMM-beads/Images/BlackBeadChoice.png","","","","","","","","","",""
"image-keyboard-response","138","194212","0.0-3.0-6.0-1.0-2.0","5f3be5b76e42ae9700e3a8af","6662009ae78f21dd82fcd179","66620a6196bb7dd754b9e5ee","null","","null","","","","","","","","./tasks/HMM-beads/Images/BlackBeadChoiceCorrect.png","","","","","","","","","",""
"image-keyboard-response","139","194515","0.0-3.0-6.0-1.0-0.1","5f3be5b76e42ae9700e3a8af","6662009ae78f21dd82fcd179","66620a6196bb7dd754b9e5ee","303","","f","","","","","","","","./tasks/HMM-beads/Images/NewTrialBC.png","lowH","1","1","1","1","0","0","false","",""
"image-keyboard-response","140","194826","0.0-3.0-6.0-1.0-1.1","5f3be5b76e42ae9700e3a8af","6662009ae78f21dd82fcd179","66620a6196bb7dd754b9e5ee","null","","null","","","","","","","","./tasks/HMM-beads/Images/BlackBeadChoice.png","","","","","","","","","",""
"image-keyboard-response","141","195334","0.0-3.0-6.0-1.0-2.1","5f3be5b76e42ae9700e3a8af","6662009ae78f21dd82fcd179","66620a6196bb7dd754b9e5ee","null","","null","","","","","","","","./tasks/HMM-beads/Images/BlackBeadChoiceWrong.png","","","","","","","","","",""
"image-keyboard-response","142","195515","0.0-3.0-6.0-1.0-0.2","5f3be5b76e42ae9700e3a8af","6662009ae78f21dd82fcd179","66620a6196bb7dd754b9e5ee","180","","f","","","","","","","","./tasks/HMM-beads/Images/NewTrialWC.png","lowH","1","2","1","1","1","0","false","",""
"image-keyboard-response","143","195825","0.0-3.0-6.0-1.0-1.2","5f3be5b76e42ae9700e3a8af","6662009ae78f21dd82fcd179","66620a6196bb7dd754b9e5ee","null","","null","","","","","","","","./tasks/HMM-beads/Images/BlackBeadChoice.png","","","","","","","","","",""
"image-keyboard-response","144","196331","0.0-3.0-6.0-1.0-2.2","5f3be5b76e42ae9700e3a8af","6662009ae78f21dd82fcd179","66620a6196bb7dd754b9e5ee","null","","null","","","","","","","","./tasks/HMM-beads/Images/BlackBeadChoiceWrong.png","","","","","","","","","",""
"image-keyboard-response","145","196543","0.0-3.0-6.0-1.0-0.3","5f3be5b76e42ae9700e3a8af","6662009ae78f21dd82fcd179","66620a6196bb7dd754b9e5ee","211","","j","","","","","","","","./tasks/HMM-beads/Images/NewTrialWC.png","lowH","1","3","1","1","1","1","true","",""
"image-keyboard-response","146","196855","0.0-3.0-6.0-1.0-1.3","5f3be5b76e42ae9700e3a8af","6662009ae78f21dd82fcd179","66620a6196bb7dd754b9e5ee","null","","null","","","","","","","","./tasks/HMM-beads/Images/WhiteBeadChoice.png","","","","","","","","","",""
"image-keyboard-response","147","197361","0.0-3.0-6.0-1.0-2.3","5f3be5b76e42ae9700e3a8af","6662009ae78f21dd82fcd179","66620a6196bb7dd754b9e5ee","null","","null","","","","","","","","./tasks/HMM-beads/Images/WhiteBeadChoiceCorrect.png","","","","","","","","","",""
"image-keyboard-response","148","197575","0.0-3.0-6.0-1.0-0.4","5f3be5b76e42ae9700e3a8af","6662009ae78f21dd82fcd179","66620a6196bb7dd754b9e5ee","213","","j","","","","","","","","./tasks/HMM-beads/Images/NewTrialWC.png","lowH","1","4","1","1","1","1","true","",""
"image-keyboard-response","149","197886","0.0-3.0-6.0-1.0-1.4","5f3be5b76e42ae9700e3a8af","6662009ae78f21dd82fcd179","66620a6196bb7dd754b9e5ee","null","","null","","","","","","","","./tasks/HMM-beads/Images/WhiteBeadChoice.png","","","","","","","","","",""
"image-keyboard-response","150","198395","0.0-3.0-6.0-1.0-2.4","5f3be5b76e42ae9700e3a8af","6662009ae78f21dd82fcd179","66620a6196bb7dd754b9e5ee","null","","null","","","","","","","","./tasks/HMM-beads/Images/WhiteBeadChoiceCorrect.png","","","","","","","","","",""
"image-keyboard-response","151","198611","0.0-3.0-6.0-1.0-0.5","5f3be5b76e42ae9700e3a8af","6662009ae78f21dd82fcd179","66620a6196bb7dd754b9e5ee","216","","j","","","","","","","","./tasks/HMM-beads/Images/NewTrialWC.png","lowH","1","5","1","1","1","1","true","",""
"image-keyboard-response","152","198917","0.0-3.0-6.0-1.0-1.5","5f3be5b76e42ae9700e3a8af","6662009ae78f21dd82fcd179","66620a6196bb7dd754b9e5ee","null","","null","","","","","","","","./tasks/HMM-beads/Images/WhiteBeadChoice.png","","","","","","","","","",""
"image-keyboard-response","153","199426","0.0-3.0-6.0-1.0-2.5","5f3be5b76e42ae9700e3a8af","6662009ae78f21dd82fcd179","66620a6196bb7dd754b9e5ee","null","","null","","","","","","","","./tasks/HMM-beads/Images/WhiteBeadChoiceCorrect.png","","","","","","","","","",""
"image-keyboard-response","154","199603","0.0-3.0-6.0-1.0-0.6","5f3be5b76e42ae9700e3a8af","6662009ae78f21dd82fcd179","66620a6196bb7dd754b9e5ee","176","","j","","","","","","","","./tasks/HMM-beads/Images/NewTrialWC.png","lowH","1","6","1","0","1","1","false","",""
"image-keyboard-response","155","199917","0.0-3.0-6.0-1.0-1.6","5f3be5b76e42ae9700e3a8af","6662009ae78f21dd82fcd179","66620a6196bb7dd754b9e5ee","null","","null","","","","","","","","./tasks/HMM-beads/Images/WhiteBeadChoice.png","","","","","","","","","",""
"image-keyboard-response","156","200425","0.0-3.0-6.0-1.0-2.6","5f3be5b76e42ae9700e3a8af","6662009ae78f21dd82fcd179","66620a6196bb7dd754b9e5ee","null","","null","","","","","","","","./tasks/HMM-beads/Images/WhiteBeadChoiceWrong.png","","","","","","","","","",""
"image-keyboard-response","157","200659","0.0-3.0-6.0-1.0-0.7","5f3be5b76e42ae9700e3a8af","6662009ae78f21dd82fcd179","66620a6196bb7dd754b9e5ee","233","","j","","","","","","","","./tasks/HMM-beads/Images/NewTrialBC.png","lowH","1","7","1","1","0","1","true","",""
"image-keyboard-response","158","200964","0.0-3.0-6.0-1.0-1.7","5f3be5b76e42ae9700e3a8af","6662009ae78f21dd82fcd179","66620a6196bb7dd754b9e5ee","null","","null","","","","","","","","./tasks/HMM-beads/Images/WhiteBeadChoice.png","","","","","","","","","",""
"image-keyboard-response","159","201471","0.0-3.0-6.0-1.0-2.7","5f3be5b76e42ae9700e3a8af","6662009ae78f21dd82fcd179","66620a6196bb7dd754b9e5ee","null","","null","","","","","","","","./tasks/HMM-beads/Images/WhiteBeadChoiceCorrect.png","","","","","","","","","",""
"image-keyboard-response","160","201679","0.0-3.0-6.0-1.0-0.8","5f3be5b76e42ae9700e3a8af","6662009ae78f21dd82fcd179","66620a6196bb7dd754b9e5ee","207","","j","","","","","","","","./tasks/HMM-beads/Images/NewTrialWC.png","lowH","1","8","1","1","1","1","true","",""
"image-keyboard-response","161","201994","0.0-3.0-6.0-1.0-1.8","5f3be5b76e42ae9700e3a8af","6662009ae78f21dd82fcd179","66620a6196bb7dd754b9e5ee","null","","null","","","","","","","","./tasks/HMM-beads/Images/WhiteBeadChoice.png","","","","","","","","","",""
"image-keyboard-response","162","202502","0.0-3.0-6.0-1.0-2.8","5f3be5b76e42ae9700e3a8af","6662009ae78f21dd82fcd179","66620a6196bb7dd754b9e5ee","null","","null","","","","","","","","./tasks/HMM-beads/Images/WhiteBeadChoiceCorrect.png","","","","","","","","","",""
"image-keyboard-response","163","202711","0.0-3.0-6.0-1.0-0.9","5f3be5b76e42ae9700e3a8af","6662009ae78f21dd82fcd179","66620a6196bb7dd754b9e5ee","209","","j","","","","","","","","./tasks/HMM-beads/Images/NewTrialWC.png","lowH","1","9","1","1","1","1","true","",""
"image-keyboard-response","164","203026","0.0-3.0-6.0-1.0-1.9","5f3be5b76e42ae9700e3a8af","6662009ae78f21dd82fcd179","66620a6196bb7dd754b9e5ee","null","","null","","","","","","","","./tasks/HMM-beads/Images/WhiteBeadChoice.png","","","","","","","","","",""
"image-keyboard-response","165","203534","0.0-3.0-6.0-1.0-2.9","5f3be5b76e42ae9700e3a8af","6662009ae78f21dd82fcd179","66620a6196bb7dd754b9e5ee","null","","null","","","","","","","","./tasks/HMM-beads/Images/WhiteBeadChoiceCorrect.png","","","","","","","","","",""
"image-keyboard-response","166","203723","0.0-3.0-6.0-1.0-0.10","5f3be5b76e42ae9700e3a8af","6662009ae78f21dd82fcd179","66620a6196bb7dd754b9e5ee","187","","j","","","","","","","","./tasks/HMM-beads/Images/NewTrialWC.png","lowH","1","10","1","1","1","1","true","",""
"image-keyboard-response","167","204027","0.0-3.0-6.0-1.0-1.10","5f3be5b76e42ae9700e3a8af","6662009ae78f21dd82fcd179","66620a6196bb7dd754b9e5ee","null","","null","","","","","","","","./tasks/HMM-beads/Images/WhiteBeadChoice.png","","","","","","","","","",""
"image-keyboard-response","168","204535","0.0-3.0-6.0-1.0-2.10","5f3be5b76e42ae9700e3a8af","6662009ae78f21dd82fcd179","66620a6196bb7dd754b9e5ee","null","","null","","","","","","","","./tasks/HMM-beads/Images/WhiteBeadChoiceCorrect.png","","","","","","","","","",""
"image-keyboard-response","169","204739","0.0-3.0-6.0-1.0-0.11","5f3be5b76e42ae9700e3a8af","6662009ae78f21dd82fcd179","66620a6196bb7dd754b9e5ee","203","","j","","","","","","","","./tasks/HMM-beads/Images/NewTrialWC.png","lowH","1","11","1","1","1","1","true","",""
"image-keyboard-response","170","205043","0.0-3.0-6.0-1.0-1.11","5f3be5b76e42ae9700e3a8af","6662009ae78f21dd82fcd179","66620a6196bb7dd754b9e5ee","null","","null","","","","","","","","./tasks/HMM-beads/Images/WhiteBeadChoice.png","","","","","","","","","",""
"image-keyboard-response","171","205551","0.0-3.0-6.0-1.0-2.11","5f3be5b76e42ae9700e3a8af","6662009ae78f21dd82fcd179","66620a6196bb7dd754b9e5ee","null","","null","","","","","","","","./tasks/HMM-beads/Images/WhiteBeadChoiceCorrect.png","","","","","","","","","",""
"image-keyboard-response","172","205703","0.0-3.0-6.0-1.0-0.12","5f3be5b76e42ae9700e3a8af","6662009ae78f21dd82fcd179","66620a6196bb7dd754b9e5ee","152","","j","","","","","","","","./tasks/HMM-beads/Images/NewTrialWC.png","lowH","1","12","1","1","1","1","true","",""
"image-keyboard-response","173","206013","0.0-3.0-6.0-1.0-1.12","5f3be5b76e42ae9700e3a8af","6662009ae78f21dd82fcd179","66620a6196bb7dd754b9e5ee","null","","null","","","","","","","","./tasks/HMM-beads/Images/WhiteBeadChoice.png","","","","","","","","","",""
"image-keyboard-response","174","206521","0.0-3.0-6.0-1.0-2.12","5f3be5b76e42ae9700e3a8af","6662009ae78f21dd82fcd179","66620a6196bb7dd754b9e5ee","null","","null","","","","","","","","./tasks/HMM-beads/Images/WhiteBeadChoiceCorrect.png","","","","","","","","","",""
"image-keyboard-response","175","206627","0.0-3.0-6.0-1.0-0.13","5f3be5b76e42ae9700e3a8af","6662009ae78f21dd82fcd179","66620a6196bb7dd754b9e5ee","105","","j","","","","","","","","./tasks/HMM-beads/Images/NewTrialWC.png","lowH","1","13","1","0","1","1","false","",""
"image-keyboard-response","176","206936","0.0-3.0-6.0-1.0-1.13","5f3be5b76e42ae9700e3a8af","6662009ae78f21dd82fcd179","66620a6196bb7dd754b9e5ee","null","","null","","","","","","","","./tasks/HMM-beads/Images/WhiteBeadChoice.png","","","","","","","","","",""
"image-keyboard-response","177","207445","0.0-3.0-6.0-1.0-2.13","5f3be5b76e42ae9700e3a8af","6662009ae78f21dd82fcd179","66620a6196bb7dd754b9e5ee","null","","null","","","","","","","","./tasks/HMM-beads/Images/WhiteBeadChoiceWrong.png","","","","","","","","","",""
"image-keyboard-response","178","207655","0.0-3.0-6.0-1.0-0.14","5f3be5b76e42ae9700e3a8af","6662009ae78f21dd82fcd179","66620a6196bb7dd754b9e5ee","209","","j","","","","","","","","./tasks/HMM-beads/Images/NewTrialBC.png","lowH","1","14","1","0","0","1","false","",""
"image-keyboard-response","179","207969","0.0-3.0-6.0-1.0-1.14","5f3be5b76e42ae9700e3a8af","6662009ae78f21dd82fcd179","66620a6196bb7dd754b9e5ee","null","","null","","","","","","","","./tasks/HMM-beads/Images/WhiteBeadChoice.png","","","","","","","","","",""
"image-keyboard-response","180","208479","0.0-3.0-6.0-1.0-2.14","5f3be5b76e42ae9700e3a8af","6662009ae78f21dd82fcd179","66620a6196bb7dd754b9e5ee","null","","null","","","","","","","","./tasks/HMM-beads/Images/WhiteBeadChoiceWrong.png","","","","","","","","","",""
"image-keyboard-response","181","208639","0.0-3.0-6.0-1.0-0.15","5f3be5b76e42ae9700e3a8af","6662009ae78f21dd82fcd179","66620a6196bb7dd754b9e5ee","160","","j","","","","","","","","./tasks/HMM-beads/Images/NewTrialBC.png","lowH","1","15","1","1","0","1","true","",""
"image-keyboard-response","182","208955","0.0-3.0-6.0-1.0-1.15","5f3be5b76e42ae9700e3a8af","6662009ae78f21dd82fcd179","66620a6196bb7dd754b9e5ee","null","","null","","","","","","","","./tasks/HMM-beads/Images/WhiteBeadChoice.png","","","","","","","","","",""
"image-keyboard-response","183","209462","0.0-3.0-6.0-1.0-2.15","5f3be5b76e42ae9700e3a8af","6662009ae78f21dd82fcd179","66620a6196bb7dd754b9e5ee","null","","null","","","","","","","","./tasks/HMM-beads/Images/WhiteBeadChoiceCorrect.png","","","","","","","","","",""
"image-keyboard-response","184","209635","0.0-3.0-6.0-1.0-0.16","5f3be5b76e42ae9700e3a8af","6662009ae78f21dd82fcd179","66620a6196bb7dd754b9e5ee","173","","j","","","","","","","","./tasks/HMM-beads/Images/NewTrialWC.png","lowH","1","16","1","1","1","1","true","",""
"image-keyboard-response","185","209940","0.0-3.0-6.0-1.0-1.16","5f3be5b76e42ae9700e3a8af","6662009ae78f21dd82fcd179","66620a6196bb7dd754b9e5ee","null","","null","","","","","","","","./tasks/HMM-beads/Images/WhiteBeadChoice.png","","","","","","","","","",""
"image-keyboard-response","186","210448","0.0-3.0-6.0-1.0-2.16","5f3be5b76e42ae9700e3a8af","6662009ae78f21dd82fcd179","66620a6196bb7dd754b9e5ee","null","","null","","","","","","","","./tasks/HMM-beads/Images/WhiteBeadChoiceCorrect.png","","","","","","","","","",""
"image-keyboard-response","187","210609","0.0-3.0-6.0-1.0-0.17","5f3be5b76e42ae9700e3a8af","6662009ae78f21dd82fcd179","66620a6196bb7dd754b9e5ee","160","","j","","","","","","","","./tasks/HMM-beads/Images/NewTrialWC.png","lowH","1","17","1","1","1","1","true","",""
"image-keyboard-response","188","210912","0.0-3.0-6.0-1.0-1.17","5f3be5b76e42ae9700e3a8af","6662009ae78f21dd82fcd179","66620a6196bb7dd754b9e5ee","null","","null","","","","","","","","./tasks/HMM-beads/Images/WhiteBeadChoice.png","","","","","","","","","",""
"image-keyboard-response","189","211419","0.0-3.0-6.0-1.0-2.17","5f3be5b76e42ae9700e3a8af","6662009ae78f21dd82fcd179","66620a6196bb7dd754b9e5ee","null","","null","","","","","","","","./tasks/HMM-beads/Images/WhiteBeadChoiceCorrect.png","","","","","","","","","",""
"image-keyboard-response","190","211613","0.0-3.0-6.0-1.0-0.18","5f3be5b76e42ae9700e3a8af","6662009ae78f21dd82fcd179","66620a6196bb7dd754b9e5ee","193","","j","","","","","","","","./tasks/HMM-beads/Images/NewTrialWC.png","lowH","1","18","1","1","1","1","true","",""
"image-keyboard-response","191","211928","0.0-3.0-6.0-1.0-1.18","5f3be5b76e42ae9700e3a8af","6662009ae78f21dd82fcd179","66620a6196bb7dd754b9e5ee","null","","null","","","","","","","","./tasks/HMM-beads/Images/WhiteBeadChoice.png","","","","","","","","","",""
"image-keyboard-response","192","212436","0.0-3.0-6.0-1.0-2.18","5f3be5b76e42ae9700e3a8af","6662009ae78f21dd82fcd179","66620a6196bb7dd754b9e5ee","null","","null","","","","","","","","./tasks/HMM-beads/Images/WhiteBeadChoiceCorrect.png","","","","","","","","","",""
"image-keyboard-response","193","212549","0.0-3.0-6.0-1.0-0.19","5f3be5b76e42ae9700e3a8af","6662009ae78f21dd82fcd179","66620a6196bb7dd754b9e5ee","113","","j","","","","","","","","./tasks/HMM-beads/Images/NewTrialWC.png","lowH","1","19","1","1","1","1","true","",""
"image-keyboard-response","194","212850","0.0-3.0-6.0-1.0-1.19","5f3be5b76e42ae9700e3a8af","6662009ae78f21dd82fcd179","66620a6196bb7dd754b9e5ee","null","","null","","","","","","","","./tasks/HMM-beads/Images/WhiteBeadChoice.png","","","","","","","","","",""
"image-keyboard-response","195","213360","0.0-3.0-6.0-1.0-2.19","5f3be5b76e42ae9700e3a8af","6662009ae78f21dd82fcd179","66620a6196bb7dd754b9e5ee","null","","null","","","","","","","","./tasks/HMM-beads/Images/WhiteBeadChoiceCorrect.png","","","","","","","","","",""
"image-keyboard-response","196","213562","0.0-3.0-6.0-1.0-0.20","5f3be5b76e42ae9700e3a8af","6662009ae78f21dd82fcd179","66620a6196bb7dd754b9e5ee","201","","j","","","","","","","","./tasks/HMM-beads/Images/NewTrialWC.png","lowH","1","20","1","1","1","1","true","",""
"image-keyboard-response","197","213868","0.0-3.0-6.0-1.0-1.20","5f3be5b76e42ae9700e3a8af","6662009ae78f21dd82fcd179","66620a6196bb7dd754b9e5ee","null","","null","","","","","","","","./tasks/HMM-beads/Images/WhiteBeadChoice.png","","","","","","","","","",""
"image-keyboard-response","198","214376","0.0-3.0-6.0-1.0-2.20","5f3be5b76e42ae9700e3a8af","6662009ae78f21dd82fcd179","66620a6196bb7dd754b9e5ee","null","","null","","","","","","","","./tasks/HMM-beads/Images/WhiteBeadChoiceCorrect.png","","","","","","","","","",""
"image-keyboard-response","199","214544","0.0-3.0-6.0-1.0-0.21","5f3be5b76e42ae9700e3a8af","6662009ae78f21dd82fcd179","66620a6196bb7dd754b9e5ee","166","","j","","","","","","","","./tasks/HMM-beads/Images/NewTrialWC.png","lowH","1","21","1","1","1","1","true","",""
"image-keyboard-response","200","214853","0.0-3.0-6.0-1.0-1.21","5f3be5b76e42ae9700e3a8af","6662009ae78f21dd82fcd179","66620a6196bb7dd754b9e5ee","null","","null","","","","","","","","./tasks/HMM-beads/Images/WhiteBeadChoice.png","","","","","","","","","",""
"image-keyboard-response","201","215360","0.0-3.0-6.0-1.0-2.21","5f3be5b76e42ae9700e3a8af","6662009ae78f21dd82fcd179","66620a6196bb7dd754b9e5ee","null","","null","","","","","","","","./tasks/HMM-beads/Images/WhiteBeadChoiceCorrect.png","","","","","","","","","",""
"image-keyboard-response","202","215493","0.0-3.0-6.0-1.0-0.22","5f3be5b76e42ae9700e3a8af","6662009ae78f21dd82fcd179","66620a6196bb7dd754b9e5ee","132","","j","","","","","","","","./tasks/HMM-beads/Images/NewTrialWC.png","lowH","1","22","1","1","1","1","true","",""
"image-keyboard-response","203","215806","0.0-3.0-6.0-1.0-1.22","5f3be5b76e42ae9700e3a8af","6662009ae78f21dd82fcd179","66620a6196bb7dd754b9e5ee","null","","null","","","","","","","","./tasks/HMM-beads/Images/WhiteBeadChoice.png","","","","","","","","","",""
"image-keyboard-response","204","216314","0.0-3.0-6.0-1.0-2.22","5f3be5b76e42ae9700e3a8af","6662009ae78f21dd82fcd179","66620a6196bb7dd754b9e5ee","null","","null","","","","","","","","./tasks/HMM-beads/Images/WhiteBeadChoiceCorrect.png","","","","","","","","","",""
"image-keyboard-response","205","216485","0.0-3.0-6.0-1.0-0.23","5f3be5b76e42ae9700e3a8af","6662009ae78f21dd82fcd179","66620a6196bb7dd754b9e5ee","171","","j","","","","","","","","./tasks/HMM-beads/Images/NewTrialWC.png","lowH","1","23","1","1","1","1","true","",""
"image-keyboard-response","206","216790","0.0-3.0-6.0-1.0-1.23","5f3be5b76e42ae9700e3a8af","6662009ae78f21dd82fcd179","66620a6196bb7dd754b9e5ee","null","","null","","","","","","","","./tasks/HMM-beads/Images/WhiteBeadChoice.png","","","","","","","","","",""
"image-keyboard-response","207","217297","0.0-3.0-6.0-1.0-2.23","5f3be5b76e42ae9700e3a8af","6662009ae78f21dd82fcd179","66620a6196bb7dd754b9e5ee","null","","null","","","","","","","","./tasks/HMM-beads/Images/WhiteBeadChoiceCorrect.png","","","","","","","","","",""
"image-keyboard-response","208","217497","0.0-3.0-6.0-1.0-0.24","5f3be5b76e42ae9700e3a8af","6662009ae78f21dd82fcd179","66620a6196bb7dd754b9e5ee","199","","j","","","","","","","","./tasks/HMM-beads/Images/NewTrialWC.png","lowH","1","24","1","0","1","1","false","",""
"image-keyboard-response","209","217805","0.0-3.0-6.0-1.0-1.24","5f3be5b76e42ae9700e3a8af","6662009ae78f21dd82fcd179","66620a6196bb7dd754b9e5ee","null","","null","","","","","","","","./tasks/HMM-beads/Images/WhiteBeadChoice.png","","","","","","","","","",""
"image-keyboard-response","210","218313","0.0-3.0-6.0-1.0-2.24","5f3be5b76e42ae9700e3a8af","6662009ae78f21dd82fcd179","66620a6196bb7dd754b9e5ee","null","","null","","","","","","","","./tasks/HMM-beads/Images/WhiteBeadChoiceWrong.png","","","","","","","","","",""
"image-keyboard-response","211","218549","0.0-3.0-6.0-1.0-0.25","5f3be5b76e42ae9700e3a8af","6662009ae78f21dd82fcd179","66620a6196bb7dd754b9e5ee","235","","j","","","","","","","","./tasks/HMM-beads/Images/NewTrialBC.png","lowH","1","25","1","1","0","1","true","",""
"image-keyboard-response","212","218852","0.0-3.0-6.0-1.0-1.25","5f3be5b76e42ae9700e3a8af","6662009ae78f21dd82fcd179","66620a6196bb7dd754b9e5ee","null","","null","","","","","","","","./tasks/HMM-beads/Images/WhiteBeadChoice.png","","","","","","","","","",""
"image-keyboard-response","213","219361","0.0-3.0-6.0-1.0-2.25","5f3be5b76e42ae9700e3a8af","6662009ae78f21dd82fcd179","66620a6196bb7dd754b9e5ee","null","","null","","","","","","","","./tasks/HMM-beads/Images/WhiteBeadChoiceCorrect.png","","","","","","","","","",""
"image-keyboard-response","214","219525","0.0-3.0-6.0-1.0-0.26","5f3be5b76e42ae9700e3a8af","6662009ae78f21dd82fcd179","66620a6196bb7dd754b9e5ee","164","","j","","","","","","","","./tasks/HMM-beads/Images/NewTrialWC.png","lowH","1","26","1","0","1","1","false","",""
"image-keyboard-response","215","219837","0.0-3.0-6.0-1.0-1.26","5f3be5b76e42ae9700e3a8af","6662009ae78f21dd82fcd179","66620a6196bb7dd754b9e5ee","null","","null","","","","","","","","./tasks/HMM-beads/Images/WhiteBeadChoice.png","","","","","","","","","",""
"image-keyboard-response","216","220345","0.0-3.0-6.0-1.0-2.26","5f3be5b76e42ae9700e3a8af","6662009ae78f21dd82fcd179","66620a6196bb7dd754b9e5ee","null","","null","","","","","","","","./tasks/HMM-beads/Images/WhiteBeadChoiceWrong.png","","","","","","","","","",""
"image-keyboard-response","217","220533","0.0-3.0-6.0-1.0-0.27","5f3be5b76e42ae9700e3a8af","6662009ae78f21dd82fcd179","66620a6196bb7dd754b9e5ee","187","","j","","","","","","","","./tasks/HMM-beads/Images/NewTrialBC.png","lowH","1","27","1","1","0","1","true","",""
"image-keyboard-response","218","220839","0.0-3.0-6.0-1.0-1.27","5f3be5b76e42ae9700e3a8af","6662009ae78f21dd82fcd179","66620a6196bb7dd754b9e5ee","null","","null","","","","","","","","./tasks/HMM-beads/Images/WhiteBeadChoice.png","","","","","","","","","",""
"image-keyboard-response","219","221346","0.0-3.0-6.0-1.0-2.27","5f3be5b76e42ae9700e3a8af","6662009ae78f21dd82fcd179","66620a6196bb7dd754b9e5ee","null","","null","","","","","","","","./tasks/HMM-beads/Images/WhiteBeadChoiceCorrect.png","","","","","","","","","",""
"image-keyboard-response","220","221464","0.0-3.0-6.0-1.0-0.28","5f3be5b76e42ae9700e3a8af","6662009ae78f21dd82fcd179","66620a6196bb7dd754b9e5ee","117","","j","","","","","","","","./tasks/HMM-beads/Images/NewTrialWC.png","lowH","1","28","1","1","1","1","true","",""
"image-keyboard-response","221","221777","0.0-3.0-6.0-1.0-1.28","5f3be5b76e42ae9700e3a8af","6662009ae78f21dd82fcd179","66620a6196bb7dd754b9e5ee","null","","null","","","","","","","","./tasks/HMM-beads/Images/WhiteBeadChoice.png","","","","","","","","","",""
"image-keyboard-response","222","222285","0.0-3.0-6.0-1.0-2.28","5f3be5b76e42ae9700e3a8af","6662009ae78f21dd82fcd179","66620a6196bb7dd754b9e5ee","null","","null","","","","","","","","./tasks/HMM-beads/Images/WhiteBeadChoiceCorrect.png","","","","","","","","","",""
"image-keyboard-response","223","222501","0.0-3.0-6.0-1.0-0.29","5f3be5b76e42ae9700e3a8af","6662009ae78f21dd82fcd179","66620a6196bb7dd754b9e5ee","215","","j","","","","","","","","./tasks/HMM-beads/Images/NewTrialWC.png","lowH","1","29","1","1","1","1","true","",""
"image-keyboard-response","224","222810","0.0-3.0-6.0-1.0-1.29","5f3be5b76e42ae9700e3a8af","6662009ae78f21dd82fcd179","66620a6196bb7dd754b9e5ee","null","","null","","","","","","","","./tasks/HMM-beads/Images/WhiteBeadChoice.png","","","","","","","","","",""
"image-keyboard-response","225","223317","0.0-3.0-6.0-1.0-2.29","5f3be5b76e42ae9700e3a8af","6662009ae78f21dd82fcd179","66620a6196bb7dd754b9e5ee","null","","null","","","","","","","","./tasks/HMM-beads/Images/WhiteBeadChoiceCorrect.png","","","","","","","","","",""
"image-keyboard-response","226","223425","0.0-3.0-6.0-1.0-0.30","5f3be5b76e42ae9700e3a8af","6662009ae78f21dd82fcd179","66620a6196bb7dd754b9e5ee","107","","j","","","","","","","","./tasks/HMM-beads/Images/NewTrialWC.png","lowH","1","30","1","1","1","1","true","",""
"image-keyboard-response","227","223735","0.0-3.0-6.0-1.0-1.30","5f3be5b76e42ae9700e3a8af","6662009ae78f21dd82fcd179","66620a6196bb7dd754b9e5ee","null","","null","","","","","","","","./tasks/HMM-beads/Images/WhiteBeadChoice.png","","","","","","","","","",""
"image-keyboard-response","228","224242","0.0-3.0-6.0-1.0-2.30","5f3be5b76e42ae9700e3a8af","6662009ae78f21dd82fcd179","66620a6196bb7dd754b9e5ee","null","","null","","","","","","","","./tasks/HMM-beads/Images/WhiteBeadChoiceCorrect.png","","","","","","","","","",""
"image-keyboard-response","229","224374","0.0-3.0-6.0-1.0-0.31","5f3be5b76e42ae9700e3a8af","6662009ae78f21dd82fcd179","66620a6196bb7dd754b9e5ee","130","","j","","","","","","","","./tasks/HMM-beads/Images/NewTrialWC.png","lowH","1","31","1","1","1","1","true","",""
"image-keyboard-response","230","224688","0.0-3.0-6.0-1.0-1.31","5f3be5b76e42ae9700e3a8af","6662009ae78f21dd82fcd179","66620a6196bb7dd754b9e5ee","null","","null","","","","","","","","./tasks/HMM-beads/Images/WhiteBeadChoice.png","","","","","","","","","",""
"image-keyboard-response","231","225197","0.0-3.0-6.0-1.0-2.31","5f3be5b76e42ae9700e3a8af","6662009ae78f21dd82fcd179","66620a6196bb7dd754b9e5ee","null","","null","","","","","","","","./tasks/HMM-beads/Images/WhiteBeadChoiceCorrect.png","","","","","","","","","",""
"image-keyboard-response","232","225281","0.0-3.0-6.0-1.0-0.32","5f3be5b76e42ae9700e3a8af","6662009ae78f21dd82fcd179","66620a6196bb7dd754b9e5ee","84","","j","","","","","","","","./tasks/HMM-beads/Images/NewTrialWC.png","lowH","1","32","1","1","1","1","true","",""
"image-keyboard-response","233","225597","0.0-3.0-6.0-1.0-1.32","5f3be5b76e42ae9700e3a8af","6662009ae78f21dd82fcd179","66620a6196bb7dd754b9e5ee","null","","null","","","","","","","","./tasks/HMM-beads/Images/WhiteBeadChoice.png","","","","","","","","","",""
"image-keyboard-response","234","226105","0.0-3.0-6.0-1.0-2.32","5f3be5b76e42ae9700e3a8af","6662009ae78f21dd82fcd179","66620a6196bb7dd754b9e5ee","null","","null","","","","","","","","./tasks/HMM-beads/Images/WhiteBeadChoiceCorrect.png","","","","","","","","","",""
"image-keyboard-response","235","226195","0.0-3.0-6.0-1.0-0.33","5f3be5b76e42ae9700e3a8af","6662009ae78f21dd82fcd179","66620a6196bb7dd754b9e5ee","89","","j","","","","","","","","./tasks/HMM-beads/Images/NewTrialWC.png","lowH","1","33","1","1","1","1","true","",""
"image-keyboard-response","236","226505","0.0-3.0-6.0-1.0-1.33","5f3be5b76e42ae9700e3a8af","6662009ae78f21dd82fcd179","66620a6196bb7dd754b9e5ee","null","","null","","","","","","","","./tasks/HMM-beads/Images/WhiteBeadChoice.png","","","","","","","","","",""
"image-keyboard-response","237","227013","0.0-3.0-6.0-1.0-2.33","5f3be5b76e42ae9700e3a8af","6662009ae78f21dd82fcd179","66620a6196bb7dd754b9e5ee","null","","null","","","","","","","","./tasks/HMM-beads/Images/WhiteBeadChoiceCorrect.png","","","","","","","","","",""
"image-keyboard-response","238","227103","0.0-3.0-6.0-1.0-0.34","5f3be5b76e42ae9700e3a8af","6662009ae78f21dd82fcd179","66620a6196bb7dd754b9e5ee","89","","j","","","","","","","","./tasks/HMM-beads/Images/NewTrialWC.png","lowH","1","34","1","1","1","1","true","",""
"image-keyboard-response","239","227412","0.0-3.0-6.0-1.0-1.34","5f3be5b76e42ae9700e3a8af","6662009ae78f21dd82fcd179","66620a6196bb7dd754b9e5ee","null","","null","","","","","","","","./tasks/HMM-beads/Images/WhiteBeadChoice.png","","","","","","","","","",""
"image-keyboard-response","240","227919","0.0-3.0-6.0-1.0-2.34","5f3be5b76e42ae9700e3a8af","6662009ae78f21dd82fcd179","66620a6196bb7dd754b9e5ee","null","","null","","","","","","","","./tasks/HMM-beads/Images/WhiteBeadChoiceCorrect.png","","","","","","","","","",""
"image-keyboard-response","241","228055","0.0-3.0-6.0-1.0-0.35","5f3be5b76e42ae9700e3a8af","6662009ae78f21dd82fcd179","66620a6196bb7dd754b9e5ee","135","","j","","","","","","","","./tasks/HMM-beads/Images/NewTrialWC.png","lowH","1","35","1","1","1","1","true","",""
"image-keyboard-response","242","228365","0.0-3.0-6.0-1.0-1.35","5f3be5b76e42ae9700e3a8af","6662009ae78f21dd82fcd179","66620a6196bb7dd754b9e5ee","null","","null","","","","","","","","./tasks/HMM-beads/Images/WhiteBeadChoice.png","","","","","","","","","",""
"image-keyboard-response","243","228875","0.0-3.0-6.0-1.0-2.35","5f3be5b76e42ae9700e3a8af","6662009ae78f21dd82fcd179","66620a6196bb7dd754b9e5ee","null","","null","","","","","","","","./tasks/HMM-beads/Images/WhiteBeadChoiceCorrect.png","","","","","","","","","",""
"image-keyboard-response","244","228963","0.0-3.0-6.0-1.0-0.36","5f3be5b76e42ae9700e3a8af","6662009ae78f21dd82fcd179","66620a6196bb7dd754b9e5ee","87","","j","","","","","","","","./tasks/HMM-beads/Images/NewTrialWC.png","lowH","1","36","1","1","1","1","true","",""
"image-keyboard-response","245","229275","0.0-3.0-6.0-1.0-1.36","5f3be5b76e42ae9700e3a8af","6662009ae78f21dd82fcd179","66620a6196bb7dd754b9e5ee","null","","null","","","","","","","","./tasks/HMM-beads/Images/WhiteBeadChoice.png","","","","","","","","","",""
"image-keyboard-response","246","229783","0.0-3.0-6.0-1.0-2.36","5f3be5b76e42ae9700e3a8af","6662009ae78f21dd82fcd179","66620a6196bb7dd754b9e5ee","null","","null","","","","","","","","./tasks/HMM-beads/Images/WhiteBeadChoiceCorrect.png","","","","","","","","","",""
"image-keyboard-response","247","229887","0.0-3.0-6.0-1.0-0.37","5f3be5b76e42ae9700e3a8af","6662009ae78f21dd82fcd179","66620a6196bb7dd754b9e5ee","103","","j","","","","","","","","./tasks/HMM-beads/Images/NewTrialWC.png","lowH","1","37","1","1","1","1","true","",""
"image-keyboard-response","248","230199","0.0-3.0-6.0-1.0-1.37","5f3be5b76e42ae9700e3a8af","6662009ae78f21dd82fcd179","66620a6196bb7dd754b9e5ee","null","","null","","","","","","","","./tasks/HMM-beads/Images/WhiteBeadChoice.png","","","","","","","","","",""
"image-keyboard-response","249","230706","0.0-3.0-6.0-1.0-2.37","5f3be5b76e42ae9700e3a8af","6662009ae78f21dd82fcd179","66620a6196bb7dd754b9e5ee","null","","null","","","","","","","","./tasks/HMM-beads/Images/WhiteBeadChoiceCorrect.png","","","","","","","","","",""
"image-keyboard-response","250","230827","0.0-3.0-6.0-1.0-0.38","5f3be5b76e42ae9700e3a8af","6662009ae78f21dd82fcd179","66620a6196bb7dd754b9e5ee","120","","j","","","","","","","","./tasks/HMM-beads/Images/NewTrialWC.png","lowH","1","38","1","1","1","1","true","",""
"image-keyboard-response","251","231137","0.0-3.0-6.0-1.0-1.38","5f3be5b76e42ae9700e3a8af","6662009ae78f21dd82fcd179","66620a6196bb7dd754b9e5ee","null","","null","","","","","","","","./tasks/HMM-beads/Images/WhiteBeadChoice.png","","","","","","","","","",""
"image-keyboard-response","252","231643","0.0-3.0-6.0-1.0-2.38","5f3be5b76e42ae9700e3a8af","6662009ae78f21dd82fcd179","66620a6196bb7dd754b9e5ee","null","","null","","","","","","","","./tasks/HMM-beads/Images/WhiteBeadChoiceCorrect.png","","","","","","","","","",""
"image-keyboard-response","253","231751","0.0-3.0-6.0-1.0-0.39","5f3be5b76e42ae9700e3a8af","6662009ae78f21dd82fcd179","66620a6196bb7dd754b9e5ee","107","","j","","","","","","","","./tasks/HMM-beads/Images/NewTrialWC.png","lowH","1","39","1","1","1","1","true","",""
"image-keyboard-response","254","232058","0.0-3.0-6.0-1.0-1.39","5f3be5b76e42ae9700e3a8af","6662009ae78f21dd82fcd179","66620a6196bb7dd754b9e5ee","null","","null","","","","","","","","./tasks/HMM-beads/Images/WhiteBeadChoice.png","","","","","","","","","",""
"image-keyboard-response","255","232566","0.0-3.0-6.0-1.0-2.39","5f3be5b76e42ae9700e3a8af","6662009ae78f21dd82fcd179","66620a6196bb7dd754b9e5ee","null","","null","","","","","","","","./tasks/HMM-beads/Images/WhiteBeadChoiceCorrect.png","","","","","","","","","",""
"image-keyboard-response","256","232659","0.0-3.0-6.0-1.0-0.40","5f3be5b76e42ae9700e3a8af","6662009ae78f21dd82fcd179","66620a6196bb7dd754b9e5ee","92","","j","","","","","","","","./tasks/HMM-beads/Images/NewTrialWC.png","lowH","1","40","1","1","1","1","true","",""
"image-keyboard-response","257","232967","0.0-3.0-6.0-1.0-1.40","5f3be5b76e42ae9700e3a8af","6662009ae78f21dd82fcd179","66620a6196bb7dd754b9e5ee","null","","null","","","","","","","","./tasks/HMM-beads/Images/WhiteBeadChoice.png","","","","","","","","","",""
"image-keyboard-response","258","233476","0.0-3.0-6.0-1.0-2.40","5f3be5b76e42ae9700e3a8af","6662009ae78f21dd82fcd179","66620a6196bb7dd754b9e5ee","null","","null","","","","","","","","./tasks/HMM-beads/Images/WhiteBeadChoiceCorrect.png","","","","","","","","","",""
"image-keyboard-response","259","233707","0.0-3.0-6.0-1.0-0.41","5f3be5b76e42ae9700e3a8af","6662009ae78f21dd82fcd179","66620a6196bb7dd754b9e5ee","231","","j","","","","","","","","./tasks/HMM-beads/Images/NewTrialWC.png","lowH","1","41","1","1","1","1","true","",""
"image-keyboard-response","260","234016","0.0-3.0-6.0-1.0-1.41","5f3be5b76e42ae9700e3a8af","6662009ae78f21dd82fcd179","66620a6196bb7dd754b9e5ee","null","","null","","","","","","","","./tasks/HMM-beads/Images/WhiteBeadChoice.png","","","","","","","","","",""
"image-keyboard-response","261","234523","0.0-3.0-6.0-1.0-2.41","5f3be5b76e42ae9700e3a8af","6662009ae78f21dd82fcd179","66620a6196bb7dd754b9e5ee","null","","null","","","","","","","","./tasks/HMM-beads/Images/WhiteBeadChoiceCorrect.png","","","","","","","","","",""
"image-keyboard-response","262","234712","0.0-3.0-6.0-1.0-0.42","5f3be5b76e42ae9700e3a8af","6662009ae78f21dd82fcd179","66620a6196bb7dd754b9e5ee","188","","j","","","","","","","","./tasks/HMM-beads/Images/NewTrialWC.png","lowH","1","42","1","1","1","1","true","",""
"image-keyboard-response","263","235016","0.0-3.0-6.0-1.0-1.42","5f3be5b76e42ae9700e3a8af","6662009ae78f21dd82fcd179","66620a6196bb7dd754b9e5ee","null","","null","","","","","","","","./tasks/HMM-beads/Images/WhiteBeadChoice.png","","","","","","","","","",""
"image-keyboard-response","264","235523","0.0-3.0-6.0-1.0-2.42","5f3be5b76e42ae9700e3a8af","6662009ae78f21dd82fcd179","66620a6196bb7dd754b9e5ee","null","","null","","","","","","","","./tasks/HMM-beads/Images/WhiteBeadChoiceCorrect.png","","","","","","","","","",""
"image-keyboard-response","265","235718","0.0-3.0-6.0-1.0-0.43","5f3be5b76e42ae9700e3a8af","6662009ae78f21dd82fcd179","66620a6196bb7dd754b9e5ee","195","","j","","","","","","","","./tasks/HMM-beads/Images/NewTrialWC.png","lowH","1","43","1","1","1","1","true","",""
"image-keyboard-response","266","236030","0.0-3.0-6.0-1.0-1.43","5f3be5b76e42ae9700e3a8af","6662009ae78f21dd82fcd179","66620a6196bb7dd754b9e5ee","null","","null","","","","","","","","./tasks/HMM-beads/Images/WhiteBeadChoice.png","","","","","","","","","",""
"image-keyboard-response","267","236539","0.0-3.0-6.0-1.0-2.43","5f3be5b76e42ae9700e3a8af","6662009ae78f21dd82fcd179","66620a6196bb7dd754b9e5ee","null","","null","","","","","","","","./tasks/HMM-beads/Images/WhiteBeadChoiceCorrect.png","","","","","","","","","",""
"image-keyboard-response","268","236683","0.0-3.0-6.0-1.0-0.44","5f3be5b76e42ae9700e3a8af","6662009ae78f21dd82fcd179","66620a6196bb7dd754b9e5ee","143","","j","","","","","","","","./tasks/HMM-beads/Images/NewTrialWC.png","lowH","1","44","1","1","1","1","true","",""
"image-keyboard-response","269","236987","0.0-3.0-6.0-1.0-1.44","5f3be5b76e42ae9700e3a8af","6662009ae78f21dd82fcd179","66620a6196bb7dd754b9e5ee","null","","null","","","","","","","","./tasks/HMM-beads/Images/WhiteBeadChoice.png","","","","","","","","","",""
"image-keyboard-response","270","237495","0.0-3.0-6.0-1.0-2.44","5f3be5b76e42ae9700e3a8af","6662009ae78f21dd82fcd179","66620a6196bb7dd754b9e5ee","null","","null","","","","","","","","./tasks/HMM-beads/Images/WhiteBeadChoiceCorrect.png","","","","","","","","","",""
"image-keyboard-response","271","237615","0.0-3.0-6.0-1.0-0.45","5f3be5b76e42ae9700e3a8af","6662009ae78f21dd82fcd179","66620a6196bb7dd754b9e5ee","119","","j","","","","","","","","./tasks/HMM-beads/Images/NewTrialWC.png","lowH","1","45","1","1","1","1","true","",""
"image-keyboard-response","272","237928","0.0-3.0-6.0-1.0-1.45","5f3be5b76e42ae9700e3a8af","6662009ae78f21dd82fcd179","66620a6196bb7dd754b9e5ee","null","","null","","","","","","","","./tasks/HMM-beads/Images/WhiteBeadChoice.png","","","","","","","","","",""
"image-keyboard-response","273","238437","0.0-3.0-6.0-1.0-2.45","5f3be5b76e42ae9700e3a8af","6662009ae78f21dd82fcd179","66620a6196bb7dd754b9e5ee","null","","null","","","","","","","","./tasks/HMM-beads/Images/WhiteBeadChoiceCorrect.png","","","","","","","","","",""
"image-keyboard-response","274","238531","0.0-3.0-6.0-1.0-0.46","5f3be5b76e42ae9700e3a8af","6662009ae78f21dd82fcd179","66620a6196bb7dd754b9e5ee","93","","j","","","","","","","","./tasks/HMM-beads/Images/NewTrialWC.png","lowH","1","46","1","1","1","1","true","",""
"image-keyboard-response","275","238838","0.0-3.0-6.0-1.0-1.46","5f3be5b76e42ae9700e3a8af","6662009ae78f21dd82fcd179","66620a6196bb7dd754b9e5ee","null","","null","","","","","","","","./tasks/HMM-beads/Images/WhiteBeadChoice.png","","","","","","","","","",""
"image-keyboard-response","276","239345","0.0-3.0-6.0-1.0-2.46","5f3be5b76e42ae9700e3a8af","6662009ae78f21dd82fcd179","66620a6196bb7dd754b9e5ee","null","","null","","","","","","","","./tasks/HMM-beads/Images/WhiteBeadChoiceCorrect.png","","","","","","","","","",""
"image-keyboard-response","277","239476","0.0-3.0-6.0-1.0-0.47","5f3be5b76e42ae9700e3a8af","6662009ae78f21dd82fcd179","66620a6196bb7dd754b9e5ee","130","","j","","","","","","","","./tasks/HMM-beads/Images/NewTrialWC.png","lowH","1","47","1","0","1","1","false","",""
"image-keyboard-response","278","239777","0.0-3.0-6.0-1.0-1.47","5f3be5b76e42ae9700e3a8af","6662009ae78f21dd82fcd179","66620a6196bb7dd754b9e5ee","null","","null","","","","","","","","./tasks/HMM-beads/Images/WhiteBeadChoice.png","","","","","","","","","",""
"image-keyboard-response","279","240286","0.0-3.0-6.0-1.0-2.47","5f3be5b76e42ae9700e3a8af","6662009ae78f21dd82fcd179","66620a6196bb7dd754b9e5ee","null","","null","","","","","","","","./tasks/HMM-beads/Images/WhiteBeadChoiceWrong.png","","","","","","","","","",""
"image-keyboard-response","280","240517","0.0-3.0-6.0-1.0-0.48","5f3be5b76e42ae9700e3a8af","6662009ae78f21dd82fcd179","66620a6196bb7dd754b9e5ee","231","","j","","","","","","","","./tasks/HMM-beads/Images/NewTrialBC.png","lowH","1","48","1","0","0","1","false","",""
"image-keyboard-response","281","240824","0.0-3.0-6.0-1.0-1.48","5f3be5b76e42ae9700e3a8af","6662009ae78f21dd82fcd179","66620a6196bb7dd754b9e5ee","null","","null","","","","","","","","./tasks/HMM-beads/Images/WhiteBeadChoice.png","","","","","","","","","",""
"image-keyboard-response","282","241333","0.0-3.0-6.0-1.0-2.48","5f3be5b76e42ae9700e3a8af","6662009ae78f21dd82fcd179","66620a6196bb7dd754b9e5ee","null","","null","","","","","","","","./tasks/HMM-beads/Images/WhiteBeadChoiceWrong.png","","","","","","","","","",""
"image-keyboard-response","283","241693","0.0-3.0-6.0-1.0-0.49","5f3be5b76e42ae9700e3a8af","6662009ae78f21dd82fcd179","66620a6196bb7dd754b9e5ee","359","","f","","","","","","","","./tasks/HMM-beads/Images/NewTrialBC.png","lowH","1","49","1","0","0","0","true","",""
"image-keyboard-response","284","241996","0.0-3.0-6.0-1.0-1.49","5f3be5b76e42ae9700e3a8af","6662009ae78f21dd82fcd179","66620a6196bb7dd754b9e5ee","null","","null","","","","","","","","./tasks/HMM-beads/Images/BlackBeadChoice.png","","","","","","","","","",""
"image-keyboard-response","285","242504","0.0-3.0-6.0-1.0-2.49","5f3be5b76e42ae9700e3a8af","6662009ae78f21dd82fcd179","66620a6196bb7dd754b9e5ee","null","","null","","","","","","","","./tasks/HMM-beads/Images/BlackBeadChoiceCorrect.png","","","","","","","","","",""
"image-keyboard-response","286","242609","0.0-3.0-6.0-1.0-0.50","5f3be5b76e42ae9700e3a8af","6662009ae78f21dd82fcd179","66620a6196bb7dd754b9e5ee","104","","f","","","","","","","","./tasks/HMM-beads/Images/NewTrialBC.png","lowH","1","50","1","1","0","0","false","",""
"image-keyboard-response","287","242919","0.0-3.0-6.0-1.0-1.50","5f3be5b76e42ae9700e3a8af","6662009ae78f21dd82fcd179","66620a6196bb7dd754b9e5ee","null","","null","","","","","","","","./tasks/HMM-beads/Images/BlackBeadChoice.png","","","","","","","","","",""
"image-keyboard-response","288","243426","0.0-3.0-6.0-1.0-2.50","5f3be5b76e42ae9700e3a8af","6662009ae78f21dd82fcd179","66620a6196bb7dd754b9e5ee","null","","null","","","","","","","","./tasks/HMM-beads/Images/BlackBeadChoiceWrong.png","","","","","","","","","",""
"image-keyboard-response","289","243565","0.0-3.0-6.0-1.0-0.51","5f3be5b76e42ae9700e3a8af","6662009ae78f21dd82fcd179","66620a6196bb7dd754b9e5ee","139","","f","","","","","","","","./tasks/HMM-beads/Images/NewTrialWC.png","lowH","1","51","1","1","1","0","false","",""
"image-keyboard-response","290","243872","0.0-3.0-6.0-1.0-1.51","5f3be5b76e42ae9700e3a8af","6662009ae78f21dd82fcd179","66620a6196bb7dd754b9e5ee","null","","null","","","","","","","","./tasks/HMM-beads/Images/BlackBeadChoice.png","","","","","","","","","",""
"image-keyboard-response","291","244381","0.0-3.0-6.0-1.0-2.51","5f3be5b76e42ae9700e3a8af","6662009ae78f21dd82fcd179","66620a6196bb7dd754b9e5ee","null","","null","","","","","","","","./tasks/HMM-beads/Images/BlackBeadChoiceWrong.png","","","","","","","","","",""
"image-keyboard-response","292","244493","0.0-3.0-6.0-1.0-0.52","5f3be5b76e42ae9700e3a8af","6662009ae78f21dd82fcd179","66620a6196bb7dd754b9e5ee","110","","f","","","","","","","","./tasks/HMM-beads/Images/NewTrialWC.png","lowH","1","52","1","1","1","0","false","",""
"image-keyboard-response","293","244795","0.0-3.0-6.0-1.0-1.52","5f3be5b76e42ae9700e3a8af","6662009ae78f21dd82fcd179","66620a6196bb7dd754b9e5ee","null","","null","","","","","","","","./tasks/HMM-beads/Images/BlackBeadChoice.png","","","","","","","","","",""
"image-keyboard-response","294","245306","0.0-3.0-6.0-1.0-2.52","5f3be5b76e42ae9700e3a8af","6662009ae78f21dd82fcd179","66620a6196bb7dd754b9e5ee","null","","null","","","","","","","","./tasks/HMM-beads/Images/BlackBeadChoiceWrong.png","","","","","","","","","",""
"image-keyboard-response","295","245438","0.0-3.0-6.0-1.0-0.53","5f3be5b76e42ae9700e3a8af","6662009ae78f21dd82fcd179","66620a6196bb7dd754b9e5ee","131","","j","","","","","","","","./tasks/HMM-beads/Images/NewTrialWC.png","lowH","1","53","1","1","1","1","true","",""
"image-keyboard-response","296","245752","0.0-3.0-6.0-1.0-1.53","5f3be5b76e42ae9700e3a8af","6662009ae78f21dd82fcd179","66620a6196bb7dd754b9e5ee","null","","null","","","","","","","","./tasks/HMM-beads/Images/WhiteBeadChoice.png","","","","","","","","","",""
"image-keyboard-response","297","246261","0.0-3.0-6.0-1.0-2.53","5f3be5b76e42ae9700e3a8af","6662009ae78f21dd82fcd179","66620a6196bb7dd754b9e5ee","null","","null","","","","","","","","./tasks/HMM-beads/Images/WhiteBeadChoiceCorrect.png","","","","","","","","","",""
"image-keyboard-response","298","246437","0.0-3.0-6.0-1.0-0.54","5f3be5b76e42ae9700e3a8af","6662009ae78f21dd82fcd179","66620a6196bb7dd754b9e5ee","175","","j","","","","","","","","./tasks/HMM-beads/Images/NewTrialWC.png","lowH","1","54","1","1","1","1","true","",""
"image-keyboard-response","299","246738","0.0-3.0-6.0-1.0-1.54","5f3be5b76e42ae9700e3a8af","6662009ae78f21dd82fcd179","66620a6196bb7dd754b9e5ee","null","","null","","","","","","","","./tasks/HMM-beads/Images/WhiteBeadChoice.png","","","","","","","","","",""
"image-keyboard-response","300","247248","0.0-3.0-6.0-1.0-2.54","5f3be5b76e42ae9700e3a8af","6662009ae78f21dd82fcd179","66620a6196bb7dd754b9e5ee","null","","null","","","","","","","","./tasks/HMM-beads/Images/WhiteBeadChoiceCorrect.png","","","","","","","","","",""
"image-keyboard-response","301","247429","0.0-3.0-6.0-1.0-0.55","5f3be5b76e42ae9700e3a8af","6662009ae78f21dd82fcd179","66620a6196bb7dd754b9e5ee","181","","j","","","","","","","","./tasks/HMM-beads/Images/NewTrialWC.png","lowH","1","55","1","1","1","1","true","",""
"image-keyboard-response","302","247739","0.0-3.0-6.0-1.0-1.55","5f3be5b76e42ae9700e3a8af","6662009ae78f21dd82fcd179","66620a6196bb7dd754b9e5ee","null","","null","","","","","","","","./tasks/HMM-beads/Images/WhiteBeadChoice.png","","","","","","","","","",""
"image-keyboard-response","303","248246","0.0-3.0-6.0-1.0-2.55","5f3be5b76e42ae9700e3a8af","6662009ae78f21dd82fcd179","66620a6196bb7dd754b9e5ee","null","","null","","","","","","","","./tasks/HMM-beads/Images/WhiteBeadChoiceCorrect.png","","","","","","","","","",""
"image-keyboard-response","304","248357","0.0-3.0-6.0-1.0-0.56","5f3be5b76e42ae9700e3a8af","6662009ae78f21dd82fcd179","66620a6196bb7dd754b9e5ee","110","","j","","","","","","","","./tasks/HMM-beads/Images/NewTrialWC.png","lowH","1","56","1","1","1","1","true","",""
"image-keyboard-response","305","248661","0.0-3.0-6.0-1.0-1.56","5f3be5b76e42ae9700e3a8af","6662009ae78f21dd82fcd179","66620a6196bb7dd754b9e5ee","null","","null","","","","","","","","./tasks/HMM-beads/Images/WhiteBeadChoice.png","","","","","","","","","",""
"image-keyboard-response","306","249168","0.0-3.0-6.0-1.0-2.56","5f3be5b76e42ae9700e3a8af","6662009ae78f21dd82fcd179","66620a6196bb7dd754b9e5ee","null","","null","","","","","","","","./tasks/HMM-beads/Images/WhiteBeadChoiceCorrect.png","","","","","","","","","",""
"image-keyboard-response","307","249396","0.0-3.0-6.0-1.0-0.57","5f3be5b76e42ae9700e3a8af","6662009ae78f21dd82fcd179","66620a6196bb7dd754b9e5ee","227","","j","","","","","","","","./tasks/HMM-beads/Images/NewTrialWC.png","lowH","1","57","1","1","1","1","true","",""
"image-keyboard-response","308","249708","0.0-3.0-6.0-1.0-1.57","5f3be5b76e42ae9700e3a8af","6662009ae78f21dd82fcd179","66620a6196bb7dd754b9e5ee","null","","null","","","","","","","","./tasks/HMM-beads/Images/WhiteBeadChoice.png","","","","","","","","","",""
"image-keyboard-response","309","250217","0.0-3.0-6.0-1.0-2.57","5f3be5b76e42ae9700e3a8af","6662009ae78f21dd82fcd179","66620a6196bb7dd754b9e5ee","null","","null","","","","","","","","./tasks/HMM-beads/Images/WhiteBeadChoiceCorrect.png","","","","","","","","","",""
"image-keyboard-response","310","250381","0.0-3.0-6.0-1.0-0.58","5f3be5b76e42ae9700e3a8af","6662009ae78f21dd82fcd179","66620a6196bb7dd754b9e5ee","163","","j","","","","","","","","./tasks/HMM-beads/Images/NewTrialWC.png","lowH","1","58","1","1","1","1","true","",""
"image-keyboard-response","311","250695","0.0-3.0-6.0-1.0-1.58","5f3be5b76e42ae9700e3a8af","6662009ae78f21dd82fcd179","66620a6196bb7dd754b9e5ee","null","","null","","","","","","","","./tasks/HMM-beads/Images/WhiteBeadChoice.png","","","","","","","","","",""
"image-keyboard-response","312","251205","0.0-3.0-6.0-1.0-2.58","5f3be5b76e42ae9700e3a8af","6662009ae78f21dd82fcd179","66620a6196bb7dd754b9e5ee","null","","null","","","","","","","","./tasks/HMM-beads/Images/WhiteBeadChoiceCorrect.png","","","","","","","","","",""
"image-keyboard-response","313","251332","0.0-3.0-6.0-1.0-0.59","5f3be5b76e42ae9700e3a8af","6662009ae78f21dd82fcd179","66620a6196bb7dd754b9e5ee","127","","j","","","","","","","","./tasks/HMM-beads/Images/NewTrialWC.png","lowH","1","59","1","0","1","1","false","",""
"image-keyboard-response","314","251636","0.0-3.0-6.0-1.0-1.59","5f3be5b76e42ae9700e3a8af","6662009ae78f21dd82fcd179","66620a6196bb7dd754b9e5ee","null","","null","","","","","","","","./tasks/HMM-beads/Images/WhiteBeadChoice.png","","","","","","","","","",""
"image-keyboard-response","315","252143","0.0-3.0-6.0-1.0-2.59","5f3be5b76e42ae9700e3a8af","6662009ae78f21dd82fcd179","66620a6196bb7dd754b9e5ee","null","","null","","","","","","","","./tasks/HMM-beads/Images/WhiteBeadChoiceWrong.png","","","","","","","","","",""
"image-keyboard-response","316","252371","0.0-3.0-6.0-1.0-0.60","5f3be5b76e42ae9700e3a8af","6662009ae78f21dd82fcd179","66620a6196bb7dd754b9e5ee","227","","j","","","","","","","","./tasks/HMM-beads/Images/NewTrialBC.png","lowH","1","60","1","1","0","1","true","",""
"image-keyboard-response","317","252682","0.0-3.0-6.0-1.0-1.60","5f3be5b76e42ae9700e3a8af","6662009ae78f21dd82fcd179","66620a6196bb7dd754b9e5ee","null","","null","","","","","","","","./tasks/HMM-beads/Images/WhiteBeadChoice.png","","","","","","","","","",""
"image-keyboard-response","318","253191","0.0-3.0-6.0-1.0-2.60","5f3be5b76e42ae9700e3a8af","6662009ae78f21dd82fcd179","66620a6196bb7dd754b9e5ee","null","","null","","","","","","","","./tasks/HMM-beads/Images/WhiteBeadChoiceCorrect.png","","","","","","","","","",""
"image-keyboard-response","319","253307","0.0-3.0-6.0-1.0-0.61","5f3be5b76e42ae9700e3a8af","6662009ae78f21dd82fcd179","66620a6196bb7dd754b9e5ee","115","","j","","","","","","","","./tasks/HMM-beads/Images/NewTrialWC.png","lowH","1","61","1","1","1","1","true","",""
"image-keyboard-response","320","253622","0.0-3.0-6.0-1.0-1.61","5f3be5b76e42ae9700e3a8af","6662009ae78f21dd82fcd179","66620a6196bb7dd754b9e5ee","null","","null","","","","","","","","./tasks/HMM-beads/Images/WhiteBeadChoice.png","","","","","","","","","",""
"image-keyboard-response","321","254130","0.0-3.0-6.0-1.0-2.61","5f3be5b76e42ae9700e3a8af","6662009ae78f21dd82fcd179","66620a6196bb7dd754b9e5ee","null","","null","","","","","","","","./tasks/HMM-beads/Images/WhiteBeadChoiceCorrect.png","","","","","","","","","",""
"image-keyboard-response","322","254271","0.0-3.0-6.0-1.0-0.62","5f3be5b76e42ae9700e3a8af","6662009ae78f21dd82fcd179","66620a6196bb7dd754b9e5ee","141","","j","","","","","","","","./tasks/HMM-beads/Images/NewTrialWC.png","lowH","1","62","1","0","1","1","false","",""
"image-keyboard-response","323","254577","0.0-3.0-6.0-1.0-1.62","5f3be5b76e42ae9700e3a8af","6662009ae78f21dd82fcd179","66620a6196bb7dd754b9e5ee","null","","null","","","","","","","","./tasks/HMM-beads/Images/WhiteBeadChoice.png","","","","","","","","","",""
"image-keyboard-response","324","255085","0.0-3.0-6.0-1.0-2.62","5f3be5b76e42ae9700e3a8af","6662009ae78f21dd82fcd179","66620a6196bb7dd754b9e5ee","null","","null","","","","","","","","./tasks/HMM-beads/Images/WhiteBeadChoiceWrong.png","","","","","","","","","",""
"image-keyboard-response","325","255179","0.0-3.0-6.0-1.0-0.63","5f3be5b76e42ae9700e3a8af","6662009ae78f21dd82fcd179","66620a6196bb7dd754b9e5ee","93","","j","","","","","","","","./tasks/HMM-beads/Images/NewTrialBC.png","lowH","1","63","1","1","0","1","true","",""
"image-keyboard-response","326","255486","0.0-3.0-6.0-1.0-1.63","5f3be5b76e42ae9700e3a8af","6662009ae78f21dd82fcd179","66620a6196bb7dd754b9e5ee","null","","null","","","","","","","","./tasks/HMM-beads/Images/WhiteBeadChoice.png","","","","","","","","","",""
"image-keyboard-response","327","255993","0.0-3.0-6.0-1.0-2.63","5f3be5b76e42ae9700e3a8af","6662009ae78f21dd82fcd179","66620a6196bb7dd754b9e5ee","null","","null","","","","","","","","./tasks/HMM-beads/Images/WhiteBeadChoiceCorrect.png","","","","","","","","","",""
"image-keyboard-response","328","256058","0.0-3.0-6.0-1.0-0.64","5f3be5b76e42ae9700e3a8af","6662009ae78f21dd82fcd179","66620a6196bb7dd754b9e5ee","64","","j","","","","","","","","./tasks/HMM-beads/Images/NewTrialWC.png","lowH","1","64","1","1","1","1","true","",""
"image-keyboard-response","329","256362","0.0-3.0-6.0-1.0-1.64","5f3be5b76e42ae9700e3a8af","6662009ae78f21dd82fcd179","66620a6196bb7dd754b9e5ee","null","","null","","","","","","","","./tasks/HMM-beads/Images/WhiteBeadChoice.png","","","","","","","","","",""
"image-keyboard-response","330","256870","0.0-3.0-6.0-1.0-2.64","5f3be5b76e42ae9700e3a8af","6662009ae78f21dd82fcd179","66620a6196bb7dd754b9e5ee","null","","null","","","","","","","","./tasks/HMM-beads/Images/WhiteBeadChoiceCorrect.png","","","","","","","","","",""
"image-keyboard-response","331","256953","0.0-3.0-6.0-1.0-0.65","5f3be5b76e42ae9700e3a8af","6662009ae78f21dd82fcd179","66620a6196bb7dd754b9e5ee","82","","j","","","","","","","","./tasks/HMM-beads/Images/NewTrialWC.png","lowH","1","65","1","1","1","1","true","",""
"image-keyboard-response","332","257254","0.0-3.0-6.0-1.0-1.65","5f3be5b76e42ae9700e3a8af","6662009ae78f21dd82fcd179","66620a6196bb7dd754b9e5ee","null","","null","","","","","","","","./tasks/HMM-beads/Images/WhiteBeadChoice.png","","","","","","","","","",""
"image-keyboard-response","333","257762","0.0-3.0-6.0-1.0-2.65","5f3be5b76e42ae9700e3a8af","6662009ae78f21dd82fcd179","66620a6196bb7dd754b9e5ee","null","","null","","","","","","","","./tasks/HMM-beads/Images/WhiteBeadChoiceCorrect.png","","","","","","","","","",""
"image-keyboard-response","334","257893","0.0-3.0-6.0-1.0-0.66","5f3be5b76e42ae9700e3a8af","6662009ae78f21dd82fcd179","66620a6196bb7dd754b9e5ee","130","","j","","","","","","","","./tasks/HMM-beads/Images/NewTrialWC.png","lowH","1","66","1","1","1","1","true","",""
"image-keyboard-response","335","258208","0.0-3.0-6.0-1.0-1.66","5f3be5b76e42ae9700e3a8af","6662009ae78f21dd82fcd179","66620a6196bb7dd754b9e5ee","null","","null","","","","","","","","./tasks/HMM-beads/Images/WhiteBeadChoice.png","","","","","","","","","",""
"image-keyboard-response","336","258716","0.0-3.0-6.0-1.0-2.66","5f3be5b76e42ae9700e3a8af","6662009ae78f21dd82fcd179","66620a6196bb7dd754b9e5ee","null","","null","","","","","","","","./tasks/HMM-beads/Images/WhiteBeadChoiceCorrect.png","","","","","","","","","",""
"image-keyboard-response","337","258849","0.0-3.0-6.0-1.0-0.67","5f3be5b76e42ae9700e3a8af","6662009ae78f21dd82fcd179","66620a6196bb7dd754b9e5ee","132","","j","","","","","","","","./tasks/HMM-beads/Images/NewTrialWC.png","lowH","1","67","1","0","1","1","false","",""
"image-keyboard-response","338","259161","0.0-3.0-6.0-1.0-1.67","5f3be5b76e42ae9700e3a8af","6662009ae78f21dd82fcd179","66620a6196bb7dd754b9e5ee","null","","null","","","","","","","","./tasks/HMM-beads/Images/WhiteBeadChoice.png","","","","","","","","","",""
"image-keyboard-response","339","259669","0.0-3.0-6.0-1.0-2.67","5f3be5b76e42ae9700e3a8af","6662009ae78f21dd82fcd179","66620a6196bb7dd754b9e5ee","null","","null","","","","","","","","./tasks/HMM-beads/Images/WhiteBeadChoiceWrong.png","","","","","","","","","",""
"image-keyboard-response","340","259933","0.0-3.0-6.0-1.0-0.68","5f3be5b76e42ae9700e3a8af","6662009ae78f21dd82fcd179","66620a6196bb7dd754b9e5ee","263","","j","","","","","","","","./tasks/HMM-beads/Images/NewTrialBC.png","lowH","1","68","1","1","0","1","true","",""
"image-keyboard-response","341","260240","0.0-3.0-6.0-1.0-1.68","5f3be5b76e42ae9700e3a8af","6662009ae78f21dd82fcd179","66620a6196bb7dd754b9e5ee","null","","null","","","","","","","","./tasks/HMM-beads/Images/WhiteBeadChoice.png","","","","","","","","","",""
"image-keyboard-response","342","260746","0.0-3.0-6.0-1.0-2.68","5f3be5b76e42ae9700e3a8af","6662009ae78f21dd82fcd179","66620a6196bb7dd754b9e5ee","null","","null","","","","","","","","./tasks/HMM-beads/Images/WhiteBeadChoiceCorrect.png","","","","","","","","","",""
"image-keyboard-response","343","260939","0.0-3.0-6.0-1.0-0.69","5f3be5b76e42ae9700e3a8af","6662009ae78f21dd82fcd179","66620a6196bb7dd754b9e5ee","192","","j","","","","","","","","./tasks/HMM-beads/Images/NewTrialWC.png","lowH","1","69","0","1","1","1","true","",""
"image-keyboard-response","344","261254","0.0-3.0-6.0-1.0-1.69","5f3be5b76e42ae9700e3a8af","6662009ae78f21dd82fcd179","66620a6196bb7dd754b9e5ee","null","","null","","","","","","","","./tasks/HMM-beads/Images/WhiteBeadChoice.png","","","","","","","","","",""
"image-keyboard-response","345","261761","0.0-3.0-6.0-1.0-2.69","5f3be5b76e42ae9700e3a8af","6662009ae78f21dd82fcd179","66620a6196bb7dd754b9e5ee","null","","null","","","","","","","","./tasks/HMM-beads/Images/WhiteBeadChoiceCorrect.png","","","","","","","","","",""
"image-keyboard-response","346","261911","0.0-3.0-6.0-1.0-0.70","5f3be5b76e42ae9700e3a8af","6662009ae78f21dd82fcd179","66620a6196bb7dd754b9e5ee","149","","j","","","","","","","","./tasks/HMM-beads/Images/NewTrialWC.png","lowH","1","70","0","1","1","1","true","",""
"image-keyboard-response","347","262222","0.0-3.0-6.0-1.0-1.70","5f3be5b76e42ae9700e3a8af","6662009ae78f21dd82fcd179","66620a6196bb7dd754b9e5ee","null","","null","","","","","","","","./tasks/HMM-beads/Images/WhiteBeadChoice.png","","","","","","","","","",""
"image-keyboard-response","348","262731","0.0-3.0-6.0-1.0-2.70","5f3be5b76e42ae9700e3a8af","6662009ae78f21dd82fcd179","66620a6196bb7dd754b9e5ee","null","","null","","","","","","","","./tasks/HMM-beads/Images/WhiteBeadChoiceCorrect.png","","","","","","","","","",""
"image-keyboard-response","349","262871","0.0-3.0-6.0-1.0-0.71","5f3be5b76e42ae9700e3a8af","6662009ae78f21dd82fcd179","66620a6196bb7dd754b9e5ee","139","","j","","","","","","","","./tasks/HMM-beads/Images/NewTrialWC.png","lowH","1","71","0","0","1","1","false","",""
"image-keyboard-response","350","263176","0.0-3.0-6.0-1.0-1.71","5f3be5b76e42ae9700e3a8af","6662009ae78f21dd82fcd179","66620a6196bb7dd754b9e5ee","null","","null","","","","","","","","./tasks/HMM-beads/Images/WhiteBeadChoice.png","","","","","","","","","",""
"image-keyboard-response","351","263683","0.0-3.0-6.0-1.0-2.71","5f3be5b76e42ae9700e3a8af","6662009ae78f21dd82fcd179","66620a6196bb7dd754b9e5ee","null","","null","","","","","","","","./tasks/HMM-beads/Images/WhiteBeadChoiceWrong.png","","","","","","","","","",""
"image-keyboard-response","352","263911","0.0-3.0-6.0-1.0-0.72","5f3be5b76e42ae9700e3a8af","6662009ae78f21dd82fcd179","66620a6196bb7dd754b9e5ee","227","","j","","","","","","","","./tasks/HMM-beads/Images/NewTrialBC.png","lowH","1","72","0","0","0","1","false","",""
"image-keyboard-response","353","264222","0.0-3.0-6.0-1.0-1.72","5f3be5b76e42ae9700e3a8af","6662009ae78f21dd82fcd179","66620a6196bb7dd754b9e5ee","null","","null","","","","","","","","./tasks/HMM-beads/Images/WhiteBeadChoice.png","","","","","","","","","",""
"image-keyboard-response","354","264729","0.0-3.0-6.0-1.0-2.72","5f3be5b76e42ae9700e3a8af","6662009ae78f21dd82fcd179","66620a6196bb7dd754b9e5ee","null","","null","","","","","","","","./tasks/HMM-beads/Images/WhiteBeadChoiceWrong.png","","","","","","","","","",""
"image-keyboard-response","355","264952","0.0-3.0-6.0-1.0-0.73","5f3be5b76e42ae9700e3a8af","6662009ae78f21dd82fcd179","66620a6196bb7dd754b9e5ee","223","","j","","","","","","","","./tasks/HMM-beads/Images/NewTrialBC.png","lowH","1","73","0","1","0","1","true","",""
"image-keyboard-response","356","265268","0.0-3.0-6.0-1.0-1.73","5f3be5b76e42ae9700e3a8af","6662009ae78f21dd82fcd179","66620a6196bb7dd754b9e5ee","null","","null","","","","","","","","./tasks/HMM-beads/Images/WhiteBeadChoice.png","","","","","","","","","",""
"image-keyboard-response","357","265777","0.0-3.0-6.0-1.0-2.73","5f3be5b76e42ae9700e3a8af","6662009ae78f21dd82fcd179","66620a6196bb7dd754b9e5ee","null","","null","","","","","","","","./tasks/HMM-beads/Images/WhiteBeadChoiceCorrect.png","","","","","","","","","",""
"image-keyboard-response","358","265961","0.0-3.0-6.0-1.0-0.74","5f3be5b76e42ae9700e3a8af","6662009ae78f21dd82fcd179","66620a6196bb7dd754b9e5ee","183","","j","","","","","","","","./tasks/HMM-beads/Images/NewTrialWC.png","lowH","1","74","0","0","1","1","false","",""
"image-keyboard-response","359","266270","0.0-3.0-6.0-1.0-1.74","5f3be5b76e42ae9700e3a8af","6662009ae78f21dd82fcd179","66620a6196bb7dd754b9e5ee","null","","null","","","","","","","","./tasks/HMM-beads/Images/WhiteBeadChoice.png","","","","","","","","","",""
"image-keyboard-response","360","266778","0.0-3.0-6.0-1.0-2.74","5f3be5b76e42ae9700e3a8af","6662009ae78f21dd82fcd179","66620a6196bb7dd754b9e5ee","null","","null","","","","","","","","./tasks/HMM-beads/Images/WhiteBeadChoiceWrong.png","","","","","","","","","",""
"image-keyboard-response","361","266934","0.0-3.0-6.0-1.0-0.75","5f3be5b76e42ae9700e3a8af","6662009ae78f21dd82fcd179","66620a6196bb7dd754b9e5ee","155","","f","","","","","","","","./tasks/HMM-beads/Images/NewTrialBC.png","lowH","1","75","0","1","0","0","false","",""
"image-keyboard-response","362","267239","0.0-3.0-6.0-1.0-1.75","5f3be5b76e42ae9700e3a8af","6662009ae78f21dd82fcd179","66620a6196bb7dd754b9e5ee","null","","null","","","","","","","","./tasks/HMM-beads/Images/BlackBeadChoice.png","","","","","","","","","",""
"image-keyboard-response","363","267746","0.0-3.0-6.0-1.0-2.75","5f3be5b76e42ae9700e3a8af","6662009ae78f21dd82fcd179","66620a6196bb7dd754b9e5ee","null","","null","","","","","","","","./tasks/HMM-beads/Images/BlackBeadChoiceWrong.png","","","","","","","","","",""
"image-keyboard-response","364","267861","0.0-3.0-6.0-1.0-0.76","5f3be5b76e42ae9700e3a8af","6662009ae78f21dd82fcd179","66620a6196bb7dd754b9e5ee","114","","j","","","","","","","","./tasks/HMM-beads/Images/NewTrialWC.png","lowH","1","76","0","1","1","1","true","",""
"image-keyboard-response","365","268177","0.0-3.0-6.0-1.0-1.76","5f3be5b76e42ae9700e3a8af","6662009ae78f21dd82fcd179","66620a6196bb7dd754b9e5ee","null","","null","","","","","","","","./tasks/HMM-beads/Images/WhiteBeadChoice.png","","","","","","","","","",""
"image-keyboard-response","366","268684","0.0-3.0-6.0-1.0-2.76","5f3be5b76e42ae9700e3a8af","6662009ae78f21dd82fcd179","66620a6196bb7dd754b9e5ee","null","","null","","","","","","","","./tasks/HMM-beads/Images/WhiteBeadChoiceCorrect.png","","","","","","","","","",""
"image-keyboard-response","367","268875","0.0-3.0-6.0-1.0-0.77","5f3be5b76e42ae9700e3a8af","6662009ae78f21dd82fcd179","66620a6196bb7dd754b9e5ee","189","","j","","","","","","","","./tasks/HMM-beads/Images/NewTrialWC.png","lowH","1","77","0","0","1","1","false","",""
"image-keyboard-response","368","269177","0.0-3.0-6.0-1.0-1.77","5f3be5b76e42ae9700e3a8af","6662009ae78f21dd82fcd179","66620a6196bb7dd754b9e5ee","null","","null","","","","","","","","./tasks/HMM-beads/Images/WhiteBeadChoice.png","","","","","","","","","",""
"image-keyboard-response","369","269685","0.0-3.0-6.0-1.0-2.77","5f3be5b76e42ae9700e3a8af","6662009ae78f21dd82fcd179","66620a6196bb7dd754b9e5ee","null","","null","","","","","","","","./tasks/HMM-beads/Images/WhiteBeadChoiceWrong.png","","","","","","","","","",""
"image-keyboard-response","370","269931","0.0-3.0-6.0-1.0-0.78","5f3be5b76e42ae9700e3a8af","6662009ae78f21dd82fcd179","66620a6196bb7dd754b9e5ee","245","","j","","","","","","","","./tasks/HMM-beads/Images/NewTrialBC.png","lowH","1","78","0","0","0","1","false","",""
"image-keyboard-response","371","270240","0.0-3.0-6.0-1.0-1.78","5f3be5b76e42ae9700e3a8af","6662009ae78f21dd82fcd179","66620a6196bb7dd754b9e5ee","null","","null","","","","","","","","./tasks/HMM-beads/Images/WhiteBeadChoice.png","","","","","","","","","",""
"image-keyboard-response","372","270747","0.0-3.0-6.0-1.0-2.78","5f3be5b76e42ae9700e3a8af","6662009ae78f21dd82fcd179","66620a6196bb7dd754b9e5ee","null","","null","","","","","","","","./tasks/HMM-beads/Images/WhiteBeadChoiceWrong.png","","","","","","","","","",""
"image-keyboard-response","373","270979","0.0-3.0-6.0-1.0-0.79","5f3be5b76e42ae9700e3a8af","6662009ae78f21dd82fcd179","66620a6196bb7dd754b9e5ee","231","","j","","","","","","","","./tasks/HMM-beads/Images/NewTrialBC.png","lowH","1","79","0","0","0","1","false","",""
"image-keyboard-response","374","271287","0.0-3.0-6.0-1.0-1.79","5f3be5b76e42ae9700e3a8af","6662009ae78f21dd82fcd179","66620a6196bb7dd754b9e5ee","null","","null","","","","","","","","./tasks/HMM-beads/Images/WhiteBeadChoice.png","","","","","","","","","",""
