"trial_type","trial_index","time_elapsed","internal_node_id","subject_id","study_id","session_id","rt","url","response","question_order","view_history","success","timeout","failed_images","failed_audio","failed_video","stimulus","block","block_rep","trial_number","jar","bead","previous_bead","choice","correct","lowH_score","total_bonus"
"pavlovia","0","1422","0.0-0.0","6441a242a7d85d5c3e49a173","6662009ae78f21dd82fcd179","666206c324de6e03c47137ca","","","","","","","","","","","","","","","","","","","","",""
"external-html","1","30857","0.0-1.0-0.0","6441a242a7d85d5c3e49a173","6662009ae78f21dd82fcd179","666206c324de6e03c47137ca","29285","new_consent.html","","","","","","","","","","","","","","","","","","",""
"survey-multi-choice","2","41353","0.0-1.0-1.0","6441a242a7d85d5c3e49a173","6662009ae78f21dd82fcd179","666206c324de6e03c47137ca","10495","","{""Q0"":""Male"",""Q1"":""Do Not Wish to Respond""}","[0,1]","","","","","","","","","","","","","","","","",""
"survey-text","3","44349","0.0-1.0-2.0","6441a242a7d85d5c3e49a173","6662009ae78f21dd82fcd179","666206c324de6e03c47137ca","2993","","{""Q0"":""33""}","","","","","","","","","","","","","","","","","",""
"instructions","4","46796","0.0-2.0","6441a242a7d85d5c3e49a173","6662009ae78f21dd82fcd179","666206c324de6e03c47137ca","2337","","","","[{""page_index"":0,""viewing_time"":2337}]","","","","","","","","","","","","","","","",""
"preload","5","53816","0.0-3.0-0.0","6441a242a7d85d5c3e49a173","6662009ae78f21dd82fcd179","666206c324de6e03c47137ca","","","","","","true","false","[]","[]","[]","","","","","","","","","","",""
"instructions","6","195436","0.0-3.0-1.0","6441a242a7d85d5c3e49a173","6662009ae78f21dd82fcd179","666206c324de6e03c47137ca","141619","","","","[{""page_index"":0,""viewing_time"":22657},{""page_index"":1,""viewing_time"":12680},{""page_index"":2,""viewing_time"":7954},{""page_index"":3,""viewing_time"":6076},{""page_index"":4,""viewing_time"":13987},{""page_index"":5,""viewing_time"":23801},{""page_index"":6,""viewing_time"":10175},{""page_index"":7,""viewing_time"":10945},{""page_index"":8,""viewing_time"":9487},{""page_index"":9,""viewing_time"":6312},{""page_index"":10,""viewing_time"":13441},{""page_index"":11,""viewing_time"":4105}]","","","","","","","","","","","","","","","",""
"html-button-response","7","199681","0.0-3.0-2.0-0.0-0.0","6441a242a7d85d5c3e49a173","6662009ae78f21dd82fcd179","666206c324de6e03c47137ca","4244","","1","","","","","","","","<div align=center>Your goal is to predict…?<br><br></div>","","","","","","","","","",""
"html-button-response","8","208643","0.0-3.0-2.0-1.0-0.0","6441a242a7d85d5c3e49a173","6662009ae78f21dd82fcd179","666206c324de6e03c47137ca","7170","","2","","","","","","","","<div align=center>In the jar with mostly white beads, there are ___% white beads and ___% black beads?<br><br></div>","","","","","","","","","",""
"html-button-response","9","217255","0.0-3.0-2.0-2.0-0.0","6441a242a7d85d5c3e49a173","6662009ae78f21dd82fcd179","666206c324de6e03c47137ca","7383","","0","","","","","","","","<div align=center>When there is a 1% probability that the jars will switch, the next bead will most likely be drawn from the…<br><br></div>","","","","","","","","","",""
"html-button-response","10","223067","0.0-3.0-2.0-3.0-0.0","6441a242a7d85d5c3e49a173","6662009ae78f21dd82fcd179","666206c324de6e03c47137ca","4607","","1","","","","","","","","<div align=center>When there is a 99% probability that the jars will switch, the next bead will most likely be drawn from the…<br><br></div>","","","","","","","","","",""
"instructions","11","235831","0.0-3.0-3.0","6441a242a7d85d5c3e49a173","6662009ae78f21dd82fcd179","666206c324de6e03c47137ca","11667","","","","[{""page_index"":0,""viewing_time"":11666}]","","","","","","","","","","","","","","","",""
"html-keyboard-response","12","240887","0.0-3.0-4.0-0.0","6441a242a7d85d5c3e49a173","6662009ae78f21dd82fcd179","666206c324de6e03c47137ca","5056",""," ","","","","","","","","<div align=center>In this practice block, there will be a <b>1% chance</b> that the jar on the next trial will be different from the jar on the current trial.<br><br></div>","","","","","","","","","",""
"image-keyboard-response","13","246973","0.0-3.0-4.0-1.0-0.0","6441a242a7d85d5c3e49a173","6662009ae78f21dd82fcd179","666206c324de6e03c47137ca","6084","","f","","","","","","","","./tasks/HMM-beads/Images/NoChoice.png","practice","0","0","0","0","9","0","true","",""
"image-keyboard-response","14","247276","0.0-3.0-4.0-1.0-1.0","6441a242a7d85d5c3e49a173","6662009ae78f21dd82fcd179","666206c324de6e03c47137ca","null","","null","","","","","","","","./tasks/HMM-beads/Images/BlackBeadChoice.png","","","","","","","","","",""
"image-keyboard-response","15","247787","0.0-3.0-4.0-1.0-2.0","6441a242a7d85d5c3e49a173","6662009ae78f21dd82fcd179","666206c324de6e03c47137ca","null","","null","","","","","","","","./tasks/HMM-beads/Images/BlackBeadChoiceCorrect.png","","","","","","","","","",""
"image-keyboard-response","16","251764","0.0-3.0-4.0-1.0-0.1","6441a242a7d85d5c3e49a173","6662009ae78f21dd82fcd179","666206c324de6e03c47137ca","3977","","f","","","","","","","","./tasks/HMM-beads/Images/NewTrialBC.png","practice","0","1","0","0","0","0","true","",""
"image-keyboard-response","17","252066","0.0-3.0-4.0-1.0-1.1","6441a242a7d85d5c3e49a173","6662009ae78f21dd82fcd179","666206c324de6e03c47137ca","null","","null","","","","","","","","./tasks/HMM-beads/Images/BlackBeadChoice.png","","","","","","","","","",""
"image-keyboard-response","18","252582","0.0-3.0-4.0-1.0-2.1","6441a242a7d85d5c3e49a173","6662009ae78f21dd82fcd179","666206c324de6e03c47137ca","null","","null","","","","","","","","./tasks/HMM-beads/Images/BlackBeadChoiceCorrect.png","","","","","","","","","",""
"image-keyboard-response","19","254761","0.0-3.0-4.0-1.0-0.2","6441a242a7d85d5c3e49a173","6662009ae78f21dd82fcd179","666206c324de6e03c47137ca","2179","","f","","","","","","","","./tasks/HMM-beads/Images/NewTrialBC.png","practice","0","2","0","1","0","0","false","",""
"image-keyboard-response","20","255075","0.0-3.0-4.0-1.0-1.2","6441a242a7d85d5c3e49a173","6662009ae78f21dd82fcd179","666206c324de6e03c47137ca","null","","null","","","","","","","","./tasks/HMM-beads/Images/BlackBeadChoice.png","","","","","","","","","",""
"image-keyboard-response","21","255589","0.0-3.0-4.0-1.0-2.2","6441a242a7d85d5c3e49a173","6662009ae78f21dd82fcd179","666206c324de6e03c47137ca","null","","null","","","","","","","","./tasks/HMM-beads/Images/BlackBeadChoiceWrong.png","","","","","","","","","",""
"image-keyboard-response","22","257706","0.0-3.0-4.0-1.0-0.3","6441a242a7d85d5c3e49a173","6662009ae78f21dd82fcd179","666206c324de6e03c47137ca","2117","","f","","","","","","","","./tasks/HMM-beads/Images/NewTrialWC.png","practice","0","3","0","0","1","0","true","",""
"image-keyboard-response","23","258017","0.0-3.0-4.0-1.0-1.3","6441a242a7d85d5c3e49a173","6662009ae78f21dd82fcd179","666206c324de6e03c47137ca","null","","null","","","","","","","","./tasks/HMM-beads/Images/BlackBeadChoice.png","","","","","","","","","",""
"image-keyboard-response","24","258531","0.0-3.0-4.0-1.0-2.3","6441a242a7d85d5c3e49a173","6662009ae78f21dd82fcd179","666206c324de6e03c47137ca","null","","null","","","","","","","","./tasks/HMM-beads/Images/BlackBeadChoiceCorrect.png","","","","","","","","","",""
"image-keyboard-response","25","260366","0.0-3.0-4.0-1.0-0.4","6441a242a7d85d5c3e49a173","6662009ae78f21dd82fcd179","666206c324de6e03c47137ca","1830","","f","","","","","","","","./tasks/HMM-beads/Images/NewTrialBC.png","practice","0","4","0","0","0","0","true","",""
"image-keyboard-response","26","260669","0.0-3.0-4.0-1.0-1.4","6441a242a7d85d5c3e49a173","6662009ae78f21dd82fcd179","666206c324de6e03c47137ca","null","","null","","","","","","","","./tasks/HMM-beads/Images/BlackBeadChoice.png","","","","","","","","","",""
"image-keyboard-response","27","261183","0.0-3.0-4.0-1.0-2.4","6441a242a7d85d5c3e49a173","6662009ae78f21dd82fcd179","666206c324de6e03c47137ca","null","","null","","","","","","","","./tasks/HMM-beads/Images/BlackBeadChoiceCorrect.png","","","","","","","","","",""
"image-keyboard-response","28","262633","0.0-3.0-4.0-1.0-0.5","6441a242a7d85d5c3e49a173","6662009ae78f21dd82fcd179","666206c324de6e03c47137ca","1450","","f","","","","","","","","./tasks/HMM-beads/Images/NewTrialBC.png","practice","0","5","0","1","0","0","false","",""
"image-keyboard-response","29","262943","0.0-3.0-4.0-1.0-1.5","6441a242a7d85d5c3e49a173","6662009ae78f21dd82fcd179","666206c324de6e03c47137ca","null","","null","","","","","","","","./tasks/HMM-beads/Images/BlackBeadChoice.png","","","","","","","","","",""
"image-keyboard-response","30","263454","0.0-3.0-4.0-1.0-2.5","6441a242a7d85d5c3e49a173","6662009ae78f21dd82fcd179","666206c324de6e03c47137ca","null","","null","","","","","","","","./tasks/HMM-beads/Images/BlackBeadChoiceWrong.png","","","","","","","","","",""
"image-keyboard-response","31","265213","0.0-3.0-4.0-1.0-0.6","6441a242a7d85d5c3e49a173","6662009ae78f21dd82fcd179","666206c324de6e03c47137ca","1758","","f","","","","","","","","./tasks/HMM-beads/Images/NewTrialWC.png","practice","0","6","0","0","1","0","true","",""
"image-keyboard-response","32","265516","0.0-3.0-4.0-1.0-1.6","6441a242a7d85d5c3e49a173","6662009ae78f21dd82fcd179","666206c324de6e03c47137ca","null","","null","","","","","","","","./tasks/HMM-beads/Images/BlackBeadChoice.png","","","","","","","","","",""
"image-keyboard-response","33","266029","0.0-3.0-4.0-1.0-2.6","6441a242a7d85d5c3e49a173","6662009ae78f21dd82fcd179","666206c324de6e03c47137ca","null","","null","","","","","","","","./tasks/HMM-beads/Images/BlackBeadChoiceCorrect.png","","","","","","","","","",""
"image-keyboard-response","34","267515","0.0-3.0-4.0-1.0-0.7","6441a242a7d85d5c3e49a173","6662009ae78f21dd82fcd179","666206c324de6e03c47137ca","1486","","f","","","","","","","","./tasks/HMM-beads/Images/NewTrialBC.png","practice","0","7","0","0","0","0","true","",""
"image-keyboard-response","35","267825","0.0-3.0-4.0-1.0-1.7","6441a242a7d85d5c3e49a173","6662009ae78f21dd82fcd179","666206c324de6e03c47137ca","null","","null","","","","","","","","./tasks/HMM-beads/Images/BlackBeadChoice.png","","","","","","","","","",""
"image-keyboard-response","36","268326","0.0-3.0-4.0-1.0-2.7","6441a242a7d85d5c3e49a173","6662009ae78f21dd82fcd179","666206c324de6e03c47137ca","null","","null","","","","","","","","./tasks/HMM-beads/Images/BlackBeadChoiceCorrect.png","","","","","","","","","",""
"image-keyboard-response","37","269320","0.0-3.0-4.0-1.0-0.8","6441a242a7d85d5c3e49a173","6662009ae78f21dd82fcd179","666206c324de6e03c47137ca","993","","f","","","","","","","","./tasks/HMM-beads/Images/NewTrialBC.png","practice","0","8","0","0","0","0","true","",""
"image-keyboard-response","38","269632","0.0-3.0-4.0-1.0-1.8","6441a242a7d85d5c3e49a173","6662009ae78f21dd82fcd179","666206c324de6e03c47137ca","null","","null","","","","","","","","./tasks/HMM-beads/Images/BlackBeadChoice.png","","","","","","","","","",""
"image-keyboard-response","39","270145","0.0-3.0-4.0-1.0-2.8","6441a242a7d85d5c3e49a173","6662009ae78f21dd82fcd179","666206c324de6e03c47137ca","null","","null","","","","","","","","./tasks/HMM-beads/Images/BlackBeadChoiceCorrect.png","","","","","","","","","",""
"image-keyboard-response","40","270560","0.0-3.0-4.0-1.0-0.9","6441a242a7d85d5c3e49a173","6662009ae78f21dd82fcd179","666206c324de6e03c47137ca","415","","f","","","","","","","","./tasks/HMM-beads/Images/NewTrialBC.png","practice","0","9","0","1","0","0","false","",""
"image-keyboard-response","41","270862","0.0-3.0-4.0-1.0-1.9","6441a242a7d85d5c3e49a173","6662009ae78f21dd82fcd179","666206c324de6e03c47137ca","null","","null","","","","","","","","./tasks/HMM-beads/Images/BlackBeadChoice.png","","","","","","","","","",""
"image-keyboard-response","42","271363","0.0-3.0-4.0-1.0-2.9","6441a242a7d85d5c3e49a173","6662009ae78f21dd82fcd179","666206c324de6e03c47137ca","null","","null","","","","","","","","./tasks/HMM-beads/Images/BlackBeadChoiceWrong.png","","","","","","","","","",""
"image-keyboard-response","43","271921","0.0-3.0-4.0-1.0-0.10","6441a242a7d85d5c3e49a173","6662009ae78f21dd82fcd179","666206c324de6e03c47137ca","557","","f","","","","","","","","./tasks/HMM-beads/Images/NewTrialWC.png","practice","0","10","0","0","1","0","true","",""
"image-keyboard-response","44","272235","0.0-3.0-4.0-1.0-1.10","6441a242a7d85d5c3e49a173","6662009ae78f21dd82fcd179","666206c324de6e03c47137ca","null","","null","","","","","","","","./tasks/HMM-beads/Images/BlackBeadChoice.png","","","","","","","","","",""
"image-keyboard-response","45","272749","0.0-3.0-4.0-1.0-2.10","6441a242a7d85d5c3e49a173","6662009ae78f21dd82fcd179","666206c324de6e03c47137ca","null","","null","","","","","","","","./tasks/HMM-beads/Images/BlackBeadChoiceCorrect.png","","","","","","","","","",""
"image-keyboard-response","46","273438","0.0-3.0-4.0-1.0-0.11","6441a242a7d85d5c3e49a173","6662009ae78f21dd82fcd179","666206c324de6e03c47137ca","689","","f","","","","","","","","./tasks/HMM-beads/Images/NewTrialBC.png","practice","0","11","0","1","0","0","false","",""
"image-keyboard-response","47","273746","0.0-3.0-4.0-1.0-1.11","6441a242a7d85d5c3e49a173","6662009ae78f21dd82fcd179","666206c324de6e03c47137ca","null","","null","","","","","","","","./tasks/HMM-beads/Images/BlackBeadChoice.png","","","","","","","","","",""
"image-keyboard-response","48","274259","0.0-3.0-4.0-1.0-2.11","6441a242a7d85d5c3e49a173","6662009ae78f21dd82fcd179","666206c324de6e03c47137ca","null","","null","","","","","","","","./tasks/HMM-beads/Images/BlackBeadChoiceWrong.png","","","","","","","","","",""
"image-keyboard-response","49","275081","0.0-3.0-4.0-1.0-0.12","6441a242a7d85d5c3e49a173","6662009ae78f21dd82fcd179","666206c324de6e03c47137ca","822","","f","","","","","","","","./tasks/HMM-beads/Images/NewTrialWC.png","practice","0","12","0","0","1","0","true","",""
"image-keyboard-response","50","275395","0.0-3.0-4.0-1.0-1.12","6441a242a7d85d5c3e49a173","6662009ae78f21dd82fcd179","666206c324de6e03c47137ca","null","","null","","","","","","","","./tasks/HMM-beads/Images/BlackBeadChoice.png","","","","","","","","","",""
"image-keyboard-response","51","275909","0.0-3.0-4.0-1.0-2.12","6441a242a7d85d5c3e49a173","6662009ae78f21dd82fcd179","666206c324de6e03c47137ca","null","","null","","","","","","","","./tasks/HMM-beads/Images/BlackBeadChoiceCorrect.png","","","","","","","","","",""
"image-keyboard-response","52","277061","0.0-3.0-4.0-1.0-0.13","6441a242a7d85d5c3e49a173","6662009ae78f21dd82fcd179","666206c324de6e03c47137ca","1152","","f","","","","","","","","./tasks/HMM-beads/Images/NewTrialBC.png","practice","0","13","0","0","0","0","true","",""
"image-keyboard-response","53","277368","0.0-3.0-4.0-1.0-1.13","6441a242a7d85d5c3e49a173","6662009ae78f21dd82fcd179","666206c324de6e03c47137ca","null","","null","","","","","","","","./tasks/HMM-beads/Images/BlackBeadChoice.png","","","","","","","","","",""
"image-keyboard-response","54","277883","0.0-3.0-4.0-1.0-2.13","6441a242a7d85d5c3e49a173","6662009ae78f21dd82fcd179","666206c324de6e03c47137ca","null","","null","","","","","","","","./tasks/HMM-beads/Images/BlackBeadChoiceCorrect.png","","","","","","","","","",""
"image-keyboard-response","55","279491","0.0-3.0-4.0-1.0-0.14","6441a242a7d85d5c3e49a173","6662009ae78f21dd82fcd179","666206c324de6e03c47137ca","1608","","f","","","","","","","","./tasks/HMM-beads/Images/NewTrialBC.png","practice","0","14","0","0","0","0","true","",""
"image-keyboard-response","56","279797","0.0-3.0-4.0-1.0-1.14","6441a242a7d85d5c3e49a173","6662009ae78f21dd82fcd179","666206c324de6e03c47137ca","null","","null","","","","","","","","./tasks/HMM-beads/Images/BlackBeadChoice.png","","","","","","","","","",""
"image-keyboard-response","57","280312","0.0-3.0-4.0-1.0-2.14","6441a242a7d85d5c3e49a173","6662009ae78f21dd82fcd179","666206c324de6e03c47137ca","null","","null","","","","","","","","./tasks/HMM-beads/Images/BlackBeadChoiceCorrect.png","","","","","","","","","",""
"image-keyboard-response","58","281024","0.0-3.0-4.0-1.0-0.15","6441a242a7d85d5c3e49a173","6662009ae78f21dd82fcd179","666206c324de6e03c47137ca","711","","f","","","","","","","","./tasks/HMM-beads/Images/NewTrialBC.png","practice","0","15","0","0","0","0","true","",""
"image-keyboard-response","59","281334","0.0-3.0-4.0-1.0-1.15","6441a242a7d85d5c3e49a173","6662009ae78f21dd82fcd179","666206c324de6e03c47137ca","null","","null","","","","","","","","./tasks/HMM-beads/Images/BlackBeadChoice.png","","","","","","","","","",""
"image-keyboard-response","60","281836","0.0-3.0-4.0-1.0-2.15","6441a242a7d85d5c3e49a173","6662009ae78f21dd82fcd179","666206c324de6e03c47137ca","null","","null","","","","","","","","./tasks/HMM-beads/Images/BlackBeadChoiceCorrect.png","","","","","","","","","",""
"image-keyboard-response","61","282528","0.0-3.0-4.0-1.0-0.16","6441a242a7d85d5c3e49a173","6662009ae78f21dd82fcd179","666206c324de6e03c47137ca","692","","f","","","","","","","","./tasks/HMM-beads/Images/NewTrialBC.png","practice","0","16","0","0","0","0","true","",""
"image-keyboard-response","62","282837","0.0-3.0-4.0-1.0-1.16","6441a242a7d85d5c3e49a173","6662009ae78f21dd82fcd179","666206c324de6e03c47137ca","null","","null","","","","","","","","./tasks/HMM-beads/Images/BlackBeadChoice.png","","","","","","","","","",""
"image-keyboard-response","63","283350","0.0-3.0-4.0-1.0-2.16","6441a242a7d85d5c3e49a173","6662009ae78f21dd82fcd179","666206c324de6e03c47137ca","null","","null","","","","","","","","./tasks/HMM-beads/Images/BlackBeadChoiceCorrect.png","","","","","","","","","",""
"image-keyboard-response","64","284681","0.0-3.0-4.0-1.0-0.17","6441a242a7d85d5c3e49a173","6662009ae78f21dd82fcd179","666206c324de6e03c47137ca","1329","","f","","","","","","","","./tasks/HMM-beads/Images/NewTrialBC.png","practice","0","17","0","0","0","0","true","",""
"image-keyboard-response","65","284983","0.0-3.0-4.0-1.0-1.17","6441a242a7d85d5c3e49a173","6662009ae78f21dd82fcd179","666206c324de6e03c47137ca","null","","null","","","","","","","","./tasks/HMM-beads/Images/BlackBeadChoice.png","","","","","","","","","",""
"image-keyboard-response","66","285497","0.0-3.0-4.0-1.0-2.17","6441a242a7d85d5c3e49a173","6662009ae78f21dd82fcd179","666206c324de6e03c47137ca","null","","null","","","","","","","","./tasks/HMM-beads/Images/BlackBeadChoiceCorrect.png","","","","","","","","","",""
"image-keyboard-response","67","286113","0.0-3.0-4.0-1.0-0.18","6441a242a7d85d5c3e49a173","6662009ae78f21dd82fcd179","666206c324de6e03c47137ca","615","","f","","","","","","","","./tasks/HMM-beads/Images/NewTrialBC.png","practice","0","18","0","1","0","0","false","",""
"image-keyboard-response","68","286426","0.0-3.0-4.0-1.0-1.18","6441a242a7d85d5c3e49a173","6662009ae78f21dd82fcd179","666206c324de6e03c47137ca","null","","null","","","","","","","","./tasks/HMM-beads/Images/BlackBeadChoice.png","","","","","","","","","",""
"image-keyboard-response","69","286939","0.0-3.0-4.0-1.0-2.18","6441a242a7d85d5c3e49a173","6662009ae78f21dd82fcd179","666206c324de6e03c47137ca","null","","null","","","","","","","","./tasks/HMM-beads/Images/BlackBeadChoiceWrong.png","","","","","","","","","",""
"image-keyboard-response","70","287206","0.0-3.0-4.0-1.0-0.19","6441a242a7d85d5c3e49a173","6662009ae78f21dd82fcd179","666206c324de6e03c47137ca","266","","j","","","","","","","","./tasks/HMM-beads/Images/NewTrialWC.png","practice","0","19","0","0","1","1","false","",""
"image-keyboard-response","71","287514","0.0-3.0-4.0-1.0-1.19","6441a242a7d85d5c3e49a173","6662009ae78f21dd82fcd179","666206c324de6e03c47137ca","null","","null","","","","","","","","./tasks/HMM-beads/Images/WhiteBeadChoice.png","","","","","","","","","",""
"image-keyboard-response","72","288030","0.0-3.0-4.0-1.0-2.19","6441a242a7d85d5c3e49a173","6662009ae78f21dd82fcd179","666206c324de6e03c47137ca","null","","null","","","","","","","","./tasks/HMM-beads/Images/WhiteBeadChoiceWrong.png","","","","","","","","","",""
"image-keyboard-response","73","289413","0.0-3.0-4.0-1.0-0.20","6441a242a7d85d5c3e49a173","6662009ae78f21dd82fcd179","666206c324de6e03c47137ca","1383","","f","","","","","","","","./tasks/HMM-beads/Images/NewTrialBC.png","practice","0","20","0","0","0","0","true","",""
"image-keyboard-response","74","289726","0.0-3.0-4.0-1.0-1.20","6441a242a7d85d5c3e49a173","6662009ae78f21dd82fcd179","666206c324de6e03c47137ca","null","","null","","","","","","","","./tasks/HMM-beads/Images/BlackBeadChoice.png","","","","","","","","","",""
"image-keyboard-response","75","290240","0.0-3.0-4.0-1.0-2.20","6441a242a7d85d5c3e49a173","6662009ae78f21dd82fcd179","666206c324de6e03c47137ca","null","","null","","","","","","","","./tasks/HMM-beads/Images/BlackBeadChoiceCorrect.png","","","","","","","","","",""
"image-keyboard-response","76","290567","0.0-3.0-4.0-1.0-0.21","6441a242a7d85d5c3e49a173","6662009ae78f21dd82fcd179","666206c324de6e03c47137ca","327","","f","","","","","","","","./tasks/HMM-beads/Images/NewTrialBC.png","practice","0","21","0","1","0","0","false","",""
"image-keyboard-response","77","290877","0.0-3.0-4.0-1.0-1.21","6441a242a7d85d5c3e49a173","6662009ae78f21dd82fcd179","666206c324de6e03c47137ca","null","","null","","","","","","","","./tasks/HMM-beads/Images/BlackBeadChoice.png","","","","","","","","","",""
"image-keyboard-response","78","291390","0.0-3.0-4.0-1.0-2.21","6441a242a7d85d5c3e49a173","6662009ae78f21dd82fcd179","666206c324de6e03c47137ca","null","","null","","","","","","","","./tasks/HMM-beads/Images/BlackBeadChoiceWrong.png","","","","","","","","","",""
"image-keyboard-response","79","292358","0.0-3.0-4.0-1.0-0.22","6441a242a7d85d5c3e49a173","6662009ae78f21dd82fcd179","666206c324de6e03c47137ca","968","","f","","","","","","","","./tasks/HMM-beads/Images/NewTrialWC.png","practice","0","22","1","1","1","0","false","",""
"image-keyboard-response","80","292669","0.0-3.0-4.0-1.0-1.22","6441a242a7d85d5c3e49a173","6662009ae78f21dd82fcd179","666206c324de6e03c47137ca","null","","null","","","","","","","","./tasks/HMM-beads/Images/BlackBeadChoice.png","","","","","","","","","",""
"image-keyboard-response","81","293183","0.0-3.0-4.0-1.0-2.22","6441a242a7d85d5c3e49a173","6662009ae78f21dd82fcd179","666206c324de6e03c47137ca","null","","null","","","","","","","","./tasks/HMM-beads/Images/BlackBeadChoiceWrong.png","","","","","","","","","",""
"image-keyboard-response","82","293366","0.0-3.0-4.0-1.0-0.23","6441a242a7d85d5c3e49a173","6662009ae78f21dd82fcd179","666206c324de6e03c47137ca","183","","f","","","","","","","","./tasks/HMM-beads/Images/NewTrialWC.png","practice","0","23","1","0","1","0","true","",""
"image-keyboard-response","83","293681","0.0-3.0-4.0-1.0-1.23","6441a242a7d85d5c3e49a173","6662009ae78f21dd82fcd179","666206c324de6e03c47137ca","null","","null","","","","","","","","./tasks/HMM-beads/Images/BlackBeadChoice.png","","","","","","","","","",""
"image-keyboard-response","84","294194","0.0-3.0-4.0-1.0-2.23","6441a242a7d85d5c3e49a173","6662009ae78f21dd82fcd179","666206c324de6e03c47137ca","null","","null","","","","","","","","./tasks/HMM-beads/Images/BlackBeadChoiceCorrect.png","","","","","","","","","",""
"image-keyboard-response","85","294372","0.0-3.0-4.0-1.0-0.24","6441a242a7d85d5c3e49a173","6662009ae78f21dd82fcd179","666206c324de6e03c47137ca","178","","f","","","","","","","","./tasks/HMM-beads/Images/NewTrialBC.png","practice","0","24","1","1","0","0","false","",""
"image-keyboard-response","86","294674","0.0-3.0-4.0-1.0-1.24","6441a242a7d85d5c3e49a173","6662009ae78f21dd82fcd179","666206c324de6e03c47137ca","null","","null","","","","","","","","./tasks/HMM-beads/Images/BlackBeadChoice.png","","","","","","","","","",""
"image-keyboard-response","87","295189","0.0-3.0-4.0-1.0-2.24","6441a242a7d85d5c3e49a173","6662009ae78f21dd82fcd179","666206c324de6e03c47137ca","null","","null","","","","","","","","./tasks/HMM-beads/Images/BlackBeadChoiceWrong.png","","","","","","","","","",""
"image-keyboard-response","88","297909","0.0-3.0-4.0-1.0-0.25","6441a242a7d85d5c3e49a173","6662009ae78f21dd82fcd179","666206c324de6e03c47137ca","2719","","j","","","","","","","","./tasks/HMM-beads/Images/NewTrialWC.png","practice","0","25","1","1","1","1","true","",""
"image-keyboard-response","89","298212","0.0-3.0-4.0-1.0-1.25","6441a242a7d85d5c3e49a173","6662009ae78f21dd82fcd179","666206c324de6e03c47137ca","null","","null","","","","","","","","./tasks/HMM-beads/Images/WhiteBeadChoice.png","","","","","","","","","",""
"image-keyboard-response","90","298726","0.0-3.0-4.0-1.0-2.25","6441a242a7d85d5c3e49a173","6662009ae78f21dd82fcd179","666206c324de6e03c47137ca","null","","null","","","","","","","","./tasks/HMM-beads/Images/WhiteBeadChoiceCorrect.png","","","","","","","","","",""
"image-keyboard-response","91","299025","0.0-3.0-4.0-1.0-0.26","6441a242a7d85d5c3e49a173","6662009ae78f21dd82fcd179","666206c324de6e03c47137ca","299","","j","","","","","","","","./tasks/HMM-beads/Images/NewTrialWC.png","practice","0","26","1","1","1","1","true","",""
"image-keyboard-response","92","299333","0.0-3.0-4.0-1.0-1.26","6441a242a7d85d5c3e49a173","6662009ae78f21dd82fcd179","666206c324de6e03c47137ca","null","","null","","","","","","","","./tasks/HMM-beads/Images/WhiteBeadChoice.png","","","","","","","","","",""
"image-keyboard-response","93","299846","0.0-3.0-4.0-1.0-2.26","6441a242a7d85d5c3e49a173","6662009ae78f21dd82fcd179","666206c324de6e03c47137ca","null","","null","","","","","","","","./tasks/HMM-beads/Images/WhiteBeadChoiceCorrect.png","","","","","","","","","",""
"image-keyboard-response","94","300150","0.0-3.0-4.0-1.0-0.27","6441a242a7d85d5c3e49a173","6662009ae78f21dd82fcd179","666206c324de6e03c47137ca","303","","j","","","","","","","","./tasks/HMM-beads/Images/NewTrialWC.png","practice","0","27","1","1","1","1","true","",""
"image-keyboard-response","95","300456","0.0-3.0-4.0-1.0-1.27","6441a242a7d85d5c3e49a173","6662009ae78f21dd82fcd179","666206c324de6e03c47137ca","null","","null","","","","","","","","./tasks/HMM-beads/Images/WhiteBeadChoice.png","","","","","","","","","",""
"image-keyboard-response","96","300970","0.0-3.0-4.0-1.0-2.27","6441a242a7d85d5c3e49a173","6662009ae78f21dd82fcd179","666206c324de6e03c47137ca","null","","null","","","","","","","","./tasks/HMM-beads/Images/WhiteBeadChoiceCorrect.png","","","","","","","","","",""
"image-keyboard-response","97","301093","0.0-3.0-4.0-1.0-0.28","6441a242a7d85d5c3e49a173","6662009ae78f21dd82fcd179","666206c324de6e03c47137ca","122","","j","","","","","","","","./tasks/HMM-beads/Images/NewTrialWC.png","practice","0","28","1","0","1","1","false","",""
"image-keyboard-response","98","301406","0.0-3.0-4.0-1.0-1.28","6441a242a7d85d5c3e49a173","6662009ae78f21dd82fcd179","666206c324de6e03c47137ca","null","","null","","","","","","","","./tasks/HMM-beads/Images/WhiteBeadChoice.png","","","","","","","","","",""
"image-keyboard-response","99","301920","0.0-3.0-4.0-1.0-2.28","6441a242a7d85d5c3e49a173","6662009ae78f21dd82fcd179","666206c324de6e03c47137ca","null","","null","","","","","","","","./tasks/HMM-beads/Images/WhiteBeadChoiceWrong.png","","","","","","","","","",""
"image-keyboard-response","100","302127","0.0-3.0-4.0-1.0-0.29","6441a242a7d85d5c3e49a173","6662009ae78f21dd82fcd179","666206c324de6e03c47137ca","206","","j","","","","","","","","./tasks/HMM-beads/Images/NewTrialBC.png","practice","0","29","1","1","0","1","true","",""
"image-keyboard-response","101","302435","0.0-3.0-4.0-1.0-1.29","6441a242a7d85d5c3e49a173","6662009ae78f21dd82fcd179","666206c324de6e03c47137ca","null","","null","","","","","","","","./tasks/HMM-beads/Images/WhiteBeadChoice.png","","","","","","","","","",""
"image-keyboard-response","102","302949","0.0-3.0-4.0-1.0-2.29","6441a242a7d85d5c3e49a173","6662009ae78f21dd82fcd179","666206c324de6e03c47137ca","null","","null","","","","","","","","./tasks/HMM-beads/Images/WhiteBeadChoiceCorrect.png","","","","","","","","","",""
"image-keyboard-response","103","303083","0.0-3.0-4.0-1.0-0.30","6441a242a7d85d5c3e49a173","6662009ae78f21dd82fcd179","666206c324de6e03c47137ca","129","","j","","","","","","","","./tasks/HMM-beads/Images/NewTrialWC.png","practice","0","30","1","0","1","1","false","",""
"image-keyboard-response","104","303386","0.0-3.0-4.0-1.0-1.30","6441a242a7d85d5c3e49a173","6662009ae78f21dd82fcd179","666206c324de6e03c47137ca","null","","null","","","","","","","","./tasks/HMM-beads/Images/WhiteBeadChoice.png","","","","","","","","","",""
"image-keyboard-response","105","303900","0.0-3.0-4.0-1.0-2.30","6441a242a7d85d5c3e49a173","6662009ae78f21dd82fcd179","666206c324de6e03c47137ca","null","","null","","","","","","","","./tasks/HMM-beads/Images/WhiteBeadChoiceWrong.png","","","","","","","","","",""
"image-keyboard-response","106","304125","0.0-3.0-4.0-1.0-0.31","6441a242a7d85d5c3e49a173","6662009ae78f21dd82fcd179","666206c324de6e03c47137ca","225","","j","","","","","","","","./tasks/HMM-beads/Images/NewTrialBC.png","practice","0","31","1","1","0","1","true","",""
"image-keyboard-response","107","304431","0.0-3.0-4.0-1.0-1.31","6441a242a7d85d5c3e49a173","6662009ae78f21dd82fcd179","666206c324de6e03c47137ca","null","","null","","","","","","","","./tasks/HMM-beads/Images/WhiteBeadChoice.png","","","","","","","","","",""
"image-keyboard-response","108","304946","0.0-3.0-4.0-1.0-2.31","6441a242a7d85d5c3e49a173","6662009ae78f21dd82fcd179","666206c324de6e03c47137ca","null","","null","","","","","","","","./tasks/HMM-beads/Images/WhiteBeadChoiceCorrect.png","","","","","","","","","",""
"image-keyboard-response","109","305240","0.0-3.0-4.0-1.0-0.32","6441a242a7d85d5c3e49a173","6662009ae78f21dd82fcd179","666206c324de6e03c47137ca","293","","j","","","","","","","","./tasks/HMM-beads/Images/NewTrialWC.png","practice","0","32","1","1","1","1","true","",""
"image-keyboard-response","110","305552","0.0-3.0-4.0-1.0-1.32","6441a242a7d85d5c3e49a173","6662009ae78f21dd82fcd179","666206c324de6e03c47137ca","null","","null","","","","","","","","./tasks/HMM-beads/Images/WhiteBeadChoice.png","","","","","","","","","",""
"image-keyboard-response","111","306066","0.0-3.0-4.0-1.0-2.32","6441a242a7d85d5c3e49a173","6662009ae78f21dd82fcd179","666206c324de6e03c47137ca","null","","null","","","","","","","","./tasks/HMM-beads/Images/WhiteBeadChoiceCorrect.png","","","","","","","","","",""
"image-keyboard-response","112","306087","0.0-3.0-4.0-1.0-0.33","6441a242a7d85d5c3e49a173","6662009ae78f21dd82fcd179","666206c324de6e03c47137ca","20","","j","","","","","","","","./tasks/HMM-beads/Images/NewTrialWC.png","practice","0","33","1","1","1","1","true","",""
"image-keyboard-response","113","306395","0.0-3.0-4.0-1.0-1.33","6441a242a7d85d5c3e49a173","6662009ae78f21dd82fcd179","666206c324de6e03c47137ca","null","","null","","","","","","","","./tasks/HMM-beads/Images/WhiteBeadChoice.png","","","","","","","","","",""
"image-keyboard-response","114","306906","0.0-3.0-4.0-1.0-2.33","6441a242a7d85d5c3e49a173","6662009ae78f21dd82fcd179","666206c324de6e03c47137ca","null","","null","","","","","","","","./tasks/HMM-beads/Images/WhiteBeadChoiceCorrect.png","","","","","","","","","",""
"image-keyboard-response","115","307658","0.0-3.0-4.0-1.0-0.34","6441a242a7d85d5c3e49a173","6662009ae78f21dd82fcd179","666206c324de6e03c47137ca","751","","j","","","","","","","","./tasks/HMM-beads/Images/NewTrialWC.png","practice","0","34","1","1","1","1","true","",""
"image-keyboard-response","116","307965","0.0-3.0-4.0-1.0-1.34","6441a242a7d85d5c3e49a173","6662009ae78f21dd82fcd179","666206c324de6e03c47137ca","null","","null","","","","","","","","./tasks/HMM-beads/Images/WhiteBeadChoice.png","","","","","","","","","",""
"image-keyboard-response","117","308478","0.0-3.0-4.0-1.0-2.34","6441a242a7d85d5c3e49a173","6662009ae78f21dd82fcd179","666206c324de6e03c47137ca","null","","null","","","","","","","","./tasks/HMM-beads/Images/WhiteBeadChoiceCorrect.png","","","","","","","","","",""
"image-keyboard-response","118","309219","0.0-3.0-4.0-1.0-0.35","6441a242a7d85d5c3e49a173","6662009ae78f21dd82fcd179","666206c324de6e03c47137ca","740","","j","","","","","","","","./tasks/HMM-beads/Images/NewTrialWC.png","practice","0","35","1","1","1","1","true","",""
"image-keyboard-response","119","309533","0.0-3.0-4.0-1.0-1.35","6441a242a7d85d5c3e49a173","6662009ae78f21dd82fcd179","666206c324de6e03c47137ca","null","","null","","","","","","","","./tasks/HMM-beads/Images/WhiteBeadChoice.png","","","","","","","","","",""
"image-keyboard-response","120","310044","0.0-3.0-4.0-1.0-2.35","6441a242a7d85d5c3e49a173","6662009ae78f21dd82fcd179","666206c324de6e03c47137ca","null","","null","","","","","","","","./tasks/HMM-beads/Images/WhiteBeadChoiceCorrect.png","","","","","","","","","",""
"image-keyboard-response","121","310371","0.0-3.0-4.0-1.0-0.36","6441a242a7d85d5c3e49a173","6662009ae78f21dd82fcd179","666206c324de6e03c47137ca","327","","j","","","","","","","","./tasks/HMM-beads/Images/NewTrialWC.png","practice","0","36","1","0","1","1","false","",""
"image-keyboard-response","122","310683","0.0-3.0-4.0-1.0-1.36","6441a242a7d85d5c3e49a173","6662009ae78f21dd82fcd179","666206c324de6e03c47137ca","null","","null","","","","","","","","./tasks/HMM-beads/Images/WhiteBeadChoice.png","","","","","","","","","",""
"image-keyboard-response","123","311198","0.0-3.0-4.0-1.0-2.36","6441a242a7d85d5c3e49a173","6662009ae78f21dd82fcd179","666206c324de6e03c47137ca","null","","null","","","","","","","","./tasks/HMM-beads/Images/WhiteBeadChoiceWrong.png","","","","","","","","","",""
"image-keyboard-response","124","311519","0.0-3.0-4.0-1.0-0.37","6441a242a7d85d5c3e49a173","6662009ae78f21dd82fcd179","666206c324de6e03c47137ca","321","","j","","","","","","","","./tasks/HMM-beads/Images/NewTrialBC.png","practice","0","37","1","1","0","1","true","",""
"image-keyboard-response","125","311821","0.0-3.0-4.0-1.0-1.37","6441a242a7d85d5c3e49a173","6662009ae78f21dd82fcd179","666206c324de6e03c47137ca","null","","null","","","","","","","","./tasks/HMM-beads/Images/WhiteBeadChoice.png","","","","","","","","","",""
"image-keyboard-response","126","312335","0.0-3.0-4.0-1.0-2.37","6441a242a7d85d5c3e49a173","6662009ae78f21dd82fcd179","666206c324de6e03c47137ca","null","","null","","","","","","","","./tasks/HMM-beads/Images/WhiteBeadChoiceCorrect.png","","","","","","","","","",""
"image-keyboard-response","127","312658","0.0-3.0-4.0-1.0-0.38","6441a242a7d85d5c3e49a173","6662009ae78f21dd82fcd179","666206c324de6e03c47137ca","322","","j","","","","","","","","./tasks/HMM-beads/Images/NewTrialWC.png","practice","0","38","1","1","1","1","true","",""
"image-keyboard-response","128","312968","0.0-3.0-4.0-1.0-1.38","6441a242a7d85d5c3e49a173","6662009ae78f21dd82fcd179","666206c324de6e03c47137ca","null","","null","","","","","","","","./tasks/HMM-beads/Images/WhiteBeadChoice.png","","","","","","","","","",""
"image-keyboard-response","129","313482","0.0-3.0-4.0-1.0-2.38","6441a242a7d85d5c3e49a173","6662009ae78f21dd82fcd179","666206c324de6e03c47137ca","null","","null","","","","","","","","./tasks/HMM-beads/Images/WhiteBeadChoiceCorrect.png","","","","","","","","","",""
"image-keyboard-response","130","313818","0.0-3.0-4.0-1.0-0.39","6441a242a7d85d5c3e49a173","6662009ae78f21dd82fcd179","666206c324de6e03c47137ca","335","","j","","","","","","","","./tasks/HMM-beads/Images/NewTrialWC.png","practice","0","39","1","1","1","1","true","",""
"image-keyboard-response","131","314121","0.0-3.0-4.0-1.0-1.39","6441a242a7d85d5c3e49a173","6662009ae78f21dd82fcd179","666206c324de6e03c47137ca","null","","null","","","","","","","","./tasks/HMM-beads/Images/WhiteBeadChoice.png","","","","","","","","","",""
"image-keyboard-response","132","314635","0.0-3.0-4.0-1.0-2.39","6441a242a7d85d5c3e49a173","6662009ae78f21dd82fcd179","666206c324de6e03c47137ca","null","","null","","","","","","","","./tasks/HMM-beads/Images/WhiteBeadChoiceCorrect.png","","","","","","","","","",""
"html-keyboard-response","133","318459","0.0-3.0-4.0-2.0","6441a242a7d85d5c3e49a173","6662009ae78f21dd82fcd179","666206c324de6e03c47137ca","3823",""," ","","","","","","","","","","","","","","","","","",""
"instructions","134","346583","0.0-3.0-5.0","6441a242a7d85d5c3e49a173","6662009ae78f21dd82fcd179","666206c324de6e03c47137ca","28123","","","","[{""page_index"":0,""viewing_time"":14477},{""page_index"":1,""viewing_time"":13645}]","","","","","","","","","","","","","","","",""
"html-keyboard-response","135","353654","0.0-3.0-6.0-0.0","6441a242a7d85d5c3e49a173","6662009ae78f21dd82fcd179","666206c324de6e03c47137ca","7071",""," ","","","","","","","","<div align=center>In this block, there will be a <b>1% chance</b> that the jar on the next trial will be different from the jar on the current trial.<br><br></div>","","","","","","","","","",""
"image-keyboard-response","136","357421","0.0-3.0-6.0-1.0-0.0","6441a242a7d85d5c3e49a173","6662009ae78f21dd82fcd179","666206c324de6e03c47137ca","3766","","f","","","","","","","","./tasks/HMM-beads/Images/NoChoice.png","lowH","1","0","1","0","9","0","true","",""
"image-keyboard-response","137","357731","0.0-3.0-6.0-1.0-1.0","6441a242a7d85d5c3e49a173","6662009ae78f21dd82fcd179","666206c324de6e03c47137ca","null","","null","","","","","","","","./tasks/HMM-beads/Images/BlackBeadChoice.png","","","","","","","","","",""
"image-keyboard-response","138","358245","0.0-3.0-6.0-1.0-2.0","6441a242a7d85d5c3e49a173","6662009ae78f21dd82fcd179","666206c324de6e03c47137ca","null","","null","","","","","","","","./tasks/HMM-beads/Images/BlackBeadChoiceCorrect.png","","","","","","","","","",""
"image-keyboard-response","139","358620","0.0-3.0-6.0-1.0-0.1","6441a242a7d85d5c3e49a173","6662009ae78f21dd82fcd179","666206c324de6e03c47137ca","375","","f","","","","","","","","./tasks/HMM-beads/Images/NewTrialBC.png","lowH","1","1","1","1","0","0","false","",""
"image-keyboard-response","140","358930","0.0-3.0-6.0-1.0-1.1","6441a242a7d85d5c3e49a173","6662009ae78f21dd82fcd179","666206c324de6e03c47137ca","null","","null","","","","","","","","./tasks/HMM-beads/Images/BlackBeadChoice.png","","","","","","","","","",""
"image-keyboard-response","141","359444","0.0-3.0-6.0-1.0-2.1","6441a242a7d85d5c3e49a173","6662009ae78f21dd82fcd179","666206c324de6e03c47137ca","null","","null","","","","","","","","./tasks/HMM-beads/Images/BlackBeadChoiceWrong.png","","","","","","","","","",""
"image-keyboard-response","142","359721","0.0-3.0-6.0-1.0-0.2","6441a242a7d85d5c3e49a173","6662009ae78f21dd82fcd179","666206c324de6e03c47137ca","276","","f","","","","","","","","./tasks/HMM-beads/Images/NewTrialWC.png","lowH","1","2","1","1","1","0","false","",""
"image-keyboard-response","143","360033","0.0-3.0-6.0-1.0-1.2","6441a242a7d85d5c3e49a173","6662009ae78f21dd82fcd179","666206c324de6e03c47137ca","null","","null","","","","","","","","./tasks/HMM-beads/Images/BlackBeadChoice.png","","","","","","","","","",""
"image-keyboard-response","144","360547","0.0-3.0-6.0-1.0-2.2","6441a242a7d85d5c3e49a173","6662009ae78f21dd82fcd179","666206c324de6e03c47137ca","null","","null","","","","","","","","./tasks/HMM-beads/Images/BlackBeadChoiceWrong.png","","","","","","","","","",""
"image-keyboard-response","145","360876","0.0-3.0-6.0-1.0-0.3","6441a242a7d85d5c3e49a173","6662009ae78f21dd82fcd179","666206c324de6e03c47137ca","325","","j","","","","","","","","./tasks/HMM-beads/Images/NewTrialWC.png","lowH","1","3","1","1","1","1","true","",""
"image-keyboard-response","146","361187","0.0-3.0-6.0-1.0-1.3","6441a242a7d85d5c3e49a173","6662009ae78f21dd82fcd179","666206c324de6e03c47137ca","null","","null","","","","","","","","./tasks/HMM-beads/Images/WhiteBeadChoice.png","","","","","","","","","",""
"image-keyboard-response","147","361697","0.0-3.0-6.0-1.0-2.3","6441a242a7d85d5c3e49a173","6662009ae78f21dd82fcd179","666206c324de6e03c47137ca","null","","null","","","","","","","","./tasks/HMM-beads/Images/WhiteBeadChoiceCorrect.png","","","","","","","","","",""
"image-keyboard-response","148","361955","0.0-3.0-6.0-1.0-0.4","6441a242a7d85d5c3e49a173","6662009ae78f21dd82fcd179","666206c324de6e03c47137ca","257","","j","","","","","","","","./tasks/HMM-beads/Images/NewTrialWC.png","lowH","1","4","1","1","1","1","true","",""
"image-keyboard-response","149","362270","0.0-3.0-6.0-1.0-1.4","6441a242a7d85d5c3e49a173","6662009ae78f21dd82fcd179","666206c324de6e03c47137ca","null","","null","","","","","","","","./tasks/HMM-beads/Images/WhiteBeadChoice.png","","","","","","","","","",""
"image-keyboard-response","150","362785","0.0-3.0-6.0-1.0-2.4","6441a242a7d85d5c3e49a173","6662009ae78f21dd82fcd179","666206c324de6e03c47137ca","null","","null","","","","","","","","./tasks/HMM-beads/Images/WhiteBeadChoiceCorrect.png","","","","","","","","","",""
"image-keyboard-response","151","363069","0.0-3.0-6.0-1.0-0.5","6441a242a7d85d5c3e49a173","6662009ae78f21dd82fcd179","666206c324de6e03c47137ca","284","","j","","","","","","","","./tasks/HMM-beads/Images/NewTrialWC.png","lowH","1","5","1","1","1","1","true","",""
"image-keyboard-response","152","363373","0.0-3.0-6.0-1.0-1.5","6441a242a7d85d5c3e49a173","6662009ae78f21dd82fcd179","666206c324de6e03c47137ca","null","","null","","","","","","","","./tasks/HMM-beads/Images/WhiteBeadChoice.png","","","","","","","","","",""
"image-keyboard-response","153","363887","0.0-3.0-6.0-1.0-2.5","6441a242a7d85d5c3e49a173","6662009ae78f21dd82fcd179","666206c324de6e03c47137ca","null","","null","","","","","","","","./tasks/HMM-beads/Images/WhiteBeadChoiceCorrect.png","","","","","","","","","",""
"image-keyboard-response","154","364173","0.0-3.0-6.0-1.0-0.6","6441a242a7d85d5c3e49a173","6662009ae78f21dd82fcd179","666206c324de6e03c47137ca","285","","j","","","","","","","","./tasks/HMM-beads/Images/NewTrialWC.png","lowH","1","6","1","0","1","1","false","",""
"image-keyboard-response","155","364478","0.0-3.0-6.0-1.0-1.6","6441a242a7d85d5c3e49a173","6662009ae78f21dd82fcd179","666206c324de6e03c47137ca","null","","null","","","","","","","","./tasks/HMM-beads/Images/WhiteBeadChoice.png","","","","","","","","","",""
"image-keyboard-response","156","364993","0.0-3.0-6.0-1.0-2.6","6441a242a7d85d5c3e49a173","6662009ae78f21dd82fcd179","666206c324de6e03c47137ca","null","","null","","","","","","","","./tasks/HMM-beads/Images/WhiteBeadChoiceWrong.png","","","","","","","","","",""
"image-keyboard-response","157","365315","0.0-3.0-6.0-1.0-0.7","6441a242a7d85d5c3e49a173","6662009ae78f21dd82fcd179","666206c324de6e03c47137ca","321","","j","","","","","","","","./tasks/HMM-beads/Images/NewTrialBC.png","lowH","1","7","1","1","0","1","true","",""
"image-keyboard-response","158","365629","0.0-3.0-6.0-1.0-1.7","6441a242a7d85d5c3e49a173","6662009ae78f21dd82fcd179","666206c324de6e03c47137ca","null","","null","","","","","","","","./tasks/HMM-beads/Images/WhiteBeadChoice.png","","","","","","","","","",""
"image-keyboard-response","159","366131","0.0-3.0-6.0-1.0-2.7","6441a242a7d85d5c3e49a173","6662009ae78f21dd82fcd179","666206c324de6e03c47137ca","null","","null","","","","","","","","./tasks/HMM-beads/Images/WhiteBeadChoiceCorrect.png","","","","","","","","","",""
"image-keyboard-response","160","366448","0.0-3.0-6.0-1.0-0.8","6441a242a7d85d5c3e49a173","6662009ae78f21dd82fcd179","666206c324de6e03c47137ca","317","","j","","","","","","","","./tasks/HMM-beads/Images/NewTrialWC.png","lowH","1","8","1","1","1","1","true","",""
"image-keyboard-response","161","366752","0.0-3.0-6.0-1.0-1.8","6441a242a7d85d5c3e49a173","6662009ae78f21dd82fcd179","666206c324de6e03c47137ca","null","","null","","","","","","","","./tasks/HMM-beads/Images/WhiteBeadChoice.png","","","","","","","","","",""
"image-keyboard-response","162","367264","0.0-3.0-6.0-1.0-2.8","6441a242a7d85d5c3e49a173","6662009ae78f21dd82fcd179","666206c324de6e03c47137ca","null","","null","","","","","","","","./tasks/HMM-beads/Images/WhiteBeadChoiceCorrect.png","","","","","","","","","",""
"image-keyboard-response","163","367513","0.0-3.0-6.0-1.0-0.9","6441a242a7d85d5c3e49a173","6662009ae78f21dd82fcd179","666206c324de6e03c47137ca","249","","j","","","","","","","","./tasks/HMM-beads/Images/NewTrialWC.png","lowH","1","9","1","1","1","1","true","",""
"image-keyboard-response","164","367826","0.0-3.0-6.0-1.0-1.9","6441a242a7d85d5c3e49a173","6662009ae78f21dd82fcd179","666206c324de6e03c47137ca","null","","null","","","","","","","","./tasks/HMM-beads/Images/WhiteBeadChoice.png","","","","","","","","","",""
"image-keyboard-response","165","368341","0.0-3.0-6.0-1.0-2.9","6441a242a7d85d5c3e49a173","6662009ae78f21dd82fcd179","666206c324de6e03c47137ca","null","","null","","","","","","","","./tasks/HMM-beads/Images/WhiteBeadChoiceCorrect.png","","","","","","","","","",""
"image-keyboard-response","166","368535","0.0-3.0-6.0-1.0-0.10","6441a242a7d85d5c3e49a173","6662009ae78f21dd82fcd179","666206c324de6e03c47137ca","194","","j","","","","","","","","./tasks/HMM-beads/Images/NewTrialWC.png","lowH","1","10","1","1","1","1","true","",""
"image-keyboard-response","167","368839","0.0-3.0-6.0-1.0-1.10","6441a242a7d85d5c3e49a173","6662009ae78f21dd82fcd179","666206c324de6e03c47137ca","null","","null","","","","","","","","./tasks/HMM-beads/Images/WhiteBeadChoice.png","","","","","","","","","",""
"image-keyboard-response","168","369354","0.0-3.0-6.0-1.0-2.10","6441a242a7d85d5c3e49a173","6662009ae78f21dd82fcd179","666206c324de6e03c47137ca","null","","null","","","","","","","","./tasks/HMM-beads/Images/WhiteBeadChoiceCorrect.png","","","","","","","","","",""
"image-keyboard-response","169","369467","0.0-3.0-6.0-1.0-0.11","6441a242a7d85d5c3e49a173","6662009ae78f21dd82fcd179","666206c324de6e03c47137ca","112","","j","","","","","","","","./tasks/HMM-beads/Images/NewTrialWC.png","lowH","1","11","1","1","1","1","true","",""
"image-keyboard-response","170","369774","0.0-3.0-6.0-1.0-1.11","6441a242a7d85d5c3e49a173","6662009ae78f21dd82fcd179","666206c324de6e03c47137ca","null","","null","","","","","","","","./tasks/HMM-beads/Images/WhiteBeadChoice.png","","","","","","","","","",""
"image-keyboard-response","171","370287","0.0-3.0-6.0-1.0-2.11","6441a242a7d85d5c3e49a173","6662009ae78f21dd82fcd179","666206c324de6e03c47137ca","null","","null","","","","","","","","./tasks/HMM-beads/Images/WhiteBeadChoiceCorrect.png","","","","","","","","","",""
"image-keyboard-response","172","370361","0.0-3.0-6.0-1.0-0.12","6441a242a7d85d5c3e49a173","6662009ae78f21dd82fcd179","666206c324de6e03c47137ca","73","","j","","","","","","","","./tasks/HMM-beads/Images/NewTrialWC.png","lowH","1","12","1","1","1","1","true","",""
"image-keyboard-response","173","370675","0.0-3.0-6.0-1.0-1.12","6441a242a7d85d5c3e49a173","6662009ae78f21dd82fcd179","666206c324de6e03c47137ca","null","","null","","","","","","","","./tasks/HMM-beads/Images/WhiteBeadChoice.png","","","","","","","","","",""
"image-keyboard-response","174","371189","0.0-3.0-6.0-1.0-2.12","6441a242a7d85d5c3e49a173","6662009ae78f21dd82fcd179","666206c324de6e03c47137ca","null","","null","","","","","","","","./tasks/HMM-beads/Images/WhiteBeadChoiceCorrect.png","","","","","","","","","",""
"image-keyboard-response","175","371236","0.0-3.0-6.0-1.0-0.13","6441a242a7d85d5c3e49a173","6662009ae78f21dd82fcd179","666206c324de6e03c47137ca","46","","j","","","","","","","","./tasks/HMM-beads/Images/NewTrialWC.png","lowH","1","13","1","0","1","1","false","",""
"image-keyboard-response","176","371545","0.0-3.0-6.0-1.0-1.13","6441a242a7d85d5c3e49a173","6662009ae78f21dd82fcd179","666206c324de6e03c47137ca","null","","null","","","","","","","","./tasks/HMM-beads/Images/WhiteBeadChoice.png","","","","","","","","","",""
"image-keyboard-response","177","372062","0.0-3.0-6.0-1.0-2.13","6441a242a7d85d5c3e49a173","6662009ae78f21dd82fcd179","666206c324de6e03c47137ca","null","","null","","","","","","","","./tasks/HMM-beads/Images/WhiteBeadChoiceWrong.png","","","","","","","","","",""
"image-keyboard-response","178","372283","0.0-3.0-6.0-1.0-0.14","6441a242a7d85d5c3e49a173","6662009ae78f21dd82fcd179","666206c324de6e03c47137ca","221","","j","","","","","","","","./tasks/HMM-beads/Images/NewTrialBC.png","lowH","1","14","1","0","0","1","false","",""
"image-keyboard-response","179","372592","0.0-3.0-6.0-1.0-1.14","6441a242a7d85d5c3e49a173","6662009ae78f21dd82fcd179","666206c324de6e03c47137ca","null","","null","","","","","","","","./tasks/HMM-beads/Images/WhiteBeadChoice.png","","","","","","","","","",""
"image-keyboard-response","180","373093","0.0-3.0-6.0-1.0-2.14","6441a242a7d85d5c3e49a173","6662009ae78f21dd82fcd179","666206c324de6e03c47137ca","null","","null","","","","","","","","./tasks/HMM-beads/Images/WhiteBeadChoiceWrong.png","","","","","","","","","",""
"image-keyboard-response","181","373605","0.0-3.0-6.0-1.0-0.15","6441a242a7d85d5c3e49a173","6662009ae78f21dd82fcd179","666206c324de6e03c47137ca","512","","j","","","","","","","","./tasks/HMM-beads/Images/NewTrialBC.png","lowH","1","15","1","1","0","1","true","",""
"image-keyboard-response","182","373917","0.0-3.0-6.0-1.0-1.15","6441a242a7d85d5c3e49a173","6662009ae78f21dd82fcd179","666206c324de6e03c47137ca","null","","null","","","","","","","","./tasks/HMM-beads/Images/WhiteBeadChoice.png","","","","","","","","","",""
"image-keyboard-response","183","374431","0.0-3.0-6.0-1.0-2.15","6441a242a7d85d5c3e49a173","6662009ae78f21dd82fcd179","666206c324de6e03c47137ca","null","","null","","","","","","","","./tasks/HMM-beads/Images/WhiteBeadChoiceCorrect.png","","","","","","","","","",""
"image-keyboard-response","184","374629","0.0-3.0-6.0-1.0-0.16","6441a242a7d85d5c3e49a173","6662009ae78f21dd82fcd179","666206c324de6e03c47137ca","193","","j","","","","","","","","./tasks/HMM-beads/Images/NewTrialWC.png","lowH","1","16","1","1","1","1","true","",""
"image-keyboard-response","185","374941","0.0-3.0-6.0-1.0-1.16","6441a242a7d85d5c3e49a173","6662009ae78f21dd82fcd179","666206c324de6e03c47137ca","null","","null","","","","","","","","./tasks/HMM-beads/Images/WhiteBeadChoice.png","","","","","","","","","",""
"image-keyboard-response","186","375453","0.0-3.0-6.0-1.0-2.16","6441a242a7d85d5c3e49a173","6662009ae78f21dd82fcd179","666206c324de6e03c47137ca","null","","null","","","","","","","","./tasks/HMM-beads/Images/WhiteBeadChoiceCorrect.png","","","","","","","","","",""
"image-keyboard-response","187","375618","0.0-3.0-6.0-1.0-0.17","6441a242a7d85d5c3e49a173","6662009ae78f21dd82fcd179","666206c324de6e03c47137ca","165","","j","","","","","","","","./tasks/HMM-beads/Images/NewTrialWC.png","lowH","1","17","1","1","1","1","true","",""
"image-keyboard-response","188","375931","0.0-3.0-6.0-1.0-1.17","6441a242a7d85d5c3e49a173","6662009ae78f21dd82fcd179","666206c324de6e03c47137ca","null","","null","","","","","","","","./tasks/HMM-beads/Images/WhiteBeadChoice.png","","","","","","","","","",""
"image-keyboard-response","189","376444","0.0-3.0-6.0-1.0-2.17","6441a242a7d85d5c3e49a173","6662009ae78f21dd82fcd179","666206c324de6e03c47137ca","null","","null","","","","","","","","./tasks/HMM-beads/Images/WhiteBeadChoiceCorrect.png","","","","","","","","","",""
"image-keyboard-response","190","377405","0.0-3.0-6.0-1.0-0.18","6441a242a7d85d5c3e49a173","6662009ae78f21dd82fcd179","666206c324de6e03c47137ca","960","","j","","","","","","","","./tasks/HMM-beads/Images/NewTrialWC.png","lowH","1","18","1","1","1","1","true","",""
"image-keyboard-response","191","377717","0.0-3.0-6.0-1.0-1.18","6441a242a7d85d5c3e49a173","6662009ae78f21dd82fcd179","666206c324de6e03c47137ca","null","","null","","","","","","","","./tasks/HMM-beads/Images/WhiteBeadChoice.png","","","","","","","","","",""
"image-keyboard-response","192","378229","0.0-3.0-6.0-1.0-2.18","6441a242a7d85d5c3e49a173","6662009ae78f21dd82fcd179","666206c324de6e03c47137ca","null","","null","","","","","","","","./tasks/HMM-beads/Images/WhiteBeadChoiceCorrect.png","","","","","","","","","",""
"image-keyboard-response","193","378380","0.0-3.0-6.0-1.0-0.19","6441a242a7d85d5c3e49a173","6662009ae78f21dd82fcd179","666206c324de6e03c47137ca","150","","j","","","","","","","","./tasks/HMM-beads/Images/NewTrialWC.png","lowH","1","19","1","1","1","1","true","",""
"image-keyboard-response","194","378695","0.0-3.0-6.0-1.0-1.19","6441a242a7d85d5c3e49a173","6662009ae78f21dd82fcd179","666206c324de6e03c47137ca","null","","null","","","","","","","","./tasks/HMM-beads/Images/WhiteBeadChoice.png","","","","","","","","","",""
"image-keyboard-response","195","379208","0.0-3.0-6.0-1.0-2.19","6441a242a7d85d5c3e49a173","6662009ae78f21dd82fcd179","666206c324de6e03c47137ca","null","","null","","","","","","","","./tasks/HMM-beads/Images/WhiteBeadChoiceCorrect.png","","","","","","","","","",""
"image-keyboard-response","196","379252","0.0-3.0-6.0-1.0-0.20","6441a242a7d85d5c3e49a173","6662009ae78f21dd82fcd179","666206c324de6e03c47137ca","43","","j","","","","","","","","./tasks/HMM-beads/Images/NewTrialWC.png","lowH","1","20","1","1","1","1","true","",""
"image-keyboard-response","197","379568","0.0-3.0-6.0-1.0-1.20","6441a242a7d85d5c3e49a173","6662009ae78f21dd82fcd179","666206c324de6e03c47137ca","null","","null","","","","","","","","./tasks/HMM-beads/Images/WhiteBeadChoice.png","","","","","","","","","",""
"image-keyboard-response","198","380081","0.0-3.0-6.0-1.0-2.20","6441a242a7d85d5c3e49a173","6662009ae78f21dd82fcd179","666206c324de6e03c47137ca","null","","null","","","","","","","","./tasks/HMM-beads/Images/WhiteBeadChoiceCorrect.png","","","","","","","","","",""
"image-keyboard-response","199","380191","0.0-3.0-6.0-1.0-0.21","6441a242a7d85d5c3e49a173","6662009ae78f21dd82fcd179","666206c324de6e03c47137ca","109","","j","","","","","","","","./tasks/HMM-beads/Images/NewTrialWC.png","lowH","1","21","1","1","1","1","true","",""
"image-keyboard-response","200","380502","0.0-3.0-6.0-1.0-1.21","6441a242a7d85d5c3e49a173","6662009ae78f21dd82fcd179","666206c324de6e03c47137ca","null","","null","","","","","","","","./tasks/HMM-beads/Images/WhiteBeadChoice.png","","","","","","","","","",""
"image-keyboard-response","201","381003","0.0-3.0-6.0-1.0-2.21","6441a242a7d85d5c3e49a173","6662009ae78f21dd82fcd179","666206c324de6e03c47137ca","null","","null","","","","","","","","./tasks/HMM-beads/Images/WhiteBeadChoiceCorrect.png","","","","","","","","","",""
"image-keyboard-response","202","381069","0.0-3.0-6.0-1.0-0.22","6441a242a7d85d5c3e49a173","6662009ae78f21dd82fcd179","666206c324de6e03c47137ca","66","","j","","","","","","","","./tasks/HMM-beads/Images/NewTrialWC.png","lowH","1","22","1","1","1","1","true","",""
"image-keyboard-response","203","381375","0.0-3.0-6.0-1.0-1.22","6441a242a7d85d5c3e49a173","6662009ae78f21dd82fcd179","666206c324de6e03c47137ca","null","","null","","","","","","","","./tasks/HMM-beads/Images/WhiteBeadChoice.png","","","","","","","","","",""
"image-keyboard-response","204","381890","0.0-3.0-6.0-1.0-2.22","6441a242a7d85d5c3e49a173","6662009ae78f21dd82fcd179","666206c324de6e03c47137ca","null","","null","","","","","","","","./tasks/HMM-beads/Images/WhiteBeadChoiceCorrect.png","","","","","","","","","",""
"image-keyboard-response","205","382861","0.0-3.0-6.0-1.0-0.23","6441a242a7d85d5c3e49a173","6662009ae78f21dd82fcd179","666206c324de6e03c47137ca","971","","j","","","","","","","","./tasks/HMM-beads/Images/NewTrialWC.png","lowH","1","23","1","1","1","1","true","",""
"image-keyboard-response","206","383168","0.0-3.0-6.0-1.0-1.23","6441a242a7d85d5c3e49a173","6662009ae78f21dd82fcd179","666206c324de6e03c47137ca","null","","null","","","","","","","","./tasks/HMM-beads/Images/WhiteBeadChoice.png","","","","","","","","","",""
"image-keyboard-response","207","383683","0.0-3.0-6.0-1.0-2.23","6441a242a7d85d5c3e49a173","6662009ae78f21dd82fcd179","666206c324de6e03c47137ca","null","","null","","","","","","","","./tasks/HMM-beads/Images/WhiteBeadChoiceCorrect.png","","","","","","","","","",""
"image-keyboard-response","208","383857","0.0-3.0-6.0-1.0-0.24","6441a242a7d85d5c3e49a173","6662009ae78f21dd82fcd179","666206c324de6e03c47137ca","174","","j","","","","","","","","./tasks/HMM-beads/Images/NewTrialWC.png","lowH","1","24","1","0","1","1","false","",""
"image-keyboard-response","209","384163","0.0-3.0-6.0-1.0-1.24","6441a242a7d85d5c3e49a173","6662009ae78f21dd82fcd179","666206c324de6e03c47137ca","null","","null","","","","","","","","./tasks/HMM-beads/Images/WhiteBeadChoice.png","","","","","","","","","",""
"image-keyboard-response","210","384678","0.0-3.0-6.0-1.0-2.24","6441a242a7d85d5c3e49a173","6662009ae78f21dd82fcd179","666206c324de6e03c47137ca","null","","null","","","","","","","","./tasks/HMM-beads/Images/WhiteBeadChoiceWrong.png","","","","","","","","","",""
"image-keyboard-response","211","385028","0.0-3.0-6.0-1.0-0.25","6441a242a7d85d5c3e49a173","6662009ae78f21dd82fcd179","666206c324de6e03c47137ca","350","","j","","","","","","","","./tasks/HMM-beads/Images/NewTrialBC.png","lowH","1","25","1","1","0","1","true","",""
"image-keyboard-response","212","385332","0.0-3.0-6.0-1.0-1.25","6441a242a7d85d5c3e49a173","6662009ae78f21dd82fcd179","666206c324de6e03c47137ca","null","","null","","","","","","","","./tasks/HMM-beads/Images/WhiteBeadChoice.png","","","","","","","","","",""
"image-keyboard-response","213","385846","0.0-3.0-6.0-1.0-2.25","6441a242a7d85d5c3e49a173","6662009ae78f21dd82fcd179","666206c324de6e03c47137ca","null","","null","","","","","","","","./tasks/HMM-beads/Images/WhiteBeadChoiceCorrect.png","","","","","","","","","",""
"image-keyboard-response","214","385996","0.0-3.0-6.0-1.0-0.26","6441a242a7d85d5c3e49a173","6662009ae78f21dd82fcd179","666206c324de6e03c47137ca","149","","j","","","","","","","","./tasks/HMM-beads/Images/NewTrialWC.png","lowH","1","26","1","0","1","1","false","",""
"image-keyboard-response","215","386297","0.0-3.0-6.0-1.0-1.26","6441a242a7d85d5c3e49a173","6662009ae78f21dd82fcd179","666206c324de6e03c47137ca","null","","null","","","","","","","","./tasks/HMM-beads/Images/WhiteBeadChoice.png","","","","","","","","","",""
"image-keyboard-response","216","386812","0.0-3.0-6.0-1.0-2.26","6441a242a7d85d5c3e49a173","6662009ae78f21dd82fcd179","666206c324de6e03c47137ca","null","","null","","","","","","","","./tasks/HMM-beads/Images/WhiteBeadChoiceWrong.png","","","","","","","","","",""
"image-keyboard-response","217","387007","0.0-3.0-6.0-1.0-0.27","6441a242a7d85d5c3e49a173","6662009ae78f21dd82fcd179","666206c324de6e03c47137ca","194","","j","","","","","","","","./tasks/HMM-beads/Images/NewTrialBC.png","lowH","1","27","1","1","0","1","true","",""
"image-keyboard-response","218","387312","0.0-3.0-6.0-1.0-1.27","6441a242a7d85d5c3e49a173","6662009ae78f21dd82fcd179","666206c324de6e03c47137ca","null","","null","","","","","","","","./tasks/HMM-beads/Images/WhiteBeadChoice.png","","","","","","","","","",""
"image-keyboard-response","219","387824","0.0-3.0-6.0-1.0-2.27","6441a242a7d85d5c3e49a173","6662009ae78f21dd82fcd179","666206c324de6e03c47137ca","null","","null","","","","","","","","./tasks/HMM-beads/Images/WhiteBeadChoiceCorrect.png","","","","","","","","","",""
"image-keyboard-response","220","387964","0.0-3.0-6.0-1.0-0.28","6441a242a7d85d5c3e49a173","6662009ae78f21dd82fcd179","666206c324de6e03c47137ca","139","","j","","","","","","","","./tasks/HMM-beads/Images/NewTrialWC.png","lowH","1","28","1","1","1","1","true","",""
"image-keyboard-response","221","388276","0.0-3.0-6.0-1.0-1.28","6441a242a7d85d5c3e49a173","6662009ae78f21dd82fcd179","666206c324de6e03c47137ca","null","","null","","","","","","","","./tasks/HMM-beads/Images/WhiteBeadChoice.png","","","","","","","","","",""
"image-keyboard-response","222","388790","0.0-3.0-6.0-1.0-2.28","6441a242a7d85d5c3e49a173","6662009ae78f21dd82fcd179","666206c324de6e03c47137ca","null","","null","","","","","","","","./tasks/HMM-beads/Images/WhiteBeadChoiceCorrect.png","","","","","","","","","",""
"image-keyboard-response","223","388840","0.0-3.0-6.0-1.0-0.29","6441a242a7d85d5c3e49a173","6662009ae78f21dd82fcd179","666206c324de6e03c47137ca","45","","j","","","","","","","","./tasks/HMM-beads/Images/NewTrialWC.png","lowH","1","29","1","1","1","1","true","",""
"image-keyboard-response","224","389148","0.0-3.0-6.0-1.0-1.29","6441a242a7d85d5c3e49a173","6662009ae78f21dd82fcd179","666206c324de6e03c47137ca","null","","null","","","","","","","","./tasks/HMM-beads/Images/WhiteBeadChoice.png","","","","","","","","","",""
"image-keyboard-response","225","389660","0.0-3.0-6.0-1.0-2.29","6441a242a7d85d5c3e49a173","6662009ae78f21dd82fcd179","666206c324de6e03c47137ca","null","","null","","","","","","","","./tasks/HMM-beads/Images/WhiteBeadChoiceCorrect.png","","","","","","","","","",""
"image-keyboard-response","226","389665","0.0-3.0-6.0-1.0-0.30","6441a242a7d85d5c3e49a173","6662009ae78f21dd82fcd179","666206c324de6e03c47137ca","4","","j","","","","","","","","./tasks/HMM-beads/Images/NewTrialWC.png","lowH","1","30","1","1","1","1","true","",""
"image-keyboard-response","227","389974","0.0-3.0-6.0-1.0-1.30","6441a242a7d85d5c3e49a173","6662009ae78f21dd82fcd179","666206c324de6e03c47137ca","null","","null","","","","","","","","./tasks/HMM-beads/Images/WhiteBeadChoice.png","","","","","","","","","",""
"image-keyboard-response","228","390485","0.0-3.0-6.0-1.0-2.30","6441a242a7d85d5c3e49a173","6662009ae78f21dd82fcd179","666206c324de6e03c47137ca","null","","null","","","","","","","","./tasks/HMM-beads/Images/WhiteBeadChoiceCorrect.png","","","","","","","","","",""
"image-keyboard-response","229","391164","0.0-3.0-6.0-1.0-0.31","6441a242a7d85d5c3e49a173","6662009ae78f21dd82fcd179","666206c324de6e03c47137ca","679","","j","","","","","","","","./tasks/HMM-beads/Images/NewTrialWC.png","lowH","1","31","1","1","1","1","true","",""
"image-keyboard-response","230","391480","0.0-3.0-6.0-1.0-1.31","6441a242a7d85d5c3e49a173","6662009ae78f21dd82fcd179","666206c324de6e03c47137ca","null","","null","","","","","","","","./tasks/HMM-beads/Images/WhiteBeadChoice.png","","","","","","","","","",""
"image-keyboard-response","231","391994","0.0-3.0-6.0-1.0-2.31","6441a242a7d85d5c3e49a173","6662009ae78f21dd82fcd179","666206c324de6e03c47137ca","null","","null","","","","","","","","./tasks/HMM-beads/Images/WhiteBeadChoiceCorrect.png","","","","","","","","","",""
"image-keyboard-response","232","392026","0.0-3.0-6.0-1.0-0.32","6441a242a7d85d5c3e49a173","6662009ae78f21dd82fcd179","666206c324de6e03c47137ca","32","","j","","","","","","","","./tasks/HMM-beads/Images/NewTrialWC.png","lowH","1","32","1","1","1","1","true","",""
"image-keyboard-response","233","392334","0.0-3.0-6.0-1.0-1.32","6441a242a7d85d5c3e49a173","6662009ae78f21dd82fcd179","666206c324de6e03c47137ca","null","","null","","","","","","","","./tasks/HMM-beads/Images/WhiteBeadChoice.png","","","","","","","","","",""
"image-keyboard-response","234","392847","0.0-3.0-6.0-1.0-2.32","6441a242a7d85d5c3e49a173","6662009ae78f21dd82fcd179","666206c324de6e03c47137ca","null","","null","","","","","","","","./tasks/HMM-beads/Images/WhiteBeadChoiceCorrect.png","","","","","","","","","",""
"image-keyboard-response","235","393311","0.0-3.0-6.0-1.0-0.33","6441a242a7d85d5c3e49a173","6662009ae78f21dd82fcd179","666206c324de6e03c47137ca","464","","j","","","","","","","","./tasks/HMM-beads/Images/NewTrialWC.png","lowH","1","33","1","1","1","1","true","",""
"image-keyboard-response","236","393626","0.0-3.0-6.0-1.0-1.33","6441a242a7d85d5c3e49a173","6662009ae78f21dd82fcd179","666206c324de6e03c47137ca","null","","null","","","","","","","","./tasks/HMM-beads/Images/WhiteBeadChoice.png","","","","","","","","","",""
"image-keyboard-response","237","394141","0.0-3.0-6.0-1.0-2.33","6441a242a7d85d5c3e49a173","6662009ae78f21dd82fcd179","666206c324de6e03c47137ca","null","","null","","","","","","","","./tasks/HMM-beads/Images/WhiteBeadChoiceCorrect.png","","","","","","","","","",""
"image-keyboard-response","238","394314","0.0-3.0-6.0-1.0-0.34","6441a242a7d85d5c3e49a173","6662009ae78f21dd82fcd179","666206c324de6e03c47137ca","173","","j","","","","","","","","./tasks/HMM-beads/Images/NewTrialWC.png","lowH","1","34","1","1","1","1","true","",""
"image-keyboard-response","239","394626","0.0-3.0-6.0-1.0-1.34","6441a242a7d85d5c3e49a173","6662009ae78f21dd82fcd179","666206c324de6e03c47137ca","null","","null","","","","","","","","./tasks/HMM-beads/Images/WhiteBeadChoice.png","","","","","","","","","",""
"image-keyboard-response","240","395139","0.0-3.0-6.0-1.0-2.34","6441a242a7d85d5c3e49a173","6662009ae78f21dd82fcd179","666206c324de6e03c47137ca","null","","null","","","","","","","","./tasks/HMM-beads/Images/WhiteBeadChoiceCorrect.png","","","","","","","","","",""
"image-keyboard-response","241","395623","0.0-3.0-6.0-1.0-0.35","6441a242a7d85d5c3e49a173","6662009ae78f21dd82fcd179","666206c324de6e03c47137ca","484","","j","","","","","","","","./tasks/HMM-beads/Images/NewTrialWC.png","lowH","1","35","1","1","1","1","true","",""
"image-keyboard-response","242","395934","0.0-3.0-6.0-1.0-1.35","6441a242a7d85d5c3e49a173","6662009ae78f21dd82fcd179","666206c324de6e03c47137ca","null","","null","","","","","","","","./tasks/HMM-beads/Images/WhiteBeadChoice.png","","","","","","","","","",""
"image-keyboard-response","243","396449","0.0-3.0-6.0-1.0-2.35","6441a242a7d85d5c3e49a173","6662009ae78f21dd82fcd179","666206c324de6e03c47137ca","null","","null","","","","","","","","./tasks/HMM-beads/Images/WhiteBeadChoiceCorrect.png","","","","","","","","","",""
"image-keyboard-response","244","396872","0.0-3.0-6.0-1.0-0.36","6441a242a7d85d5c3e49a173","6662009ae78f21dd82fcd179","666206c324de6e03c47137ca","423","","j","","","","","","","","./tasks/HMM-beads/Images/NewTrialWC.png","lowH","1","36","1","1","1","1","true","",""
"image-keyboard-response","245","397179","0.0-3.0-6.0-1.0-1.36","6441a242a7d85d5c3e49a173","6662009ae78f21dd82fcd179","666206c324de6e03c47137ca","null","","null","","","","","","","","./tasks/HMM-beads/Images/WhiteBeadChoice.png","","","","","","","","","",""
"image-keyboard-response","246","397694","0.0-3.0-6.0-1.0-2.36","6441a242a7d85d5c3e49a173","6662009ae78f21dd82fcd179","666206c324de6e03c47137ca","null","","null","","","","","","","","./tasks/HMM-beads/Images/WhiteBeadChoiceCorrect.png","","","","","","","","","",""
"image-keyboard-response","247","398144","0.0-3.0-6.0-1.0-0.37","6441a242a7d85d5c3e49a173","6662009ae78f21dd82fcd179","666206c324de6e03c47137ca","449","","j","","","","","","","","./tasks/HMM-beads/Images/NewTrialWC.png","lowH","1","37","1","1","1","1","true","",""
"image-keyboard-response","248","398456","0.0-3.0-6.0-1.0-1.37","6441a242a7d85d5c3e49a173","6662009ae78f21dd82fcd179","666206c324de6e03c47137ca","null","","null","","","","","","","","./tasks/HMM-beads/Images/WhiteBeadChoice.png","","","","","","","","","",""
"image-keyboard-response","249","398967","0.0-3.0-6.0-1.0-2.37","6441a242a7d85d5c3e49a173","6662009ae78f21dd82fcd179","666206c324de6e03c47137ca","null","","null","","","","","","","","./tasks/HMM-beads/Images/WhiteBeadChoiceCorrect.png","","","","","","","","","",""
"image-keyboard-response","250","399324","0.0-3.0-6.0-1.0-0.38","6441a242a7d85d5c3e49a173","6662009ae78f21dd82fcd179","666206c324de6e03c47137ca","356","","j","","","","","","","","./tasks/HMM-beads/Images/NewTrialWC.png","lowH","1","38","1","1","1","1","true","",""
"image-keyboard-response","251","399636","0.0-3.0-6.0-1.0-1.38","6441a242a7d85d5c3e49a173","6662009ae78f21dd82fcd179","666206c324de6e03c47137ca","null","","null","","","","","","","","./tasks/HMM-beads/Images/WhiteBeadChoice.png","","","","","","","","","",""
"image-keyboard-response","252","400152","0.0-3.0-6.0-1.0-2.38","6441a242a7d85d5c3e49a173","6662009ae78f21dd82fcd179","666206c324de6e03c47137ca","null","","null","","","","","","","","./tasks/HMM-beads/Images/WhiteBeadChoiceCorrect.png","","","","","","","","","",""
"image-keyboard-response","253","400344","0.0-3.0-6.0-1.0-0.39","6441a242a7d85d5c3e49a173","6662009ae78f21dd82fcd179","666206c324de6e03c47137ca","191","","j","","","","","","","","./tasks/HMM-beads/Images/NewTrialWC.png","lowH","1","39","1","1","1","1","true","",""
"image-keyboard-response","254","400654","0.0-3.0-6.0-1.0-1.39","6441a242a7d85d5c3e49a173","6662009ae78f21dd82fcd179","666206c324de6e03c47137ca","null","","null","","","","","","","","./tasks/HMM-beads/Images/WhiteBeadChoice.png","","","","","","","","","",""
"image-keyboard-response","255","401165","0.0-3.0-6.0-1.0-2.39","6441a242a7d85d5c3e49a173","6662009ae78f21dd82fcd179","666206c324de6e03c47137ca","null","","null","","","","","","","","./tasks/HMM-beads/Images/WhiteBeadChoiceCorrect.png","","","","","","","","","",""
"image-keyboard-response","256","401290","0.0-3.0-6.0-1.0-0.40","6441a242a7d85d5c3e49a173","6662009ae78f21dd82fcd179","666206c324de6e03c47137ca","124","","j","","","","","","","","./tasks/HMM-beads/Images/NewTrialWC.png","lowH","1","40","1","1","1","1","true","",""
"image-keyboard-response","257","401602","0.0-3.0-6.0-1.0-1.40","6441a242a7d85d5c3e49a173","6662009ae78f21dd82fcd179","666206c324de6e03c47137ca","null","","null","","","","","","","","./tasks/HMM-beads/Images/WhiteBeadChoice.png","","","","","","","","","",""
"image-keyboard-response","258","402105","0.0-3.0-6.0-1.0-2.40","6441a242a7d85d5c3e49a173","6662009ae78f21dd82fcd179","666206c324de6e03c47137ca","null","","null","","","","","","","","./tasks/HMM-beads/Images/WhiteBeadChoiceCorrect.png","","","","","","","","","",""
"image-keyboard-response","259","402232","0.0-3.0-6.0-1.0-0.41","6441a242a7d85d5c3e49a173","6662009ae78f21dd82fcd179","666206c324de6e03c47137ca","127","","j","","","","","","","","./tasks/HMM-beads/Images/NewTrialWC.png","lowH","1","41","1","1","1","1","true","",""
"image-keyboard-response","260","402540","0.0-3.0-6.0-1.0-1.41","6441a242a7d85d5c3e49a173","6662009ae78f21dd82fcd179","666206c324de6e03c47137ca","null","","null","","","","","","","","./tasks/HMM-beads/Images/WhiteBeadChoice.png","","","","","","","","","",""
"image-keyboard-response","261","403055","0.0-3.0-6.0-1.0-2.41","6441a242a7d85d5c3e49a173","6662009ae78f21dd82fcd179","666206c324de6e03c47137ca","null","","null","","","","","","","","./tasks/HMM-beads/Images/WhiteBeadChoiceCorrect.png","","","","","","","","","",""
"image-keyboard-response","262","403180","0.0-3.0-6.0-1.0-0.42","6441a242a7d85d5c3e49a173","6662009ae78f21dd82fcd179","666206c324de6e03c47137ca","125","","j","","","","","","","","./tasks/HMM-beads/Images/NewTrialWC.png","lowH","1","42","1","1","1","1","true","",""
"image-keyboard-response","263","403492","0.0-3.0-6.0-1.0-1.42","6441a242a7d85d5c3e49a173","6662009ae78f21dd82fcd179","666206c324de6e03c47137ca","null","","null","","","","","","","","./tasks/HMM-beads/Images/WhiteBeadChoice.png","","","","","","","","","",""
"image-keyboard-response","264","404007","0.0-3.0-6.0-1.0-2.42","6441a242a7d85d5c3e49a173","6662009ae78f21dd82fcd179","666206c324de6e03c47137ca","null","","null","","","","","","","","./tasks/HMM-beads/Images/WhiteBeadChoiceCorrect.png","","","","","","","","","",""
"image-keyboard-response","265","404100","0.0-3.0-6.0-1.0-0.43","6441a242a7d85d5c3e49a173","6662009ae78f21dd82fcd179","666206c324de6e03c47137ca","93","","j","","","","","","","","./tasks/HMM-beads/Images/NewTrialWC.png","lowH","1","43","1","1","1","1","true","",""
"image-keyboard-response","266","404410","0.0-3.0-6.0-1.0-1.43","6441a242a7d85d5c3e49a173","6662009ae78f21dd82fcd179","666206c324de6e03c47137ca","null","","null","","","","","","","","./tasks/HMM-beads/Images/WhiteBeadChoice.png","","","","","","","","","",""
"image-keyboard-response","267","404911","0.0-3.0-6.0-1.0-2.43","6441a242a7d85d5c3e49a173","6662009ae78f21dd82fcd179","666206c324de6e03c47137ca","null","","null","","","","","","","","./tasks/HMM-beads/Images/WhiteBeadChoiceCorrect.png","","","","","","","","","",""
"image-keyboard-response","268","404991","0.0-3.0-6.0-1.0-0.44","6441a242a7d85d5c3e49a173","6662009ae78f21dd82fcd179","666206c324de6e03c47137ca","80","","j","","","","","","","","./tasks/HMM-beads/Images/NewTrialWC.png","lowH","1","44","1","1","1","1","true","",""
"image-keyboard-response","269","405299","0.0-3.0-6.0-1.0-1.44","6441a242a7d85d5c3e49a173","6662009ae78f21dd82fcd179","666206c324de6e03c47137ca","null","","null","","","","","","","","./tasks/HMM-beads/Images/WhiteBeadChoice.png","","","","","","","","","",""
"image-keyboard-response","270","405813","0.0-3.0-6.0-1.0-2.44","6441a242a7d85d5c3e49a173","6662009ae78f21dd82fcd179","666206c324de6e03c47137ca","null","","null","","","","","","","","./tasks/HMM-beads/Images/WhiteBeadChoiceCorrect.png","","","","","","","","","",""
"image-keyboard-response","271","405931","0.0-3.0-6.0-1.0-0.45","6441a242a7d85d5c3e49a173","6662009ae78f21dd82fcd179","666206c324de6e03c47137ca","119","","j","","","","","","","","./tasks/HMM-beads/Images/NewTrialWC.png","lowH","1","45","1","1","1","1","true","",""
"image-keyboard-response","272","406235","0.0-3.0-6.0-1.0-1.45","6441a242a7d85d5c3e49a173","6662009ae78f21dd82fcd179","666206c324de6e03c47137ca","null","","null","","","","","","","","./tasks/HMM-beads/Images/WhiteBeadChoice.png","","","","","","","","","",""
"image-keyboard-response","273","406745","0.0-3.0-6.0-1.0-2.45","6441a242a7d85d5c3e49a173","6662009ae78f21dd82fcd179","666206c324de6e03c47137ca","null","","null","","","","","","","","./tasks/HMM-beads/Images/WhiteBeadChoiceCorrect.png","","","","","","","","","",""
"image-keyboard-response","274","406872","0.0-3.0-6.0-1.0-0.46","6441a242a7d85d5c3e49a173","6662009ae78f21dd82fcd179","666206c324de6e03c47137ca","126","","j","","","","","","","","./tasks/HMM-beads/Images/NewTrialWC.png","lowH","1","46","1","1","1","1","true","",""
"image-keyboard-response","275","407182","0.0-3.0-6.0-1.0-1.46","6441a242a7d85d5c3e49a173","6662009ae78f21dd82fcd179","666206c324de6e03c47137ca","null","","null","","","","","","","","./tasks/HMM-beads/Images/WhiteBeadChoice.png","","","","","","","","","",""
"image-keyboard-response","276","407699","0.0-3.0-6.0-1.0-2.46","6441a242a7d85d5c3e49a173","6662009ae78f21dd82fcd179","666206c324de6e03c47137ca","null","","null","","","","","","","","./tasks/HMM-beads/Images/WhiteBeadChoiceCorrect.png","","","","","","","","","",""
"image-keyboard-response","277","407759","0.0-3.0-6.0-1.0-0.47","6441a242a7d85d5c3e49a173","6662009ae78f21dd82fcd179","666206c324de6e03c47137ca","59","","j","","","","","","","","./tasks/HMM-beads/Images/NewTrialWC.png","lowH","1","47","1","0","1","1","false","",""
"image-keyboard-response","278","408073","0.0-3.0-6.0-1.0-1.47","6441a242a7d85d5c3e49a173","6662009ae78f21dd82fcd179","666206c324de6e03c47137ca","null","","null","","","","","","","","./tasks/HMM-beads/Images/WhiteBeadChoice.png","","","","","","","","","",""
"image-keyboard-response","279","408587","0.0-3.0-6.0-1.0-2.47","6441a242a7d85d5c3e49a173","6662009ae78f21dd82fcd179","666206c324de6e03c47137ca","null","","null","","","","","","","","./tasks/HMM-beads/Images/WhiteBeadChoiceWrong.png","","","","","","","","","",""
"image-keyboard-response","280","408960","0.0-3.0-6.0-1.0-0.48","6441a242a7d85d5c3e49a173","6662009ae78f21dd82fcd179","666206c324de6e03c47137ca","372","","j","","","","","","","","./tasks/HMM-beads/Images/NewTrialBC.png","lowH","1","48","1","0","0","1","false","",""
"image-keyboard-response","281","409273","0.0-3.0-6.0-1.0-1.48","6441a242a7d85d5c3e49a173","6662009ae78f21dd82fcd179","666206c324de6e03c47137ca","null","","null","","","","","","","","./tasks/HMM-beads/Images/WhiteBeadChoice.png","","","","","","","","","",""
"image-keyboard-response","282","409787","0.0-3.0-6.0-1.0-2.48","6441a242a7d85d5c3e49a173","6662009ae78f21dd82fcd179","666206c324de6e03c47137ca","null","","null","","","","","","","","./tasks/HMM-beads/Images/WhiteBeadChoiceWrong.png","","","","","","","","","",""
"image-keyboard-response","283","409790","0.0-3.0-6.0-1.0-0.49","6441a242a7d85d5c3e49a173","6662009ae78f21dd82fcd179","666206c324de6e03c47137ca","3","","j","","","","","","","","./tasks/HMM-beads/Images/NewTrialBC.png","lowH","1","49","1","0","0","1","false","",""
"image-keyboard-response","284","410100","0.0-3.0-6.0-1.0-1.49","6441a242a7d85d5c3e49a173","6662009ae78f21dd82fcd179","666206c324de6e03c47137ca","null","","null","","","","","","","","./tasks/HMM-beads/Images/WhiteBeadChoice.png","","","","","","","","","",""
"image-keyboard-response","285","410614","0.0-3.0-6.0-1.0-2.49","6441a242a7d85d5c3e49a173","6662009ae78f21dd82fcd179","666206c324de6e03c47137ca","null","","null","","","","","","","","./tasks/HMM-beads/Images/WhiteBeadChoiceWrong.png","","","","","","","","","",""
"image-keyboard-response","286","411510","0.0-3.0-6.0-1.0-0.50","6441a242a7d85d5c3e49a173","6662009ae78f21dd82fcd179","666206c324de6e03c47137ca","896","","f","","","","","","","","./tasks/HMM-beads/Images/NewTrialBC.png","lowH","1","50","1","1","0","0","false","",""
"image-keyboard-response","287","411811","0.0-3.0-6.0-1.0-1.50","6441a242a7d85d5c3e49a173","6662009ae78f21dd82fcd179","666206c324de6e03c47137ca","null","","null","","","","","","","","./tasks/HMM-beads/Images/BlackBeadChoice.png","","","","","","","","","",""
"image-keyboard-response","288","412322","0.0-3.0-6.0-1.0-2.50","6441a242a7d85d5c3e49a173","6662009ae78f21dd82fcd179","666206c324de6e03c47137ca","null","","null","","","","","","","","./tasks/HMM-beads/Images/BlackBeadChoiceWrong.png","","","","","","","","","",""
"image-keyboard-response","289","412883","0.0-3.0-6.0-1.0-0.51","6441a242a7d85d5c3e49a173","6662009ae78f21dd82fcd179","666206c324de6e03c47137ca","560","","f","","","","","","","","./tasks/HMM-beads/Images/NewTrialWC.png","lowH","1","51","1","1","1","0","false","",""
"image-keyboard-response","290","413191","0.0-3.0-6.0-1.0-1.51","6441a242a7d85d5c3e49a173","6662009ae78f21dd82fcd179","666206c324de6e03c47137ca","null","","null","","","","","","","","./tasks/HMM-beads/Images/BlackBeadChoice.png","","","","","","","","","",""
"image-keyboard-response","291","413705","0.0-3.0-6.0-1.0-2.51","6441a242a7d85d5c3e49a173","6662009ae78f21dd82fcd179","666206c324de6e03c47137ca","null","","null","","","","","","","","./tasks/HMM-beads/Images/BlackBeadChoiceWrong.png","","","","","","","","","",""
"image-keyboard-response","292","414086","0.0-3.0-6.0-1.0-0.52","6441a242a7d85d5c3e49a173","6662009ae78f21dd82fcd179","666206c324de6e03c47137ca","380","","j","","","","","","","","./tasks/HMM-beads/Images/NewTrialWC.png","lowH","1","52","1","1","1","1","true","",""
"image-keyboard-response","293","414391","0.0-3.0-6.0-1.0-1.52","6441a242a7d85d5c3e49a173","6662009ae78f21dd82fcd179","666206c324de6e03c47137ca","null","","null","","","","","","","","./tasks/HMM-beads/Images/WhiteBeadChoice.png","","","","","","","","","",""
"image-keyboard-response","294","414905","0.0-3.0-6.0-1.0-2.52","6441a242a7d85d5c3e49a173","6662009ae78f21dd82fcd179","666206c324de6e03c47137ca","null","","null","","","","","","","","./tasks/HMM-beads/Images/WhiteBeadChoiceCorrect.png","","","","","","","","","",""
"image-keyboard-response","295","415000","0.0-3.0-6.0-1.0-0.53","6441a242a7d85d5c3e49a173","6662009ae78f21dd82fcd179","666206c324de6e03c47137ca","95","","j","","","","","","","","./tasks/HMM-beads/Images/NewTrialWC.png","lowH","1","53","1","1","1","1","true","",""
"image-keyboard-response","296","415309","0.0-3.0-6.0-1.0-1.53","6441a242a7d85d5c3e49a173","6662009ae78f21dd82fcd179","666206c324de6e03c47137ca","null","","null","","","","","","","","./tasks/HMM-beads/Images/WhiteBeadChoice.png","","","","","","","","","",""
"image-keyboard-response","297","415823","0.0-3.0-6.0-1.0-2.53","6441a242a7d85d5c3e49a173","6662009ae78f21dd82fcd179","666206c324de6e03c47137ca","null","","null","","","","","","","","./tasks/HMM-beads/Images/WhiteBeadChoiceCorrect.png","","","","","","","","","",""
"image-keyboard-response","298","415892","0.0-3.0-6.0-1.0-0.54","6441a242a7d85d5c3e49a173","6662009ae78f21dd82fcd179","666206c324de6e03c47137ca","69","","j","","","","","","","","./tasks/HMM-beads/Images/NewTrialWC.png","lowH","1","54","1","1","1","1","true","",""
"image-keyboard-response","299","416199","0.0-3.0-6.0-1.0-1.54","6441a242a7d85d5c3e49a173","6662009ae78f21dd82fcd179","666206c324de6e03c47137ca","null","","null","","","","","","","","./tasks/HMM-beads/Images/WhiteBeadChoice.png","","","","","","","","","",""
"image-keyboard-response","300","416713","0.0-3.0-6.0-1.0-2.54","6441a242a7d85d5c3e49a173","6662009ae78f21dd82fcd179","666206c324de6e03c47137ca","null","","null","","","","","","","","./tasks/HMM-beads/Images/WhiteBeadChoiceCorrect.png","","","","","","","","","",""
"image-keyboard-response","301","416742","0.0-3.0-6.0-1.0-0.55","6441a242a7d85d5c3e49a173","6662009ae78f21dd82fcd179","666206c324de6e03c47137ca","24","","j","","","","","","","","./tasks/HMM-beads/Images/NewTrialWC.png","lowH","1","55","1","1","1","1","true","",""
"image-keyboard-response","302","417054","0.0-3.0-6.0-1.0-1.55","6441a242a7d85d5c3e49a173","6662009ae78f21dd82fcd179","666206c324de6e03c47137ca","null","","null","","","","","","","","./tasks/HMM-beads/Images/WhiteBeadChoice.png","","","","","","","","","",""
"image-keyboard-response","303","417566","0.0-3.0-6.0-1.0-2.55","6441a242a7d85d5c3e49a173","6662009ae78f21dd82fcd179","666206c324de6e03c47137ca","null","","null","","","","","","","","./tasks/HMM-beads/Images/WhiteBeadChoiceCorrect.png","","","","","","","","","",""
"image-keyboard-response","304","417686","0.0-3.0-6.0-1.0-0.56","6441a242a7d85d5c3e49a173","6662009ae78f21dd82fcd179","666206c324de6e03c47137ca","119","","j","","","","","","","","./tasks/HMM-beads/Images/NewTrialWC.png","lowH","1","56","1","1","1","1","true","",""
"image-keyboard-response","305","418001","0.0-3.0-6.0-1.0-1.56","6441a242a7d85d5c3e49a173","6662009ae78f21dd82fcd179","666206c324de6e03c47137ca","null","","null","","","","","","","","./tasks/HMM-beads/Images/WhiteBeadChoice.png","","","","","","","","","",""
"image-keyboard-response","306","418514","0.0-3.0-6.0-1.0-2.56","6441a242a7d85d5c3e49a173","6662009ae78f21dd82fcd179","666206c324de6e03c47137ca","null","","null","","","","","","","","./tasks/HMM-beads/Images/WhiteBeadChoiceCorrect.png","","","","","","","","","",""
"image-keyboard-response","307","418577","0.0-3.0-6.0-1.0-0.57","6441a242a7d85d5c3e49a173","6662009ae78f21dd82fcd179","666206c324de6e03c47137ca","62","","j","","","","","","","","./tasks/HMM-beads/Images/NewTrialWC.png","lowH","1","57","1","1","1","1","true","",""
"image-keyboard-response","308","418888","0.0-3.0-6.0-1.0-1.57","6441a242a7d85d5c3e49a173","6662009ae78f21dd82fcd179","666206c324de6e03c47137ca","null","","null","","","","","","","","./tasks/HMM-beads/Images/WhiteBeadChoice.png","","","","","","","","","",""
"image-keyboard-response","309","419390","0.0-3.0-6.0-1.0-2.57","6441a242a7d85d5c3e49a173","6662009ae78f21dd82fcd179","666206c324de6e03c47137ca","null","","null","","","","","","","","./tasks/HMM-beads/Images/WhiteBeadChoiceCorrect.png","","","","","","","","","",""
"image-keyboard-response","310","419454","0.0-3.0-6.0-1.0-0.58","6441a242a7d85d5c3e49a173","6662009ae78f21dd82fcd179","666206c324de6e03c47137ca","64","","j","","","","","","","","./tasks/HMM-beads/Images/NewTrialWC.png","lowH","1","58","1","1","1","1","true","",""
"image-keyboard-response","311","419766","0.0-3.0-6.0-1.0-1.58","6441a242a7d85d5c3e49a173","6662009ae78f21dd82fcd179","666206c324de6e03c47137ca","null","","null","","","","","","","","./tasks/HMM-beads/Images/WhiteBeadChoice.png","","","","","","","","","",""
"image-keyboard-response","312","420280","0.0-3.0-6.0-1.0-2.58","6441a242a7d85d5c3e49a173","6662009ae78f21dd82fcd179","666206c324de6e03c47137ca","null","","null","","","","","","","","./tasks/HMM-beads/Images/WhiteBeadChoiceCorrect.png","","","","","","","","","",""
"image-keyboard-response","313","420394","0.0-3.0-6.0-1.0-0.59","6441a242a7d85d5c3e49a173","6662009ae78f21dd82fcd179","666206c324de6e03c47137ca","113","","j","","","","","","","","./tasks/HMM-beads/Images/NewTrialWC.png","lowH","1","59","1","0","1","1","false","",""
"image-keyboard-response","314","420701","0.0-3.0-6.0-1.0-1.59","6441a242a7d85d5c3e49a173","6662009ae78f21dd82fcd179","666206c324de6e03c47137ca","null","","null","","","","","","","","./tasks/HMM-beads/Images/WhiteBeadChoice.png","","","","","","","","","",""
"image-keyboard-response","315","421212","0.0-3.0-6.0-1.0-2.59","6441a242a7d85d5c3e49a173","6662009ae78f21dd82fcd179","666206c324de6e03c47137ca","null","","null","","","","","","","","./tasks/HMM-beads/Images/WhiteBeadChoiceWrong.png","","","","","","","","","",""
"image-keyboard-response","316","421513","0.0-3.0-6.0-1.0-0.60","6441a242a7d85d5c3e49a173","6662009ae78f21dd82fcd179","666206c324de6e03c47137ca","300","","j","","","","","","","","./tasks/HMM-beads/Images/NewTrialBC.png","lowH","1","60","1","1","0","1","true","",""
"image-keyboard-response","317","421820","0.0-3.0-6.0-1.0-1.60","6441a242a7d85d5c3e49a173","6662009ae78f21dd82fcd179","666206c324de6e03c47137ca","null","","null","","","","","","","","./tasks/HMM-beads/Images/WhiteBeadChoice.png","","","","","","","","","",""
"image-keyboard-response","318","422333","0.0-3.0-6.0-1.0-2.60","6441a242a7d85d5c3e49a173","6662009ae78f21dd82fcd179","666206c324de6e03c47137ca","null","","null","","","","","","","","./tasks/HMM-beads/Images/WhiteBeadChoiceCorrect.png","","","","","","","","","",""
"image-keyboard-response","319","422449","0.0-3.0-6.0-1.0-0.61","6441a242a7d85d5c3e49a173","6662009ae78f21dd82fcd179","666206c324de6e03c47137ca","116","","j","","","","","","","","./tasks/HMM-beads/Images/NewTrialWC.png","lowH","1","61","1","1","1","1","true","",""
"image-keyboard-response","320","422751","0.0-3.0-6.0-1.0-1.61","6441a242a7d85d5c3e49a173","6662009ae78f21dd82fcd179","666206c324de6e03c47137ca","null","","null","","","","","","","","./tasks/HMM-beads/Images/WhiteBeadChoice.png","","","","","","","","","",""
"image-keyboard-response","321","423262","0.0-3.0-6.0-1.0-2.61","6441a242a7d85d5c3e49a173","6662009ae78f21dd82fcd179","666206c324de6e03c47137ca","null","","null","","","","","","","","./tasks/HMM-beads/Images/WhiteBeadChoiceCorrect.png","","","","","","","","","",""
"image-keyboard-response","322","423373","0.0-3.0-6.0-1.0-0.62","6441a242a7d85d5c3e49a173","6662009ae78f21dd82fcd179","666206c324de6e03c47137ca","110","","j","","","","","","","","./tasks/HMM-beads/Images/NewTrialWC.png","lowH","1","62","1","0","1","1","false","",""
"image-keyboard-response","323","423681","0.0-3.0-6.0-1.0-1.62","6441a242a7d85d5c3e49a173","6662009ae78f21dd82fcd179","666206c324de6e03c47137ca","null","","null","","","","","","","","./tasks/HMM-beads/Images/WhiteBeadChoice.png","","","","","","","","","",""
"image-keyboard-response","324","424193","0.0-3.0-6.0-1.0-2.62","6441a242a7d85d5c3e49a173","6662009ae78f21dd82fcd179","666206c324de6e03c47137ca","null","","null","","","","","","","","./tasks/HMM-beads/Images/WhiteBeadChoiceWrong.png","","","","","","","","","",""
"image-keyboard-response","325","424232","0.0-3.0-6.0-1.0-0.63","6441a242a7d85d5c3e49a173","6662009ae78f21dd82fcd179","666206c324de6e03c47137ca","38","","j","","","","","","","","./tasks/HMM-beads/Images/NewTrialBC.png","lowH","1","63","1","1","0","1","true","",""
"image-keyboard-response","326","424535","0.0-3.0-6.0-1.0-1.63","6441a242a7d85d5c3e49a173","6662009ae78f21dd82fcd179","666206c324de6e03c47137ca","null","","null","","","","","","","","./tasks/HMM-beads/Images/WhiteBeadChoice.png","","","","","","","","","",""
"image-keyboard-response","327","425048","0.0-3.0-6.0-1.0-2.63","6441a242a7d85d5c3e49a173","6662009ae78f21dd82fcd179","666206c324de6e03c47137ca","null","","null","","","","","","","","./tasks/HMM-beads/Images/WhiteBeadChoiceCorrect.png","","","","","","","","","",""
"image-keyboard-response","328","425104","0.0-3.0-6.0-1.0-0.64","6441a242a7d85d5c3e49a173","6662009ae78f21dd82fcd179","666206c324de6e03c47137ca","55","","j","","","","","","","","./tasks/HMM-beads/Images/NewTrialWC.png","lowH","1","64","1","1","1","1","true","",""
"image-keyboard-response","329","425406","0.0-3.0-6.0-1.0-1.64","6441a242a7d85d5c3e49a173","6662009ae78f21dd82fcd179","666206c324de6e03c47137ca","null","","null","","","","","","","","./tasks/HMM-beads/Images/WhiteBeadChoice.png","","","","","","","","","",""
"image-keyboard-response","330","425921","0.0-3.0-6.0-1.0-2.64","6441a242a7d85d5c3e49a173","6662009ae78f21dd82fcd179","666206c324de6e03c47137ca","null","","null","","","","","","","","./tasks/HMM-beads/Images/WhiteBeadChoiceCorrect.png","","","","","","","","","",""
"image-keyboard-response","331","425945","0.0-3.0-6.0-1.0-0.65","6441a242a7d85d5c3e49a173","6662009ae78f21dd82fcd179","666206c324de6e03c47137ca","24","","j","","","","","","","","./tasks/HMM-beads/Images/NewTrialWC.png","lowH","1","65","1","1","1","1","true","",""
"image-keyboard-response","332","426249","0.0-3.0-6.0-1.0-1.65","6441a242a7d85d5c3e49a173","6662009ae78f21dd82fcd179","666206c324de6e03c47137ca","null","","null","","","","","","","","./tasks/HMM-beads/Images/WhiteBeadChoice.png","","","","","","","","","",""
"image-keyboard-response","333","426760","0.0-3.0-6.0-1.0-2.65","6441a242a7d85d5c3e49a173","6662009ae78f21dd82fcd179","666206c324de6e03c47137ca","null","","null","","","","","","","","./tasks/HMM-beads/Images/WhiteBeadChoiceCorrect.png","","","","","","","","","",""
"image-keyboard-response","334","427233","0.0-3.0-6.0-1.0-0.66","6441a242a7d85d5c3e49a173","6662009ae78f21dd82fcd179","666206c324de6e03c47137ca","473","","j","","","","","","","","./tasks/HMM-beads/Images/NewTrialWC.png","lowH","1","66","1","1","1","1","true","",""
"image-keyboard-response","335","427534","0.0-3.0-6.0-1.0-1.66","6441a242a7d85d5c3e49a173","6662009ae78f21dd82fcd179","666206c324de6e03c47137ca","null","","null","","","","","","","","./tasks/HMM-beads/Images/WhiteBeadChoice.png","","","","","","","","","",""
"image-keyboard-response","336","428048","0.0-3.0-6.0-1.0-2.66","6441a242a7d85d5c3e49a173","6662009ae78f21dd82fcd179","666206c324de6e03c47137ca","null","","null","","","","","","","","./tasks/HMM-beads/Images/WhiteBeadChoiceCorrect.png","","","","","","","","","",""
"image-keyboard-response","337","428108","0.0-3.0-6.0-1.0-0.67","6441a242a7d85d5c3e49a173","6662009ae78f21dd82fcd179","666206c324de6e03c47137ca","60","","j","","","","","","","","./tasks/HMM-beads/Images/NewTrialWC.png","lowH","1","67","1","0","1","1","false","",""
"image-keyboard-response","338","428421","0.0-3.0-6.0-1.0-1.67","6441a242a7d85d5c3e49a173","6662009ae78f21dd82fcd179","666206c324de6e03c47137ca","null","","null","","","","","","","","./tasks/HMM-beads/Images/WhiteBeadChoice.png","","","","","","","","","",""
"image-keyboard-response","339","428934","0.0-3.0-6.0-1.0-2.67","6441a242a7d85d5c3e49a173","6662009ae78f21dd82fcd179","666206c324de6e03c47137ca","null","","null","","","","","","","","./tasks/HMM-beads/Images/WhiteBeadChoiceWrong.png","","","","","","","","","",""
"image-keyboard-response","340","430203","0.0-3.0-6.0-1.0-0.68","6441a242a7d85d5c3e49a173","6662009ae78f21dd82fcd179","666206c324de6e03c47137ca","1264","","j","","","","","","","","./tasks/HMM-beads/Images/NewTrialBC.png","lowH","1","68","1","1","0","1","true","",""
"image-keyboard-response","341","430505","0.0-3.0-6.0-1.0-1.68","6441a242a7d85d5c3e49a173","6662009ae78f21dd82fcd179","666206c324de6e03c47137ca","null","","null","","","","","","","","./tasks/HMM-beads/Images/WhiteBeadChoice.png","","","","","","","","","",""
"image-keyboard-response","342","431016","0.0-3.0-6.0-1.0-2.68","6441a242a7d85d5c3e49a173","6662009ae78f21dd82fcd179","666206c324de6e03c47137ca","null","","null","","","","","","","","./tasks/HMM-beads/Images/WhiteBeadChoiceCorrect.png","","","","","","","","","",""
"image-keyboard-response","343","431137","0.0-3.0-6.0-1.0-0.69","6441a242a7d85d5c3e49a173","6662009ae78f21dd82fcd179","666206c324de6e03c47137ca","120","","j","","","","","","","","./tasks/HMM-beads/Images/NewTrialWC.png","lowH","1","69","0","1","1","1","true","",""
"image-keyboard-response","344","431453","0.0-3.0-6.0-1.0-1.69","6441a242a7d85d5c3e49a173","6662009ae78f21dd82fcd179","666206c324de6e03c47137ca","null","","null","","","","","","","","./tasks/HMM-beads/Images/WhiteBeadChoice.png","","","","","","","","","",""
"image-keyboard-response","345","431965","0.0-3.0-6.0-1.0-2.69","6441a242a7d85d5c3e49a173","6662009ae78f21dd82fcd179","666206c324de6e03c47137ca","null","","null","","","","","","","","./tasks/HMM-beads/Images/WhiteBeadChoiceCorrect.png","","","","","","","","","",""
"image-keyboard-response","346","432000","0.0-3.0-6.0-1.0-0.70","6441a242a7d85d5c3e49a173","6662009ae78f21dd82fcd179","666206c324de6e03c47137ca","34","","j","","","","","","","","./tasks/HMM-beads/Images/NewTrialWC.png","lowH","1","70","0","1","1","1","true","",""
"image-keyboard-response","347","432308","0.0-3.0-6.0-1.0-1.70","6441a242a7d85d5c3e49a173","6662009ae78f21dd82fcd179","666206c324de6e03c47137ca","null","","null","","","","","","","","./tasks/HMM-beads/Images/WhiteBeadChoice.png","","","","","","","","","",""
"image-keyboard-response","348","432823","0.0-3.0-6.0-1.0-2.70","6441a242a7d85d5c3e49a173","6662009ae78f21dd82fcd179","666206c324de6e03c47137ca","null","","null","","","","","","","","./tasks/HMM-beads/Images/WhiteBeadChoiceCorrect.png","","","","","","","","","",""
"image-keyboard-response","349","432838","0.0-3.0-6.0-1.0-0.71","6441a242a7d85d5c3e49a173","6662009ae78f21dd82fcd179","666206c324de6e03c47137ca","15","","j","","","","","","","","./tasks/HMM-beads/Images/NewTrialWC.png","lowH","1","71","0","0","1","1","false","",""
"image-keyboard-response","350","433153","0.0-3.0-6.0-1.0-1.71","6441a242a7d85d5c3e49a173","6662009ae78f21dd82fcd179","666206c324de6e03c47137ca","null","","null","","","","","","","","./tasks/HMM-beads/Images/WhiteBeadChoice.png","","","","","","","","","",""
"image-keyboard-response","351","433666","0.0-3.0-6.0-1.0-2.71","6441a242a7d85d5c3e49a173","6662009ae78f21dd82fcd179","666206c324de6e03c47137ca","null","","null","","","","","","","","./tasks/HMM-beads/Images/WhiteBeadChoiceWrong.png","","","","","","","","","",""
"image-keyboard-response","352","434175","0.0-3.0-6.0-1.0-0.72","6441a242a7d85d5c3e49a173","6662009ae78f21dd82fcd179","666206c324de6e03c47137ca","509","","j","","","","","","","","./tasks/HMM-beads/Images/NewTrialBC.png","lowH","1","72","0","0","0","1","false","",""
"image-keyboard-response","353","434489","0.0-3.0-6.0-1.0-1.72","6441a242a7d85d5c3e49a173","6662009ae78f21dd82fcd179","666206c324de6e03c47137ca","null","","null","","","","","","","","./tasks/HMM-beads/Images/WhiteBeadChoice.png","","","","","","","","","",""
"image-keyboard-response","354","435003","0.0-3.0-6.0-1.0-2.72","6441a242a7d85d5c3e49a173","6662009ae78f21dd82fcd179","666206c324de6e03c47137ca","null","","null","","","","","","","","./tasks/HMM-beads/Images/WhiteBeadChoiceWrong.png","","","","","","","","","",""
"image-keyboard-response","355","435007","0.0-3.0-6.0-1.0-0.73","6441a242a7d85d5c3e49a173","6662009ae78f21dd82fcd179","666206c324de6e03c47137ca","4","","j","","","","","","","","./tasks/HMM-beads/Images/NewTrialBC.png","lowH","1","73","0","1","0","1","true","",""
"image-keyboard-response","356","435312","0.0-3.0-6.0-1.0-1.73","6441a242a7d85d5c3e49a173","6662009ae78f21dd82fcd179","666206c324de6e03c47137ca","null","","null","","","","","","","","./tasks/HMM-beads/Images/WhiteBeadChoice.png","","","","","","","","","",""
"image-keyboard-response","357","435824","0.0-3.0-6.0-1.0-2.73","6441a242a7d85d5c3e49a173","6662009ae78f21dd82fcd179","666206c324de6e03c47137ca","null","","null","","","","","","","","./tasks/HMM-beads/Images/WhiteBeadChoiceCorrect.png","","","","","","","","","",""
"image-keyboard-response","358","435948","0.0-3.0-6.0-1.0-0.74","6441a242a7d85d5c3e49a173","6662009ae78f21dd82fcd179","666206c324de6e03c47137ca","124","","j","","","","","","","","./tasks/HMM-beads/Images/NewTrialWC.png","lowH","1","74","0","0","1","1","false","",""
"image-keyboard-response","359","436263","0.0-3.0-6.0-1.0-1.74","6441a242a7d85d5c3e49a173","6662009ae78f21dd82fcd179","666206c324de6e03c47137ca","null","","null","","","","","","","","./tasks/HMM-beads/Images/WhiteBeadChoice.png","","","","","","","","","",""
"image-keyboard-response","360","436771","0.0-3.0-6.0-1.0-2.74","6441a242a7d85d5c3e49a173","6662009ae78f21dd82fcd179","666206c324de6e03c47137ca","null","","null","","","","","","","","./tasks/HMM-beads/Images/WhiteBeadChoiceWrong.png","","","","","","","","","",""
"image-keyboard-response","361","436804","0.0-3.0-6.0-1.0-0.75","6441a242a7d85d5c3e49a173","6662009ae78f21dd82fcd179","666206c324de6e03c47137ca","33","","j","","","","","","","","./tasks/HMM-beads/Images/NewTrialBC.png","lowH","1","75","0","1","0","1","true","",""
"image-keyboard-response","362","437113","0.0-3.0-6.0-1.0-1.75","6441a242a7d85d5c3e49a173","6662009ae78f21dd82fcd179","666206c324de6e03c47137ca","null","","null","","","","","","","","./tasks/HMM-beads/Images/WhiteBeadChoice.png","","","","","","","","","",""
"image-keyboard-response","363","437628","0.0-3.0-6.0-1.0-2.75","6441a242a7d85d5c3e49a173","6662009ae78f21dd82fcd179","666206c324de6e03c47137ca","null","","null","","","","","","","","./tasks/HMM-beads/Images/WhiteBeadChoiceCorrect.png","","","","","","","","","",""
"image-keyboard-response","364","438126","0.0-3.0-6.0-1.0-0.76","6441a242a7d85d5c3e49a173","6662009ae78f21dd82fcd179","666206c324de6e03c47137ca","498","","j","","","","","","","","./tasks/HMM-beads/Images/NewTrialWC.png","lowH","1","76","0","1","1","1","true","",""
"image-keyboard-response","365","438439","0.0-3.0-6.0-1.0-1.76","6441a242a7d85d5c3e49a173","6662009ae78f21dd82fcd179","666206c324de6e03c47137ca","null","","null","","","","","","","","./tasks/HMM-beads/Images/WhiteBeadChoice.png","","","","","","","","","",""
"image-keyboard-response","366","438953","0.0-3.0-6.0-1.0-2.76","6441a242a7d85d5c3e49a173","6662009ae78f21dd82fcd179","666206c324de6e03c47137ca","null","","null","","","","","","","","./tasks/HMM-beads/Images/WhiteBeadChoiceCorrect.png","","","","","","","","","",""
"image-keyboard-response","367","438966","0.0-3.0-6.0-1.0-0.77","6441a242a7d85d5c3e49a173","6662009ae78f21dd82fcd179","666206c324de6e03c47137ca","13","","j","","","","","","","","./tasks/HMM-beads/Images/NewTrialWC.png","lowH","1","77","0","0","1","1","false","",""
"image-keyboard-response","368","439281","0.0-3.0-6.0-1.0-1.77","6441a242a7d85d5c3e49a173","6662009ae78f21dd82fcd179","666206c324de6e03c47137ca","null","","null","","","","","","","","./tasks/HMM-beads/Images/WhiteBeadChoice.png","","","","","","","","","",""
"image-keyboard-response","369","439794","0.0-3.0-6.0-1.0-2.77","6441a242a7d85d5c3e49a173","6662009ae78f21dd82fcd179","666206c324de6e03c47137ca","null","","null","","","","","","","","./tasks/HMM-beads/Images/WhiteBeadChoiceWrong.png","","","","","","","","","",""
"image-keyboard-response","370","439842","0.0-3.0-6.0-1.0-0.78","6441a242a7d85d5c3e49a173","6662009ae78f21dd82fcd179","666206c324de6e03c47137ca","48","","j","","","","","","","","./tasks/HMM-beads/Images/NewTrialBC.png","lowH","1","78","0","0","0","1","false","",""
"image-keyboard-response","371","440152","0.0-3.0-6.0-1.0-1.78","6441a242a7d85d5c3e49a173","6662009ae78f21dd82fcd179","666206c324de6e03c47137ca","null","","null","","","","","","","","./tasks/HMM-beads/Images/WhiteBeadChoice.png","","","","","","","","","",""
"image-keyboard-response","372","440667","0.0-3.0-6.0-1.0-2.78","6441a242a7d85d5c3e49a173","6662009ae78f21dd82fcd179","666206c324de6e03c47137ca","null","","null","","","","","","","","./tasks/HMM-beads/Images/WhiteBeadChoiceWrong.png","","","","","","","","","",""
"image-keyboard-response","373","441241","0.0-3.0-6.0-1.0-0.79","6441a242a7d85d5c3e49a173","6662009ae78f21dd82fcd179","666206c324de6e03c47137ca","573","","j","","","","","","","","./tasks/HMM-beads/Images/NewTrialBC.png","lowH","1","79","0","0","0","1","false","",""
"image-keyboard-response","374","441553","0.0-3.0-6.0-1.0-1.79","6441a242a7d85d5c3e49a173","6662009ae78f21dd82fcd179","666206c324de6e03c47137ca","null","","null","","","","","","","","./tasks/HMM-beads/Images/WhiteBeadChoice.png","","","","","","","","","",""
