"trial_type","trial_index","time_elapsed","internal_node_id","subject_id","study_id","session_id","rt","url","response","question_order","view_history","success","timeout","failed_images","failed_audio","failed_video","stimulus","block","block_rep","trial_number","jar","bead","previous_bead","choice","correct","lowH_score","total_bonus"
"pavlovia","0","1456","0.0-0.0","663f728e1e100a73c8b4bac0","6662009ae78f21dd82fcd179","666209ad0eda9a70e4593856","","","","","","","","","","","","","","","","","","","","",""
"external-html","1","33419","0.0-1.0-0.0","663f728e1e100a73c8b4bac0","6662009ae78f21dd82fcd179","666209ad0eda9a70e4593856","31813","new_consent.html","","","","","","","","","","","","","","","","","","",""
"survey-multi-choice","2","37667","0.0-1.0-1.0","663f728e1e100a73c8b4bac0","6662009ae78f21dd82fcd179","666209ad0eda9a70e4593856","4244","","{""Q0"":""Male"",""Q1"":""White""}","[0,1]","","","","","","","","","","","","","","","","",""
"survey-text","3","41518","0.0-1.0-2.0","663f728e1e100a73c8b4bac0","6662009ae78f21dd82fcd179","666209ad0eda9a70e4593856","3844","","{""Q0"":""36""}","","","","","","","","","","","","","","","","","",""
"instructions","4","46355","0.0-2.0","663f728e1e100a73c8b4bac0","6662009ae78f21dd82fcd179","666209ad0eda9a70e4593856","4734","","","","[{""page_index"":0,""viewing_time"":4733}]","","","","","","","","","","","","","","","",""
"preload","5","47541","0.0-3.0-0.0","663f728e1e100a73c8b4bac0","6662009ae78f21dd82fcd179","666209ad0eda9a70e4593856","","","","","","true","false","[]","[]","[]","","","","","","","","","","",""
"instructions","6","181055","0.0-3.0-1.0","663f728e1e100a73c8b4bac0","6662009ae78f21dd82fcd179","666209ad0eda9a70e4593856","133513","","","","[{""page_index"":0,""viewing_time"":20451},{""page_index"":1,""viewing_time"":9036},{""page_index"":2,""viewing_time"":4914},{""page_index"":3,""viewing_time"":4517},{""page_index"":4,""viewing_time"":11896},{""page_index"":5,""viewing_time"":28403},{""page_index"":6,""viewing_time"":10794},{""page_index"":7,""viewing_time"":11955},{""page_index"":8,""viewing_time"":8874},{""page_index"":9,""viewing_time"":5608},{""page_index"":10,""viewing_time"":13507},{""page_index"":11,""viewing_time"":3559}]","","","","","","","","","","","","","","","",""
"html-button-response","7","186935","0.0-3.0-2.0-0.0-0.0","663f728e1e100a73c8b4bac0","6662009ae78f21dd82fcd179","666209ad0eda9a70e4593856","5879","","1","","","","","","","","<div align=center>Your goal is to predict…?<br><br></div>","","","","","","","","","",""
"html-button-response","8","193793","0.0-3.0-2.0-1.0-0.0","663f728e1e100a73c8b4bac0","6662009ae78f21dd82fcd179","666209ad0eda9a70e4593856","5280","","2","","","","","","","","<div align=center>In the jar with mostly white beads, there are ___% white beads and ___% black beads?<br><br></div>","","","","","","","","","",""
"html-button-response","9","202663","0.0-3.0-2.0-2.0-0.0","663f728e1e100a73c8b4bac0","6662009ae78f21dd82fcd179","666209ad0eda9a70e4593856","7628","","0","","","","","","","","<div align=center>When there is a 1% probability that the jars will switch, the next bead will most likely be drawn from the…<br><br></div>","","","","","","","","","",""
"html-button-response","10","208697","0.0-3.0-2.0-3.0-0.0","663f728e1e100a73c8b4bac0","6662009ae78f21dd82fcd179","666209ad0eda9a70e4593856","4857","","1","","","","","","","","<div align=center>When there is a 99% probability that the jars will switch, the next bead will most likely be drawn from the…<br><br></div>","","","","","","","","","",""
"instructions","11","223152","0.0-3.0-3.0","663f728e1e100a73c8b4bac0","6662009ae78f21dd82fcd179","666209ad0eda9a70e4593856","13317","","","","[{""page_index"":0,""viewing_time"":13317}]","","","","","","","","","","","","","","","",""
"html-keyboard-response","12","229627","0.0-3.0-4.0-0.0","663f728e1e100a73c8b4bac0","6662009ae78f21dd82fcd179","666209ad0eda9a70e4593856","6473",""," ","","","","","","","","<div align=center>In this practice block, there will be a <b>1% chance</b> that the jar on the next trial will be different from the jar on the current trial.<br><br></div>","","","","","","","","","",""
"image-keyboard-response","13","235837","0.0-3.0-4.0-1.0-0.0","663f728e1e100a73c8b4bac0","6662009ae78f21dd82fcd179","666209ad0eda9a70e4593856","6206","","f","","","","","","","","./tasks/HMM-beads/Images/NoChoice.png","practice","0","0","0","0","9","0","true","",""
"image-keyboard-response","14","236142","0.0-3.0-4.0-1.0-1.0","663f728e1e100a73c8b4bac0","6662009ae78f21dd82fcd179","666209ad0eda9a70e4593856","null","","null","","","","","","","","./tasks/HMM-beads/Images/BlackBeadChoice.png","","","","","","","","","",""
"image-keyboard-response","15","236645","0.0-3.0-4.0-1.0-2.0","663f728e1e100a73c8b4bac0","6662009ae78f21dd82fcd179","666209ad0eda9a70e4593856","null","","null","","","","","","","","./tasks/HMM-beads/Images/BlackBeadChoiceCorrect.png","","","","","","","","","",""
"image-keyboard-response","16","239794","0.0-3.0-4.0-1.0-0.1","663f728e1e100a73c8b4bac0","6662009ae78f21dd82fcd179","666209ad0eda9a70e4593856","3147","","f","","","","","","","","./tasks/HMM-beads/Images/NewTrialBC.png","practice","0","1","0","0","0","0","true","",""
"image-keyboard-response","17","240097","0.0-3.0-4.0-1.0-1.1","663f728e1e100a73c8b4bac0","6662009ae78f21dd82fcd179","666209ad0eda9a70e4593856","null","","null","","","","","","","","./tasks/HMM-beads/Images/BlackBeadChoice.png","","","","","","","","","",""
"image-keyboard-response","18","240600","0.0-3.0-4.0-1.0-2.1","663f728e1e100a73c8b4bac0","6662009ae78f21dd82fcd179","666209ad0eda9a70e4593856","null","","null","","","","","","","","./tasks/HMM-beads/Images/BlackBeadChoiceCorrect.png","","","","","","","","","",""
"image-keyboard-response","19","242527","0.0-3.0-4.0-1.0-0.2","663f728e1e100a73c8b4bac0","6662009ae78f21dd82fcd179","666209ad0eda9a70e4593856","1926","","f","","","","","","","","./tasks/HMM-beads/Images/NewTrialBC.png","practice","0","2","0","1","0","0","false","",""
"image-keyboard-response","20","242831","0.0-3.0-4.0-1.0-1.2","663f728e1e100a73c8b4bac0","6662009ae78f21dd82fcd179","666209ad0eda9a70e4593856","null","","null","","","","","","","","./tasks/HMM-beads/Images/BlackBeadChoice.png","","","","","","","","","",""
"image-keyboard-response","21","243335","0.0-3.0-4.0-1.0-2.2","663f728e1e100a73c8b4bac0","6662009ae78f21dd82fcd179","666209ad0eda9a70e4593856","null","","null","","","","","","","","./tasks/HMM-beads/Images/BlackBeadChoiceWrong.png","","","","","","","","","",""
"image-keyboard-response","22","246937","0.0-3.0-4.0-1.0-0.3","663f728e1e100a73c8b4bac0","6662009ae78f21dd82fcd179","666209ad0eda9a70e4593856","3600","","f","","","","","","","","./tasks/HMM-beads/Images/NewTrialWC.png","practice","0","3","0","0","1","0","true","",""
"image-keyboard-response","23","247241","0.0-3.0-4.0-1.0-1.3","663f728e1e100a73c8b4bac0","6662009ae78f21dd82fcd179","666209ad0eda9a70e4593856","null","","null","","","","","","","","./tasks/HMM-beads/Images/BlackBeadChoice.png","","","","","","","","","",""
"image-keyboard-response","24","247744","0.0-3.0-4.0-1.0-2.3","663f728e1e100a73c8b4bac0","6662009ae78f21dd82fcd179","666209ad0eda9a70e4593856","null","","null","","","","","","","","./tasks/HMM-beads/Images/BlackBeadChoiceCorrect.png","","","","","","","","","",""
"image-keyboard-response","25","249652","0.0-3.0-4.0-1.0-0.4","663f728e1e100a73c8b4bac0","6662009ae78f21dd82fcd179","666209ad0eda9a70e4593856","1906","","f","","","","","","","","./tasks/HMM-beads/Images/NewTrialBC.png","practice","0","4","0","0","0","0","true","",""
"image-keyboard-response","26","249956","0.0-3.0-4.0-1.0-1.4","663f728e1e100a73c8b4bac0","6662009ae78f21dd82fcd179","666209ad0eda9a70e4593856","null","","null","","","","","","","","./tasks/HMM-beads/Images/BlackBeadChoice.png","","","","","","","","","",""
"image-keyboard-response","27","250460","0.0-3.0-4.0-1.0-2.4","663f728e1e100a73c8b4bac0","6662009ae78f21dd82fcd179","666209ad0eda9a70e4593856","null","","null","","","","","","","","./tasks/HMM-beads/Images/BlackBeadChoiceCorrect.png","","","","","","","","","",""
"image-keyboard-response","28","252277","0.0-3.0-4.0-1.0-0.5","663f728e1e100a73c8b4bac0","6662009ae78f21dd82fcd179","666209ad0eda9a70e4593856","1815","","f","","","","","","","","./tasks/HMM-beads/Images/NewTrialBC.png","practice","0","5","0","1","0","0","false","",""
"image-keyboard-response","29","252581","0.0-3.0-4.0-1.0-1.5","663f728e1e100a73c8b4bac0","6662009ae78f21dd82fcd179","666209ad0eda9a70e4593856","null","","null","","","","","","","","./tasks/HMM-beads/Images/BlackBeadChoice.png","","","","","","","","","",""
"image-keyboard-response","30","253084","0.0-3.0-4.0-1.0-2.5","663f728e1e100a73c8b4bac0","6662009ae78f21dd82fcd179","666209ad0eda9a70e4593856","null","","null","","","","","","","","./tasks/HMM-beads/Images/BlackBeadChoiceWrong.png","","","","","","","","","",""
"image-keyboard-response","31","253957","0.0-3.0-4.0-1.0-0.6","663f728e1e100a73c8b4bac0","6662009ae78f21dd82fcd179","666209ad0eda9a70e4593856","870","","f","","","","","","","","./tasks/HMM-beads/Images/NewTrialWC.png","practice","0","6","0","0","1","0","true","",""
"image-keyboard-response","32","254260","0.0-3.0-4.0-1.0-1.6","663f728e1e100a73c8b4bac0","6662009ae78f21dd82fcd179","666209ad0eda9a70e4593856","null","","null","","","","","","","","./tasks/HMM-beads/Images/BlackBeadChoice.png","","","","","","","","","",""
"image-keyboard-response","33","254764","0.0-3.0-4.0-1.0-2.6","663f728e1e100a73c8b4bac0","6662009ae78f21dd82fcd179","666209ad0eda9a70e4593856","null","","null","","","","","","","","./tasks/HMM-beads/Images/BlackBeadChoiceCorrect.png","","","","","","","","","",""
"image-keyboard-response","34","255696","0.0-3.0-4.0-1.0-0.7","663f728e1e100a73c8b4bac0","6662009ae78f21dd82fcd179","666209ad0eda9a70e4593856","931","","f","","","","","","","","./tasks/HMM-beads/Images/NewTrialBC.png","practice","0","7","0","0","0","0","true","",""
"image-keyboard-response","35","255999","0.0-3.0-4.0-1.0-1.7","663f728e1e100a73c8b4bac0","6662009ae78f21dd82fcd179","666209ad0eda9a70e4593856","null","","null","","","","","","","","./tasks/HMM-beads/Images/BlackBeadChoice.png","","","","","","","","","",""
"image-keyboard-response","36","256503","0.0-3.0-4.0-1.0-2.7","663f728e1e100a73c8b4bac0","6662009ae78f21dd82fcd179","666209ad0eda9a70e4593856","null","","null","","","","","","","","./tasks/HMM-beads/Images/BlackBeadChoiceCorrect.png","","","","","","","","","",""
"image-keyboard-response","37","257107","0.0-3.0-4.0-1.0-0.8","663f728e1e100a73c8b4bac0","6662009ae78f21dd82fcd179","666209ad0eda9a70e4593856","602","","f","","","","","","","","./tasks/HMM-beads/Images/NewTrialBC.png","practice","0","8","0","0","0","0","true","",""
"image-keyboard-response","38","257410","0.0-3.0-4.0-1.0-1.8","663f728e1e100a73c8b4bac0","6662009ae78f21dd82fcd179","666209ad0eda9a70e4593856","null","","null","","","","","","","","./tasks/HMM-beads/Images/BlackBeadChoice.png","","","","","","","","","",""
"image-keyboard-response","39","257914","0.0-3.0-4.0-1.0-2.8","663f728e1e100a73c8b4bac0","6662009ae78f21dd82fcd179","666209ad0eda9a70e4593856","null","","null","","","","","","","","./tasks/HMM-beads/Images/BlackBeadChoiceCorrect.png","","","","","","","","","",""
"image-keyboard-response","40","258337","0.0-3.0-4.0-1.0-0.9","663f728e1e100a73c8b4bac0","6662009ae78f21dd82fcd179","666209ad0eda9a70e4593856","421","","f","","","","","","","","./tasks/HMM-beads/Images/NewTrialBC.png","practice","0","9","0","1","0","0","false","",""
"image-keyboard-response","41","258640","0.0-3.0-4.0-1.0-1.9","663f728e1e100a73c8b4bac0","6662009ae78f21dd82fcd179","666209ad0eda9a70e4593856","null","","null","","","","","","","","./tasks/HMM-beads/Images/BlackBeadChoice.png","","","","","","","","","",""
"image-keyboard-response","42","259143","0.0-3.0-4.0-1.0-2.9","663f728e1e100a73c8b4bac0","6662009ae78f21dd82fcd179","666209ad0eda9a70e4593856","null","","null","","","","","","","","./tasks/HMM-beads/Images/BlackBeadChoiceWrong.png","","","","","","","","","",""
"image-keyboard-response","43","259688","0.0-3.0-4.0-1.0-0.10","663f728e1e100a73c8b4bac0","6662009ae78f21dd82fcd179","666209ad0eda9a70e4593856","543","","f","","","","","","","","./tasks/HMM-beads/Images/NewTrialWC.png","practice","0","10","0","0","1","0","true","",""
"image-keyboard-response","44","259991","0.0-3.0-4.0-1.0-1.10","663f728e1e100a73c8b4bac0","6662009ae78f21dd82fcd179","666209ad0eda9a70e4593856","null","","null","","","","","","","","./tasks/HMM-beads/Images/BlackBeadChoice.png","","","","","","","","","",""
"image-keyboard-response","45","260494","0.0-3.0-4.0-1.0-2.10","663f728e1e100a73c8b4bac0","6662009ae78f21dd82fcd179","666209ad0eda9a70e4593856","null","","null","","","","","","","","./tasks/HMM-beads/Images/BlackBeadChoiceCorrect.png","","","","","","","","","",""
"image-keyboard-response","46","260947","0.0-3.0-4.0-1.0-0.11","663f728e1e100a73c8b4bac0","6662009ae78f21dd82fcd179","666209ad0eda9a70e4593856","452","","f","","","","","","","","./tasks/HMM-beads/Images/NewTrialBC.png","practice","0","11","0","1","0","0","false","",""
"image-keyboard-response","47","261250","0.0-3.0-4.0-1.0-1.11","663f728e1e100a73c8b4bac0","6662009ae78f21dd82fcd179","666209ad0eda9a70e4593856","null","","null","","","","","","","","./tasks/HMM-beads/Images/BlackBeadChoice.png","","","","","","","","","",""
"image-keyboard-response","48","261753","0.0-3.0-4.0-1.0-2.11","663f728e1e100a73c8b4bac0","6662009ae78f21dd82fcd179","666209ad0eda9a70e4593856","null","","null","","","","","","","","./tasks/HMM-beads/Images/BlackBeadChoiceWrong.png","","","","","","","","","",""
"image-keyboard-response","49","262928","0.0-3.0-4.0-1.0-0.12","663f728e1e100a73c8b4bac0","6662009ae78f21dd82fcd179","666209ad0eda9a70e4593856","1173","","f","","","","","","","","./tasks/HMM-beads/Images/NewTrialWC.png","practice","0","12","0","0","1","0","true","",""
"image-keyboard-response","50","263239","0.0-3.0-4.0-1.0-1.12","663f728e1e100a73c8b4bac0","6662009ae78f21dd82fcd179","666209ad0eda9a70e4593856","null","","null","","","","","","","","./tasks/HMM-beads/Images/BlackBeadChoice.png","","","","","","","","","",""
"image-keyboard-response","51","263743","0.0-3.0-4.0-1.0-2.12","663f728e1e100a73c8b4bac0","6662009ae78f21dd82fcd179","666209ad0eda9a70e4593856","null","","null","","","","","","","","./tasks/HMM-beads/Images/BlackBeadChoiceCorrect.png","","","","","","","","","",""
"image-keyboard-response","52","264292","0.0-3.0-4.0-1.0-0.13","663f728e1e100a73c8b4bac0","6662009ae78f21dd82fcd179","666209ad0eda9a70e4593856","549","","f","","","","","","","","./tasks/HMM-beads/Images/NewTrialBC.png","practice","0","13","0","0","0","0","true","",""
"image-keyboard-response","53","264595","0.0-3.0-4.0-1.0-1.13","663f728e1e100a73c8b4bac0","6662009ae78f21dd82fcd179","666209ad0eda9a70e4593856","null","","null","","","","","","","","./tasks/HMM-beads/Images/BlackBeadChoice.png","","","","","","","","","",""
"image-keyboard-response","54","265098","0.0-3.0-4.0-1.0-2.13","663f728e1e100a73c8b4bac0","6662009ae78f21dd82fcd179","666209ad0eda9a70e4593856","null","","null","","","","","","","","./tasks/HMM-beads/Images/BlackBeadChoiceCorrect.png","","","","","","","","","",""
"image-keyboard-response","55","265525","0.0-3.0-4.0-1.0-0.14","663f728e1e100a73c8b4bac0","6662009ae78f21dd82fcd179","666209ad0eda9a70e4593856","425","","f","","","","","","","","./tasks/HMM-beads/Images/NewTrialBC.png","practice","0","14","0","0","0","0","true","",""
"image-keyboard-response","56","265827","0.0-3.0-4.0-1.0-1.14","663f728e1e100a73c8b4bac0","6662009ae78f21dd82fcd179","666209ad0eda9a70e4593856","null","","null","","","","","","","","./tasks/HMM-beads/Images/BlackBeadChoice.png","","","","","","","","","",""
"image-keyboard-response","57","266329","0.0-3.0-4.0-1.0-2.14","663f728e1e100a73c8b4bac0","6662009ae78f21dd82fcd179","666209ad0eda9a70e4593856","null","","null","","","","","","","","./tasks/HMM-beads/Images/BlackBeadChoiceCorrect.png","","","","","","","","","",""
"image-keyboard-response","58","266692","0.0-3.0-4.0-1.0-0.15","663f728e1e100a73c8b4bac0","6662009ae78f21dd82fcd179","666209ad0eda9a70e4593856","362","","f","","","","","","","","./tasks/HMM-beads/Images/NewTrialBC.png","practice","0","15","0","0","0","0","true","",""
"image-keyboard-response","59","266995","0.0-3.0-4.0-1.0-1.15","663f728e1e100a73c8b4bac0","6662009ae78f21dd82fcd179","666209ad0eda9a70e4593856","null","","null","","","","","","","","./tasks/HMM-beads/Images/BlackBeadChoice.png","","","","","","","","","",""
"image-keyboard-response","60","267499","0.0-3.0-4.0-1.0-2.15","663f728e1e100a73c8b4bac0","6662009ae78f21dd82fcd179","666209ad0eda9a70e4593856","null","","null","","","","","","","","./tasks/HMM-beads/Images/BlackBeadChoiceCorrect.png","","","","","","","","","",""
"image-keyboard-response","61","267788","0.0-3.0-4.0-1.0-0.16","663f728e1e100a73c8b4bac0","6662009ae78f21dd82fcd179","666209ad0eda9a70e4593856","287","","f","","","","","","","","./tasks/HMM-beads/Images/NewTrialBC.png","practice","0","16","0","0","0","0","true","",""
"image-keyboard-response","62","268091","0.0-3.0-4.0-1.0-1.16","663f728e1e100a73c8b4bac0","6662009ae78f21dd82fcd179","666209ad0eda9a70e4593856","null","","null","","","","","","","","./tasks/HMM-beads/Images/BlackBeadChoice.png","","","","","","","","","",""
"image-keyboard-response","63","268594","0.0-3.0-4.0-1.0-2.16","663f728e1e100a73c8b4bac0","6662009ae78f21dd82fcd179","666209ad0eda9a70e4593856","null","","null","","","","","","","","./tasks/HMM-beads/Images/BlackBeadChoiceCorrect.png","","","","","","","","","",""
"image-keyboard-response","64","268986","0.0-3.0-4.0-1.0-0.17","663f728e1e100a73c8b4bac0","6662009ae78f21dd82fcd179","666209ad0eda9a70e4593856","389","","f","","","","","","","","./tasks/HMM-beads/Images/NewTrialBC.png","practice","0","17","0","0","0","0","true","",""
"image-keyboard-response","65","269289","0.0-3.0-4.0-1.0-1.17","663f728e1e100a73c8b4bac0","6662009ae78f21dd82fcd179","666209ad0eda9a70e4593856","null","","null","","","","","","","","./tasks/HMM-beads/Images/BlackBeadChoice.png","","","","","","","","","",""
"image-keyboard-response","66","269792","0.0-3.0-4.0-1.0-2.17","663f728e1e100a73c8b4bac0","6662009ae78f21dd82fcd179","666209ad0eda9a70e4593856","null","","null","","","","","","","","./tasks/HMM-beads/Images/BlackBeadChoiceCorrect.png","","","","","","","","","",""
"image-keyboard-response","67","270023","0.0-3.0-4.0-1.0-0.18","663f728e1e100a73c8b4bac0","6662009ae78f21dd82fcd179","666209ad0eda9a70e4593856","229","","f","","","","","","","","./tasks/HMM-beads/Images/NewTrialBC.png","practice","0","18","0","1","0","0","false","",""
"image-keyboard-response","68","270326","0.0-3.0-4.0-1.0-1.18","663f728e1e100a73c8b4bac0","6662009ae78f21dd82fcd179","666209ad0eda9a70e4593856","null","","null","","","","","","","","./tasks/HMM-beads/Images/BlackBeadChoice.png","","","","","","","","","",""
"image-keyboard-response","69","270829","0.0-3.0-4.0-1.0-2.18","663f728e1e100a73c8b4bac0","6662009ae78f21dd82fcd179","666209ad0eda9a70e4593856","null","","null","","","","","","","","./tasks/HMM-beads/Images/BlackBeadChoiceWrong.png","","","","","","","","","",""
"image-keyboard-response","70","271194","0.0-3.0-4.0-1.0-0.19","663f728e1e100a73c8b4bac0","6662009ae78f21dd82fcd179","666209ad0eda9a70e4593856","363","","f","","","","","","","","./tasks/HMM-beads/Images/NewTrialWC.png","practice","0","19","0","0","1","0","true","",""
"image-keyboard-response","71","271497","0.0-3.0-4.0-1.0-1.19","663f728e1e100a73c8b4bac0","6662009ae78f21dd82fcd179","666209ad0eda9a70e4593856","null","","null","","","","","","","","./tasks/HMM-beads/Images/BlackBeadChoice.png","","","","","","","","","",""
"image-keyboard-response","72","272001","0.0-3.0-4.0-1.0-2.19","663f728e1e100a73c8b4bac0","6662009ae78f21dd82fcd179","666209ad0eda9a70e4593856","null","","null","","","","","","","","./tasks/HMM-beads/Images/BlackBeadChoiceCorrect.png","","","","","","","","","",""
"image-keyboard-response","73","272528","0.0-3.0-4.0-1.0-0.20","663f728e1e100a73c8b4bac0","6662009ae78f21dd82fcd179","666209ad0eda9a70e4593856","526","","f","","","","","","","","./tasks/HMM-beads/Images/NewTrialBC.png","practice","0","20","0","0","0","0","true","",""
"image-keyboard-response","74","272831","0.0-3.0-4.0-1.0-1.20","663f728e1e100a73c8b4bac0","6662009ae78f21dd82fcd179","666209ad0eda9a70e4593856","null","","null","","","","","","","","./tasks/HMM-beads/Images/BlackBeadChoice.png","","","","","","","","","",""
"image-keyboard-response","75","273335","0.0-3.0-4.0-1.0-2.20","663f728e1e100a73c8b4bac0","6662009ae78f21dd82fcd179","666209ad0eda9a70e4593856","null","","null","","","","","","","","./tasks/HMM-beads/Images/BlackBeadChoiceCorrect.png","","","","","","","","","",""
"image-keyboard-response","76","273667","0.0-3.0-4.0-1.0-0.21","663f728e1e100a73c8b4bac0","6662009ae78f21dd82fcd179","666209ad0eda9a70e4593856","331","","f","","","","","","","","./tasks/HMM-beads/Images/NewTrialBC.png","practice","0","21","0","1","0","0","false","",""
"image-keyboard-response","77","273970","0.0-3.0-4.0-1.0-1.21","663f728e1e100a73c8b4bac0","6662009ae78f21dd82fcd179","666209ad0eda9a70e4593856","null","","null","","","","","","","","./tasks/HMM-beads/Images/BlackBeadChoice.png","","","","","","","","","",""
"image-keyboard-response","78","274474","0.0-3.0-4.0-1.0-2.21","663f728e1e100a73c8b4bac0","6662009ae78f21dd82fcd179","666209ad0eda9a70e4593856","null","","null","","","","","","","","./tasks/HMM-beads/Images/BlackBeadChoiceWrong.png","","","","","","","","","",""
"image-keyboard-response","79","274898","0.0-3.0-4.0-1.0-0.22","663f728e1e100a73c8b4bac0","6662009ae78f21dd82fcd179","666209ad0eda9a70e4593856","422","","f","","","","","","","","./tasks/HMM-beads/Images/NewTrialWC.png","practice","0","22","1","1","1","0","false","",""
"image-keyboard-response","80","275201","0.0-3.0-4.0-1.0-1.22","663f728e1e100a73c8b4bac0","6662009ae78f21dd82fcd179","666209ad0eda9a70e4593856","null","","null","","","","","","","","./tasks/HMM-beads/Images/BlackBeadChoice.png","","","","","","","","","",""
"image-keyboard-response","81","275704","0.0-3.0-4.0-1.0-2.22","663f728e1e100a73c8b4bac0","6662009ae78f21dd82fcd179","666209ad0eda9a70e4593856","null","","null","","","","","","","","./tasks/HMM-beads/Images/BlackBeadChoiceWrong.png","","","","","","","","","",""
"image-keyboard-response","82","276786","0.0-3.0-4.0-1.0-0.23","663f728e1e100a73c8b4bac0","6662009ae78f21dd82fcd179","666209ad0eda9a70e4593856","1081","","j","","","","","","","","./tasks/HMM-beads/Images/NewTrialWC.png","practice","0","23","1","0","1","1","false","",""
"image-keyboard-response","83","277088","0.0-3.0-4.0-1.0-1.23","663f728e1e100a73c8b4bac0","6662009ae78f21dd82fcd179","666209ad0eda9a70e4593856","null","","null","","","","","","","","./tasks/HMM-beads/Images/WhiteBeadChoice.png","","","","","","","","","",""
"image-keyboard-response","84","277590","0.0-3.0-4.0-1.0-2.23","663f728e1e100a73c8b4bac0","6662009ae78f21dd82fcd179","666209ad0eda9a70e4593856","null","","null","","","","","","","","./tasks/HMM-beads/Images/WhiteBeadChoiceWrong.png","","","","","","","","","",""
"image-keyboard-response","85","279038","0.0-3.0-4.0-1.0-0.24","663f728e1e100a73c8b4bac0","6662009ae78f21dd82fcd179","666209ad0eda9a70e4593856","1446","","f","","","","","","","","./tasks/HMM-beads/Images/NewTrialBC.png","practice","0","24","1","1","0","0","false","",""
"image-keyboard-response","86","279341","0.0-3.0-4.0-1.0-1.24","663f728e1e100a73c8b4bac0","6662009ae78f21dd82fcd179","666209ad0eda9a70e4593856","null","","null","","","","","","","","./tasks/HMM-beads/Images/BlackBeadChoice.png","","","","","","","","","",""
"image-keyboard-response","87","279844","0.0-3.0-4.0-1.0-2.24","663f728e1e100a73c8b4bac0","6662009ae78f21dd82fcd179","666209ad0eda9a70e4593856","null","","null","","","","","","","","./tasks/HMM-beads/Images/BlackBeadChoiceWrong.png","","","","","","","","","",""
"image-keyboard-response","88","280149","0.0-3.0-4.0-1.0-0.25","663f728e1e100a73c8b4bac0","6662009ae78f21dd82fcd179","666209ad0eda9a70e4593856","303","","j","","","","","","","","./tasks/HMM-beads/Images/NewTrialWC.png","practice","0","25","1","1","1","1","true","",""
"image-keyboard-response","89","280452","0.0-3.0-4.0-1.0-1.25","663f728e1e100a73c8b4bac0","6662009ae78f21dd82fcd179","666209ad0eda9a70e4593856","null","","null","","","","","","","","./tasks/HMM-beads/Images/WhiteBeadChoice.png","","","","","","","","","",""
"image-keyboard-response","90","280956","0.0-3.0-4.0-1.0-2.25","663f728e1e100a73c8b4bac0","6662009ae78f21dd82fcd179","666209ad0eda9a70e4593856","null","","null","","","","","","","","./tasks/HMM-beads/Images/WhiteBeadChoiceCorrect.png","","","","","","","","","",""
"image-keyboard-response","91","281259","0.0-3.0-4.0-1.0-0.26","663f728e1e100a73c8b4bac0","6662009ae78f21dd82fcd179","666209ad0eda9a70e4593856","301","","j","","","","","","","","./tasks/HMM-beads/Images/NewTrialWC.png","practice","0","26","1","1","1","1","true","",""
"image-keyboard-response","92","281562","0.0-3.0-4.0-1.0-1.26","663f728e1e100a73c8b4bac0","6662009ae78f21dd82fcd179","666209ad0eda9a70e4593856","null","","null","","","","","","","","./tasks/HMM-beads/Images/WhiteBeadChoice.png","","","","","","","","","",""
"image-keyboard-response","93","282065","0.0-3.0-4.0-1.0-2.26","663f728e1e100a73c8b4bac0","6662009ae78f21dd82fcd179","666209ad0eda9a70e4593856","null","","null","","","","","","","","./tasks/HMM-beads/Images/WhiteBeadChoiceCorrect.png","","","","","","","","","",""
"image-keyboard-response","94","282399","0.0-3.0-4.0-1.0-0.27","663f728e1e100a73c8b4bac0","6662009ae78f21dd82fcd179","666209ad0eda9a70e4593856","332","","j","","","","","","","","./tasks/HMM-beads/Images/NewTrialWC.png","practice","0","27","1","1","1","1","true","",""
"image-keyboard-response","95","282702","0.0-3.0-4.0-1.0-1.27","663f728e1e100a73c8b4bac0","6662009ae78f21dd82fcd179","666209ad0eda9a70e4593856","null","","null","","","","","","","","./tasks/HMM-beads/Images/WhiteBeadChoice.png","","","","","","","","","",""
"image-keyboard-response","96","283206","0.0-3.0-4.0-1.0-2.27","663f728e1e100a73c8b4bac0","6662009ae78f21dd82fcd179","666209ad0eda9a70e4593856","null","","null","","","","","","","","./tasks/HMM-beads/Images/WhiteBeadChoiceCorrect.png","","","","","","","","","",""
"image-keyboard-response","97","283538","0.0-3.0-4.0-1.0-0.28","663f728e1e100a73c8b4bac0","6662009ae78f21dd82fcd179","666209ad0eda9a70e4593856","330","","j","","","","","","","","./tasks/HMM-beads/Images/NewTrialWC.png","practice","0","28","1","0","1","1","false","",""
"image-keyboard-response","98","283841","0.0-3.0-4.0-1.0-1.28","663f728e1e100a73c8b4bac0","6662009ae78f21dd82fcd179","666209ad0eda9a70e4593856","null","","null","","","","","","","","./tasks/HMM-beads/Images/WhiteBeadChoice.png","","","","","","","","","",""
"image-keyboard-response","99","284345","0.0-3.0-4.0-1.0-2.28","663f728e1e100a73c8b4bac0","6662009ae78f21dd82fcd179","666209ad0eda9a70e4593856","null","","null","","","","","","","","./tasks/HMM-beads/Images/WhiteBeadChoiceWrong.png","","","","","","","","","",""
"image-keyboard-response","100","284738","0.0-3.0-4.0-1.0-0.29","663f728e1e100a73c8b4bac0","6662009ae78f21dd82fcd179","666209ad0eda9a70e4593856","391","","j","","","","","","","","./tasks/HMM-beads/Images/NewTrialBC.png","practice","0","29","1","1","0","1","true","",""
"image-keyboard-response","101","285041","0.0-3.0-4.0-1.0-1.29","663f728e1e100a73c8b4bac0","6662009ae78f21dd82fcd179","666209ad0eda9a70e4593856","null","","null","","","","","","","","./tasks/HMM-beads/Images/WhiteBeadChoice.png","","","","","","","","","",""
"image-keyboard-response","102","285544","0.0-3.0-4.0-1.0-2.29","663f728e1e100a73c8b4bac0","6662009ae78f21dd82fcd179","666209ad0eda9a70e4593856","null","","null","","","","","","","","./tasks/HMM-beads/Images/WhiteBeadChoiceCorrect.png","","","","","","","","","",""
"image-keyboard-response","103","285909","0.0-3.0-4.0-1.0-0.30","663f728e1e100a73c8b4bac0","6662009ae78f21dd82fcd179","666209ad0eda9a70e4593856","363","","j","","","","","","","","./tasks/HMM-beads/Images/NewTrialWC.png","practice","0","30","1","0","1","1","false","",""
"image-keyboard-response","104","286212","0.0-3.0-4.0-1.0-1.30","663f728e1e100a73c8b4bac0","6662009ae78f21dd82fcd179","666209ad0eda9a70e4593856","null","","null","","","","","","","","./tasks/HMM-beads/Images/WhiteBeadChoice.png","","","","","","","","","",""
"image-keyboard-response","105","286715","0.0-3.0-4.0-1.0-2.30","663f728e1e100a73c8b4bac0","6662009ae78f21dd82fcd179","666209ad0eda9a70e4593856","null","","null","","","","","","","","./tasks/HMM-beads/Images/WhiteBeadChoiceWrong.png","","","","","","","","","",""
"image-keyboard-response","106","287408","0.0-3.0-4.0-1.0-0.31","663f728e1e100a73c8b4bac0","6662009ae78f21dd82fcd179","666209ad0eda9a70e4593856","692","","j","","","","","","","","./tasks/HMM-beads/Images/NewTrialBC.png","practice","0","31","1","1","0","1","true","",""
"image-keyboard-response","107","287712","0.0-3.0-4.0-1.0-1.31","663f728e1e100a73c8b4bac0","6662009ae78f21dd82fcd179","666209ad0eda9a70e4593856","null","","null","","","","","","","","./tasks/HMM-beads/Images/WhiteBeadChoice.png","","","","","","","","","",""
"image-keyboard-response","108","288215","0.0-3.0-4.0-1.0-2.31","663f728e1e100a73c8b4bac0","6662009ae78f21dd82fcd179","666209ad0eda9a70e4593856","null","","null","","","","","","","","./tasks/HMM-beads/Images/WhiteBeadChoiceCorrect.png","","","","","","","","","",""
"image-keyboard-response","109","288518","0.0-3.0-4.0-1.0-0.32","663f728e1e100a73c8b4bac0","6662009ae78f21dd82fcd179","666209ad0eda9a70e4593856","301","","j","","","","","","","","./tasks/HMM-beads/Images/NewTrialWC.png","practice","0","32","1","1","1","1","true","",""
"image-keyboard-response","110","288822","0.0-3.0-4.0-1.0-1.32","663f728e1e100a73c8b4bac0","6662009ae78f21dd82fcd179","666209ad0eda9a70e4593856","null","","null","","","","","","","","./tasks/HMM-beads/Images/WhiteBeadChoice.png","","","","","","","","","",""
"image-keyboard-response","111","289324","0.0-3.0-4.0-1.0-2.32","663f728e1e100a73c8b4bac0","6662009ae78f21dd82fcd179","666209ad0eda9a70e4593856","null","","null","","","","","","","","./tasks/HMM-beads/Images/WhiteBeadChoiceCorrect.png","","","","","","","","","",""
"image-keyboard-response","112","289660","0.0-3.0-4.0-1.0-0.33","663f728e1e100a73c8b4bac0","6662009ae78f21dd82fcd179","666209ad0eda9a70e4593856","334","","j","","","","","","","","./tasks/HMM-beads/Images/NewTrialWC.png","practice","0","33","1","1","1","1","true","",""
"image-keyboard-response","113","289962","0.0-3.0-4.0-1.0-1.33","663f728e1e100a73c8b4bac0","6662009ae78f21dd82fcd179","666209ad0eda9a70e4593856","null","","null","","","","","","","","./tasks/HMM-beads/Images/WhiteBeadChoice.png","","","","","","","","","",""
"image-keyboard-response","114","290466","0.0-3.0-4.0-1.0-2.33","663f728e1e100a73c8b4bac0","6662009ae78f21dd82fcd179","666209ad0eda9a70e4593856","null","","null","","","","","","","","./tasks/HMM-beads/Images/WhiteBeadChoiceCorrect.png","","","","","","","","","",""
"image-keyboard-response","115","290828","0.0-3.0-4.0-1.0-0.34","663f728e1e100a73c8b4bac0","6662009ae78f21dd82fcd179","666209ad0eda9a70e4593856","360","","j","","","","","","","","./tasks/HMM-beads/Images/NewTrialWC.png","practice","0","34","1","1","1","1","true","",""
"image-keyboard-response","116","291131","0.0-3.0-4.0-1.0-1.34","663f728e1e100a73c8b4bac0","6662009ae78f21dd82fcd179","666209ad0eda9a70e4593856","null","","null","","","","","","","","./tasks/HMM-beads/Images/WhiteBeadChoice.png","","","","","","","","","",""
"image-keyboard-response","117","291636","0.0-3.0-4.0-1.0-2.34","663f728e1e100a73c8b4bac0","6662009ae78f21dd82fcd179","666209ad0eda9a70e4593856","null","","null","","","","","","","","./tasks/HMM-beads/Images/WhiteBeadChoiceCorrect.png","","","","","","","","","",""
"image-keyboard-response","118","291938","0.0-3.0-4.0-1.0-0.35","663f728e1e100a73c8b4bac0","6662009ae78f21dd82fcd179","666209ad0eda9a70e4593856","300","","j","","","","","","","","./tasks/HMM-beads/Images/NewTrialWC.png","practice","0","35","1","1","1","1","true","",""
"image-keyboard-response","119","292241","0.0-3.0-4.0-1.0-1.35","663f728e1e100a73c8b4bac0","6662009ae78f21dd82fcd179","666209ad0eda9a70e4593856","null","","null","","","","","","","","./tasks/HMM-beads/Images/WhiteBeadChoice.png","","","","","","","","","",""
"image-keyboard-response","120","292744","0.0-3.0-4.0-1.0-2.35","663f728e1e100a73c8b4bac0","6662009ae78f21dd82fcd179","666209ad0eda9a70e4593856","null","","null","","","","","","","","./tasks/HMM-beads/Images/WhiteBeadChoiceCorrect.png","","","","","","","","","",""
"image-keyboard-response","121","293048","0.0-3.0-4.0-1.0-0.36","663f728e1e100a73c8b4bac0","6662009ae78f21dd82fcd179","666209ad0eda9a70e4593856","302","","j","","","","","","","","./tasks/HMM-beads/Images/NewTrialWC.png","practice","0","36","1","0","1","1","false","",""
"image-keyboard-response","122","293351","0.0-3.0-4.0-1.0-1.36","663f728e1e100a73c8b4bac0","6662009ae78f21dd82fcd179","666209ad0eda9a70e4593856","null","","null","","","","","","","","./tasks/HMM-beads/Images/WhiteBeadChoice.png","","","","","","","","","",""
"image-keyboard-response","123","293854","0.0-3.0-4.0-1.0-2.36","663f728e1e100a73c8b4bac0","6662009ae78f21dd82fcd179","666209ad0eda9a70e4593856","null","","null","","","","","","","","./tasks/HMM-beads/Images/WhiteBeadChoiceWrong.png","","","","","","","","","",""
"image-keyboard-response","124","294339","0.0-3.0-4.0-1.0-0.37","663f728e1e100a73c8b4bac0","6662009ae78f21dd82fcd179","666209ad0eda9a70e4593856","483","","j","","","","","","","","./tasks/HMM-beads/Images/NewTrialBC.png","practice","0","37","1","1","0","1","true","",""
"image-keyboard-response","125","294643","0.0-3.0-4.0-1.0-1.37","663f728e1e100a73c8b4bac0","6662009ae78f21dd82fcd179","666209ad0eda9a70e4593856","null","","null","","","","","","","","./tasks/HMM-beads/Images/WhiteBeadChoice.png","","","","","","","","","",""
"image-keyboard-response","126","295146","0.0-3.0-4.0-1.0-2.37","663f728e1e100a73c8b4bac0","6662009ae78f21dd82fcd179","666209ad0eda9a70e4593856","null","","null","","","","","","","","./tasks/HMM-beads/Images/WhiteBeadChoiceCorrect.png","","","","","","","","","",""
"image-keyboard-response","127","295479","0.0-3.0-4.0-1.0-0.38","663f728e1e100a73c8b4bac0","6662009ae78f21dd82fcd179","666209ad0eda9a70e4593856","330","","j","","","","","","","","./tasks/HMM-beads/Images/NewTrialWC.png","practice","0","38","1","1","1","1","true","",""
"image-keyboard-response","128","295782","0.0-3.0-4.0-1.0-1.38","663f728e1e100a73c8b4bac0","6662009ae78f21dd82fcd179","666209ad0eda9a70e4593856","null","","null","","","","","","","","./tasks/HMM-beads/Images/WhiteBeadChoice.png","","","","","","","","","",""
"image-keyboard-response","129","296285","0.0-3.0-4.0-1.0-2.38","663f728e1e100a73c8b4bac0","6662009ae78f21dd82fcd179","666209ad0eda9a70e4593856","null","","null","","","","","","","","./tasks/HMM-beads/Images/WhiteBeadChoiceCorrect.png","","","","","","","","","",""
"image-keyboard-response","130","296619","0.0-3.0-4.0-1.0-0.39","663f728e1e100a73c8b4bac0","6662009ae78f21dd82fcd179","666209ad0eda9a70e4593856","333","","j","","","","","","","","./tasks/HMM-beads/Images/NewTrialWC.png","practice","0","39","1","1","1","1","true","",""
"image-keyboard-response","131","296922","0.0-3.0-4.0-1.0-1.39","663f728e1e100a73c8b4bac0","6662009ae78f21dd82fcd179","666209ad0eda9a70e4593856","null","","null","","","","","","","","./tasks/HMM-beads/Images/WhiteBeadChoice.png","","","","","","","","","",""
"image-keyboard-response","132","297424","0.0-3.0-4.0-1.0-2.39","663f728e1e100a73c8b4bac0","6662009ae78f21dd82fcd179","666209ad0eda9a70e4593856","null","","null","","","","","","","","./tasks/HMM-beads/Images/WhiteBeadChoiceCorrect.png","","","","","","","","","",""
"html-keyboard-response","133","300729","0.0-3.0-4.0-2.0","663f728e1e100a73c8b4bac0","6662009ae78f21dd82fcd179","666209ad0eda9a70e4593856","3303",""," ","","","","","","","","","","","","","","","","","",""
"instructions","134","317956","0.0-3.0-5.0","663f728e1e100a73c8b4bac0","6662009ae78f21dd82fcd179","666209ad0eda9a70e4593856","17226","","","","[{""page_index"":0,""viewing_time"":11910},{""page_index"":1,""viewing_time"":5315}]","","","","","","","","","","","","","","","",""
"html-keyboard-response","135","323141","0.0-3.0-6.0-0.0","663f728e1e100a73c8b4bac0","6662009ae78f21dd82fcd179","666209ad0eda9a70e4593856","5183",""," ","","","","","","","","<div align=center>In this block, there will be a <b>1% chance</b> that the jar on the next trial will be different from the jar on the current trial.<br><br></div>","","","","","","","","","",""
"image-keyboard-response","136","324506","0.0-3.0-6.0-1.0-0.0","663f728e1e100a73c8b4bac0","6662009ae78f21dd82fcd179","666209ad0eda9a70e4593856","1363","","f","","","","","","","","./tasks/HMM-beads/Images/NoChoice.png","lowH","1","0","1","0","9","0","true","",""
"image-keyboard-response","137","324809","0.0-3.0-6.0-1.0-1.0","663f728e1e100a73c8b4bac0","6662009ae78f21dd82fcd179","666209ad0eda9a70e4593856","null","","null","","","","","","","","./tasks/HMM-beads/Images/BlackBeadChoice.png","","","","","","","","","",""
"image-keyboard-response","138","325313","0.0-3.0-6.0-1.0-2.0","663f728e1e100a73c8b4bac0","6662009ae78f21dd82fcd179","666209ad0eda9a70e4593856","null","","null","","","","","","","","./tasks/HMM-beads/Images/BlackBeadChoiceCorrect.png","","","","","","","","","",""
"image-keyboard-response","139","325781","0.0-3.0-6.0-1.0-0.1","663f728e1e100a73c8b4bac0","6662009ae78f21dd82fcd179","666209ad0eda9a70e4593856","466","","f","","","","","","","","./tasks/HMM-beads/Images/NewTrialBC.png","lowH","1","1","1","1","0","0","false","",""
"image-keyboard-response","140","326084","0.0-3.0-6.0-1.0-1.1","663f728e1e100a73c8b4bac0","6662009ae78f21dd82fcd179","666209ad0eda9a70e4593856","null","","null","","","","","","","","./tasks/HMM-beads/Images/BlackBeadChoice.png","","","","","","","","","",""
"image-keyboard-response","141","326588","0.0-3.0-6.0-1.0-2.1","663f728e1e100a73c8b4bac0","6662009ae78f21dd82fcd179","666209ad0eda9a70e4593856","null","","null","","","","","","","","./tasks/HMM-beads/Images/BlackBeadChoiceWrong.png","","","","","","","","","",""
"image-keyboard-response","142","327220","0.0-3.0-6.0-1.0-0.2","663f728e1e100a73c8b4bac0","6662009ae78f21dd82fcd179","666209ad0eda9a70e4593856","631","","f","","","","","","","","./tasks/HMM-beads/Images/NewTrialWC.png","lowH","1","2","1","1","1","0","false","",""
"image-keyboard-response","143","327523","0.0-3.0-6.0-1.0-1.2","663f728e1e100a73c8b4bac0","6662009ae78f21dd82fcd179","666209ad0eda9a70e4593856","null","","null","","","","","","","","./tasks/HMM-beads/Images/BlackBeadChoice.png","","","","","","","","","",""
"image-keyboard-response","144","328026","0.0-3.0-6.0-1.0-2.2","663f728e1e100a73c8b4bac0","6662009ae78f21dd82fcd179","666209ad0eda9a70e4593856","null","","null","","","","","","","","./tasks/HMM-beads/Images/BlackBeadChoiceWrong.png","","","","","","","","","",""
"image-keyboard-response","145","328209","0.0-3.0-6.0-1.0-0.3","663f728e1e100a73c8b4bac0","6662009ae78f21dd82fcd179","666209ad0eda9a70e4593856","181","","j","","","","","","","","./tasks/HMM-beads/Images/NewTrialWC.png","lowH","1","3","1","1","1","1","true","",""
"image-keyboard-response","146","328511","0.0-3.0-6.0-1.0-1.3","663f728e1e100a73c8b4bac0","6662009ae78f21dd82fcd179","666209ad0eda9a70e4593856","null","","null","","","","","","","","./tasks/HMM-beads/Images/WhiteBeadChoice.png","","","","","","","","","",""
"image-keyboard-response","147","329014","0.0-3.0-6.0-1.0-2.3","663f728e1e100a73c8b4bac0","6662009ae78f21dd82fcd179","666209ad0eda9a70e4593856","null","","null","","","","","","","","./tasks/HMM-beads/Images/WhiteBeadChoiceCorrect.png","","","","","","","","","",""
"image-keyboard-response","148","329291","0.0-3.0-6.0-1.0-0.4","663f728e1e100a73c8b4bac0","6662009ae78f21dd82fcd179","666209ad0eda9a70e4593856","275","","j","","","","","","","","./tasks/HMM-beads/Images/NewTrialWC.png","lowH","1","4","1","1","1","1","true","",""
"image-keyboard-response","149","329594","0.0-3.0-6.0-1.0-1.4","663f728e1e100a73c8b4bac0","6662009ae78f21dd82fcd179","666209ad0eda9a70e4593856","null","","null","","","","","","","","./tasks/HMM-beads/Images/WhiteBeadChoice.png","","","","","","","","","",""
"image-keyboard-response","150","330098","0.0-3.0-6.0-1.0-2.4","663f728e1e100a73c8b4bac0","6662009ae78f21dd82fcd179","666209ad0eda9a70e4593856","null","","null","","","","","","","","./tasks/HMM-beads/Images/WhiteBeadChoiceCorrect.png","","","","","","","","","",""
"image-keyboard-response","151","330281","0.0-3.0-6.0-1.0-0.5","663f728e1e100a73c8b4bac0","6662009ae78f21dd82fcd179","666209ad0eda9a70e4593856","181","","j","","","","","","","","./tasks/HMM-beads/Images/NewTrialWC.png","lowH","1","5","1","1","1","1","true","",""
"image-keyboard-response","152","330585","0.0-3.0-6.0-1.0-1.5","663f728e1e100a73c8b4bac0","6662009ae78f21dd82fcd179","666209ad0eda9a70e4593856","null","","null","","","","","","","","./tasks/HMM-beads/Images/WhiteBeadChoice.png","","","","","","","","","",""
"image-keyboard-response","153","331089","0.0-3.0-6.0-1.0-2.5","663f728e1e100a73c8b4bac0","6662009ae78f21dd82fcd179","666209ad0eda9a70e4593856","null","","null","","","","","","","","./tasks/HMM-beads/Images/WhiteBeadChoiceCorrect.png","","","","","","","","","",""
"image-keyboard-response","154","331376","0.0-3.0-6.0-1.0-0.6","663f728e1e100a73c8b4bac0","6662009ae78f21dd82fcd179","666209ad0eda9a70e4593856","285","","j","","","","","","","","./tasks/HMM-beads/Images/NewTrialWC.png","lowH","1","6","1","0","1","1","false","",""
"image-keyboard-response","155","331679","0.0-3.0-6.0-1.0-1.6","663f728e1e100a73c8b4bac0","6662009ae78f21dd82fcd179","666209ad0eda9a70e4593856","null","","null","","","","","","","","./tasks/HMM-beads/Images/WhiteBeadChoice.png","","","","","","","","","",""
"image-keyboard-response","156","332183","0.0-3.0-6.0-1.0-2.6","663f728e1e100a73c8b4bac0","6662009ae78f21dd82fcd179","666209ad0eda9a70e4593856","null","","null","","","","","","","","./tasks/HMM-beads/Images/WhiteBeadChoiceWrong.png","","","","","","","","","",""
"image-keyboard-response","157","332470","0.0-3.0-6.0-1.0-0.7","663f728e1e100a73c8b4bac0","6662009ae78f21dd82fcd179","666209ad0eda9a70e4593856","286","","j","","","","","","","","./tasks/HMM-beads/Images/NewTrialBC.png","lowH","1","7","1","1","0","1","true","",""
"image-keyboard-response","158","332774","0.0-3.0-6.0-1.0-1.7","663f728e1e100a73c8b4bac0","6662009ae78f21dd82fcd179","666209ad0eda9a70e4593856","null","","null","","","","","","","","./tasks/HMM-beads/Images/WhiteBeadChoice.png","","","","","","","","","",""
"image-keyboard-response","159","333277","0.0-3.0-6.0-1.0-2.7","663f728e1e100a73c8b4bac0","6662009ae78f21dd82fcd179","666209ad0eda9a70e4593856","null","","null","","","","","","","","./tasks/HMM-beads/Images/WhiteBeadChoiceCorrect.png","","","","","","","","","",""
"image-keyboard-response","160","333521","0.0-3.0-6.0-1.0-0.8","663f728e1e100a73c8b4bac0","6662009ae78f21dd82fcd179","666209ad0eda9a70e4593856","241","","j","","","","","","","","./tasks/HMM-beads/Images/NewTrialWC.png","lowH","1","8","1","1","1","1","true","",""
"image-keyboard-response","161","333824","0.0-3.0-6.0-1.0-1.8","663f728e1e100a73c8b4bac0","6662009ae78f21dd82fcd179","666209ad0eda9a70e4593856","null","","null","","","","","","","","./tasks/HMM-beads/Images/WhiteBeadChoice.png","","","","","","","","","",""
"image-keyboard-response","162","334327","0.0-3.0-6.0-1.0-2.8","663f728e1e100a73c8b4bac0","6662009ae78f21dd82fcd179","666209ad0eda9a70e4593856","null","","null","","","","","","","","./tasks/HMM-beads/Images/WhiteBeadChoiceCorrect.png","","","","","","","","","",""
"image-keyboard-response","163","334630","0.0-3.0-6.0-1.0-0.9","663f728e1e100a73c8b4bac0","6662009ae78f21dd82fcd179","666209ad0eda9a70e4593856","300","","j","","","","","","","","./tasks/HMM-beads/Images/NewTrialWC.png","lowH","1","9","1","1","1","1","true","",""
"image-keyboard-response","164","334932","0.0-3.0-6.0-1.0-1.9","663f728e1e100a73c8b4bac0","6662009ae78f21dd82fcd179","666209ad0eda9a70e4593856","null","","null","","","","","","","","./tasks/HMM-beads/Images/WhiteBeadChoice.png","","","","","","","","","",""
"image-keyboard-response","165","335437","0.0-3.0-6.0-1.0-2.9","663f728e1e100a73c8b4bac0","6662009ae78f21dd82fcd179","666209ad0eda9a70e4593856","null","","null","","","","","","","","./tasks/HMM-beads/Images/WhiteBeadChoiceCorrect.png","","","","","","","","","",""
"image-keyboard-response","166","336370","0.0-3.0-6.0-1.0-0.10","663f728e1e100a73c8b4bac0","6662009ae78f21dd82fcd179","666209ad0eda9a70e4593856","931","","f","","","","","","","","./tasks/HMM-beads/Images/NewTrialWC.png","lowH","1","10","1","1","1","0","false","",""
"image-keyboard-response","167","336674","0.0-3.0-6.0-1.0-1.10","663f728e1e100a73c8b4bac0","6662009ae78f21dd82fcd179","666209ad0eda9a70e4593856","null","","null","","","","","","","","./tasks/HMM-beads/Images/BlackBeadChoice.png","","","","","","","","","",""
"image-keyboard-response","168","337177","0.0-3.0-6.0-1.0-2.10","663f728e1e100a73c8b4bac0","6662009ae78f21dd82fcd179","666209ad0eda9a70e4593856","null","","null","","","","","","","","./tasks/HMM-beads/Images/BlackBeadChoiceWrong.png","","","","","","","","","",""
"image-keyboard-response","169","337421","0.0-3.0-6.0-1.0-0.11","663f728e1e100a73c8b4bac0","6662009ae78f21dd82fcd179","666209ad0eda9a70e4593856","243","","j","","","","","","","","./tasks/HMM-beads/Images/NewTrialWC.png","lowH","1","11","1","1","1","1","true","",""
"image-keyboard-response","170","337724","0.0-3.0-6.0-1.0-1.11","663f728e1e100a73c8b4bac0","6662009ae78f21dd82fcd179","666209ad0eda9a70e4593856","null","","null","","","","","","","","./tasks/HMM-beads/Images/WhiteBeadChoice.png","","","","","","","","","",""
"image-keyboard-response","171","338226","0.0-3.0-6.0-1.0-2.11","663f728e1e100a73c8b4bac0","6662009ae78f21dd82fcd179","666209ad0eda9a70e4593856","null","","null","","","","","","","","./tasks/HMM-beads/Images/WhiteBeadChoiceCorrect.png","","","","","","","","","",""
"image-keyboard-response","172","338439","0.0-3.0-6.0-1.0-0.12","663f728e1e100a73c8b4bac0","6662009ae78f21dd82fcd179","666209ad0eda9a70e4593856","212","","j","","","","","","","","./tasks/HMM-beads/Images/NewTrialWC.png","lowH","1","12","1","1","1","1","true","",""
"image-keyboard-response","173","338741","0.0-3.0-6.0-1.0-1.12","663f728e1e100a73c8b4bac0","6662009ae78f21dd82fcd179","666209ad0eda9a70e4593856","null","","null","","","","","","","","./tasks/HMM-beads/Images/WhiteBeadChoice.png","","","","","","","","","",""
"image-keyboard-response","174","339244","0.0-3.0-6.0-1.0-2.12","663f728e1e100a73c8b4bac0","6662009ae78f21dd82fcd179","666209ad0eda9a70e4593856","null","","null","","","","","","","","./tasks/HMM-beads/Images/WhiteBeadChoiceCorrect.png","","","","","","","","","",""
"image-keyboard-response","175","339443","0.0-3.0-6.0-1.0-0.13","663f728e1e100a73c8b4bac0","6662009ae78f21dd82fcd179","666209ad0eda9a70e4593856","199","","j","","","","","","","","./tasks/HMM-beads/Images/NewTrialWC.png","lowH","1","13","1","0","1","1","false","",""
"image-keyboard-response","176","339746","0.0-3.0-6.0-1.0-1.13","663f728e1e100a73c8b4bac0","6662009ae78f21dd82fcd179","666209ad0eda9a70e4593856","null","","null","","","","","","","","./tasks/HMM-beads/Images/WhiteBeadChoice.png","","","","","","","","","",""
"image-keyboard-response","177","340249","0.0-3.0-6.0-1.0-2.13","663f728e1e100a73c8b4bac0","6662009ae78f21dd82fcd179","666209ad0eda9a70e4593856","null","","null","","","","","","","","./tasks/HMM-beads/Images/WhiteBeadChoiceWrong.png","","","","","","","","","",""
"image-keyboard-response","178","340451","0.0-3.0-6.0-1.0-0.14","663f728e1e100a73c8b4bac0","6662009ae78f21dd82fcd179","666209ad0eda9a70e4593856","200","","f","","","","","","","","./tasks/HMM-beads/Images/NewTrialBC.png","lowH","1","14","1","0","0","0","true","",""
"image-keyboard-response","179","340754","0.0-3.0-6.0-1.0-1.14","663f728e1e100a73c8b4bac0","6662009ae78f21dd82fcd179","666209ad0eda9a70e4593856","null","","null","","","","","","","","./tasks/HMM-beads/Images/BlackBeadChoice.png","","","","","","","","","",""
"image-keyboard-response","180","341257","0.0-3.0-6.0-1.0-2.14","663f728e1e100a73c8b4bac0","6662009ae78f21dd82fcd179","666209ad0eda9a70e4593856","null","","null","","","","","","","","./tasks/HMM-beads/Images/BlackBeadChoiceCorrect.png","","","","","","","","","",""
"image-keyboard-response","181","341424","0.0-3.0-6.0-1.0-0.15","663f728e1e100a73c8b4bac0","6662009ae78f21dd82fcd179","666209ad0eda9a70e4593856","166","","f","","","","","","","","./tasks/HMM-beads/Images/NewTrialBC.png","lowH","1","15","1","1","0","0","false","",""
"image-keyboard-response","182","341727","0.0-3.0-6.0-1.0-1.15","663f728e1e100a73c8b4bac0","6662009ae78f21dd82fcd179","666209ad0eda9a70e4593856","null","","null","","","","","","","","./tasks/HMM-beads/Images/BlackBeadChoice.png","","","","","","","","","",""
"image-keyboard-response","183","342229","0.0-3.0-6.0-1.0-2.15","663f728e1e100a73c8b4bac0","6662009ae78f21dd82fcd179","666209ad0eda9a70e4593856","null","","null","","","","","","","","./tasks/HMM-beads/Images/BlackBeadChoiceWrong.png","","","","","","","","","",""
"image-keyboard-response","184","342430","0.0-3.0-6.0-1.0-0.16","663f728e1e100a73c8b4bac0","6662009ae78f21dd82fcd179","666209ad0eda9a70e4593856","199","","j","","","","","","","","./tasks/HMM-beads/Images/NewTrialWC.png","lowH","1","16","1","1","1","1","true","",""
"image-keyboard-response","185","342733","0.0-3.0-6.0-1.0-1.16","663f728e1e100a73c8b4bac0","6662009ae78f21dd82fcd179","666209ad0eda9a70e4593856","null","","null","","","","","","","","./tasks/HMM-beads/Images/WhiteBeadChoice.png","","","","","","","","","",""
"image-keyboard-response","186","343236","0.0-3.0-6.0-1.0-2.16","663f728e1e100a73c8b4bac0","6662009ae78f21dd82fcd179","666209ad0eda9a70e4593856","null","","null","","","","","","","","./tasks/HMM-beads/Images/WhiteBeadChoiceCorrect.png","","","","","","","","","",""
"image-keyboard-response","187","343447","0.0-3.0-6.0-1.0-0.17","663f728e1e100a73c8b4bac0","6662009ae78f21dd82fcd179","666209ad0eda9a70e4593856","210","","j","","","","","","","","./tasks/HMM-beads/Images/NewTrialWC.png","lowH","1","17","1","1","1","1","true","",""
"image-keyboard-response","188","343749","0.0-3.0-6.0-1.0-1.17","663f728e1e100a73c8b4bac0","6662009ae78f21dd82fcd179","666209ad0eda9a70e4593856","null","","null","","","","","","","","./tasks/HMM-beads/Images/WhiteBeadChoice.png","","","","","","","","","",""
"image-keyboard-response","189","344251","0.0-3.0-6.0-1.0-2.17","663f728e1e100a73c8b4bac0","6662009ae78f21dd82fcd179","666209ad0eda9a70e4593856","null","","null","","","","","","","","./tasks/HMM-beads/Images/WhiteBeadChoiceCorrect.png","","","","","","","","","",""
"image-keyboard-response","190","344378","0.0-3.0-6.0-1.0-0.18","663f728e1e100a73c8b4bac0","6662009ae78f21dd82fcd179","666209ad0eda9a70e4593856","126","","j","","","","","","","","./tasks/HMM-beads/Images/NewTrialWC.png","lowH","1","18","1","1","1","1","true","",""
"image-keyboard-response","191","344681","0.0-3.0-6.0-1.0-1.18","663f728e1e100a73c8b4bac0","6662009ae78f21dd82fcd179","666209ad0eda9a70e4593856","null","","null","","","","","","","","./tasks/HMM-beads/Images/WhiteBeadChoice.png","","","","","","","","","",""
"image-keyboard-response","192","345184","0.0-3.0-6.0-1.0-2.18","663f728e1e100a73c8b4bac0","6662009ae78f21dd82fcd179","666209ad0eda9a70e4593856","null","","null","","","","","","","","./tasks/HMM-beads/Images/WhiteBeadChoiceCorrect.png","","","","","","","","","",""
"image-keyboard-response","193","345427","0.0-3.0-6.0-1.0-0.19","663f728e1e100a73c8b4bac0","6662009ae78f21dd82fcd179","666209ad0eda9a70e4593856","242","","j","","","","","","","","./tasks/HMM-beads/Images/NewTrialWC.png","lowH","1","19","1","1","1","1","true","",""
"image-keyboard-response","194","345730","0.0-3.0-6.0-1.0-1.19","663f728e1e100a73c8b4bac0","6662009ae78f21dd82fcd179","666209ad0eda9a70e4593856","null","","null","","","","","","","","./tasks/HMM-beads/Images/WhiteBeadChoice.png","","","","","","","","","",""
"image-keyboard-response","195","346233","0.0-3.0-6.0-1.0-2.19","663f728e1e100a73c8b4bac0","6662009ae78f21dd82fcd179","666209ad0eda9a70e4593856","null","","null","","","","","","","","./tasks/HMM-beads/Images/WhiteBeadChoiceCorrect.png","","","","","","","","","",""
"image-keyboard-response","196","346389","0.0-3.0-6.0-1.0-0.20","663f728e1e100a73c8b4bac0","6662009ae78f21dd82fcd179","666209ad0eda9a70e4593856","154","","j","","","","","","","","./tasks/HMM-beads/Images/NewTrialWC.png","lowH","1","20","1","1","1","1","true","",""
"image-keyboard-response","197","346692","0.0-3.0-6.0-1.0-1.20","663f728e1e100a73c8b4bac0","6662009ae78f21dd82fcd179","666209ad0eda9a70e4593856","null","","null","","","","","","","","./tasks/HMM-beads/Images/WhiteBeadChoice.png","","","","","","","","","",""
"image-keyboard-response","198","347193","0.0-3.0-6.0-1.0-2.20","663f728e1e100a73c8b4bac0","6662009ae78f21dd82fcd179","666209ad0eda9a70e4593856","null","","null","","","","","","","","./tasks/HMM-beads/Images/WhiteBeadChoiceCorrect.png","","","","","","","","","",""
"image-keyboard-response","199","347288","0.0-3.0-6.0-1.0-0.21","663f728e1e100a73c8b4bac0","6662009ae78f21dd82fcd179","666209ad0eda9a70e4593856","94","","j","","","","","","","","./tasks/HMM-beads/Images/NewTrialWC.png","lowH","1","21","1","1","1","1","true","",""
"image-keyboard-response","200","347590","0.0-3.0-6.0-1.0-1.21","663f728e1e100a73c8b4bac0","6662009ae78f21dd82fcd179","666209ad0eda9a70e4593856","null","","null","","","","","","","","./tasks/HMM-beads/Images/WhiteBeadChoice.png","","","","","","","","","",""
"image-keyboard-response","201","348093","0.0-3.0-6.0-1.0-2.21","663f728e1e100a73c8b4bac0","6662009ae78f21dd82fcd179","666209ad0eda9a70e4593856","null","","null","","","","","","","","./tasks/HMM-beads/Images/WhiteBeadChoiceCorrect.png","","","","","","","","","",""
"image-keyboard-response","202","348126","0.0-3.0-6.0-1.0-0.22","663f728e1e100a73c8b4bac0","6662009ae78f21dd82fcd179","666209ad0eda9a70e4593856","31","","j","","","","","","","","./tasks/HMM-beads/Images/NewTrialWC.png","lowH","1","22","1","1","1","1","true","",""
"image-keyboard-response","203","348429","0.0-3.0-6.0-1.0-1.22","663f728e1e100a73c8b4bac0","6662009ae78f21dd82fcd179","666209ad0eda9a70e4593856","null","","null","","","","","","","","./tasks/HMM-beads/Images/WhiteBeadChoice.png","","","","","","","","","",""
"image-keyboard-response","204","348932","0.0-3.0-6.0-1.0-2.22","663f728e1e100a73c8b4bac0","6662009ae78f21dd82fcd179","666209ad0eda9a70e4593856","null","","null","","","","","","","","./tasks/HMM-beads/Images/WhiteBeadChoiceCorrect.png","","","","","","","","","",""
"image-keyboard-response","205","349026","0.0-3.0-6.0-1.0-0.23","663f728e1e100a73c8b4bac0","6662009ae78f21dd82fcd179","666209ad0eda9a70e4593856","93","","j","","","","","","","","./tasks/HMM-beads/Images/NewTrialWC.png","lowH","1","23","1","1","1","1","true","",""
"image-keyboard-response","206","349329","0.0-3.0-6.0-1.0-1.23","663f728e1e100a73c8b4bac0","6662009ae78f21dd82fcd179","666209ad0eda9a70e4593856","null","","null","","","","","","","","./tasks/HMM-beads/Images/WhiteBeadChoice.png","","","","","","","","","",""
"image-keyboard-response","207","349833","0.0-3.0-6.0-1.0-2.23","663f728e1e100a73c8b4bac0","6662009ae78f21dd82fcd179","666209ad0eda9a70e4593856","null","","null","","","","","","","","./tasks/HMM-beads/Images/WhiteBeadChoiceCorrect.png","","","","","","","","","",""
"image-keyboard-response","208","349956","0.0-3.0-6.0-1.0-0.24","663f728e1e100a73c8b4bac0","6662009ae78f21dd82fcd179","666209ad0eda9a70e4593856","120","","j","","","","","","","","./tasks/HMM-beads/Images/NewTrialWC.png","lowH","1","24","1","0","1","1","false","",""
"image-keyboard-response","209","350258","0.0-3.0-6.0-1.0-1.24","663f728e1e100a73c8b4bac0","6662009ae78f21dd82fcd179","666209ad0eda9a70e4593856","null","","null","","","","","","","","./tasks/HMM-beads/Images/WhiteBeadChoice.png","","","","","","","","","",""
"image-keyboard-response","210","350762","0.0-3.0-6.0-1.0-2.24","663f728e1e100a73c8b4bac0","6662009ae78f21dd82fcd179","666209ad0eda9a70e4593856","null","","null","","","","","","","","./tasks/HMM-beads/Images/WhiteBeadChoiceWrong.png","","","","","","","","","",""
"image-keyboard-response","211","350886","0.0-3.0-6.0-1.0-0.25","663f728e1e100a73c8b4bac0","6662009ae78f21dd82fcd179","666209ad0eda9a70e4593856","122","","j","","","","","","","","./tasks/HMM-beads/Images/NewTrialBC.png","lowH","1","25","1","1","0","1","true","",""
"image-keyboard-response","212","351189","0.0-3.0-6.0-1.0-1.25","663f728e1e100a73c8b4bac0","6662009ae78f21dd82fcd179","666209ad0eda9a70e4593856","null","","null","","","","","","","","./tasks/HMM-beads/Images/WhiteBeadChoice.png","","","","","","","","","",""
"image-keyboard-response","213","351692","0.0-3.0-6.0-1.0-2.25","663f728e1e100a73c8b4bac0","6662009ae78f21dd82fcd179","666209ad0eda9a70e4593856","null","","null","","","","","","","","./tasks/HMM-beads/Images/WhiteBeadChoiceCorrect.png","","","","","","","","","",""
"image-keyboard-response","214","351753","0.0-3.0-6.0-1.0-0.26","663f728e1e100a73c8b4bac0","6662009ae78f21dd82fcd179","666209ad0eda9a70e4593856","59","","j","","","","","","","","./tasks/HMM-beads/Images/NewTrialWC.png","lowH","1","26","1","0","1","1","false","",""
"image-keyboard-response","215","352056","0.0-3.0-6.0-1.0-1.26","663f728e1e100a73c8b4bac0","6662009ae78f21dd82fcd179","666209ad0eda9a70e4593856","null","","null","","","","","","","","./tasks/HMM-beads/Images/WhiteBeadChoice.png","","","","","","","","","",""
"image-keyboard-response","216","352560","0.0-3.0-6.0-1.0-2.26","663f728e1e100a73c8b4bac0","6662009ae78f21dd82fcd179","666209ad0eda9a70e4593856","null","","null","","","","","","","","./tasks/HMM-beads/Images/WhiteBeadChoiceWrong.png","","","","","","","","","",""
"image-keyboard-response","217","352623","0.0-3.0-6.0-1.0-0.27","663f728e1e100a73c8b4bac0","6662009ae78f21dd82fcd179","666209ad0eda9a70e4593856","61","","j","","","","","","","","./tasks/HMM-beads/Images/NewTrialBC.png","lowH","1","27","1","1","0","1","true","",""
"image-keyboard-response","218","352924","0.0-3.0-6.0-1.0-1.27","663f728e1e100a73c8b4bac0","6662009ae78f21dd82fcd179","666209ad0eda9a70e4593856","null","","null","","","","","","","","./tasks/HMM-beads/Images/WhiteBeadChoice.png","","","","","","","","","",""
"image-keyboard-response","219","353427","0.0-3.0-6.0-1.0-2.27","663f728e1e100a73c8b4bac0","6662009ae78f21dd82fcd179","666209ad0eda9a70e4593856","null","","null","","","","","","","","./tasks/HMM-beads/Images/WhiteBeadChoiceCorrect.png","","","","","","","","","",""
"image-keyboard-response","220","353524","0.0-3.0-6.0-1.0-0.28","663f728e1e100a73c8b4bac0","6662009ae78f21dd82fcd179","666209ad0eda9a70e4593856","95","","j","","","","","","","","./tasks/HMM-beads/Images/NewTrialWC.png","lowH","1","28","1","1","1","1","true","",""
"image-keyboard-response","221","353827","0.0-3.0-6.0-1.0-1.28","663f728e1e100a73c8b4bac0","6662009ae78f21dd82fcd179","666209ad0eda9a70e4593856","null","","null","","","","","","","","./tasks/HMM-beads/Images/WhiteBeadChoice.png","","","","","","","","","",""
"image-keyboard-response","222","354331","0.0-3.0-6.0-1.0-2.28","663f728e1e100a73c8b4bac0","6662009ae78f21dd82fcd179","666209ad0eda9a70e4593856","null","","null","","","","","","","","./tasks/HMM-beads/Images/WhiteBeadChoiceCorrect.png","","","","","","","","","",""
"image-keyboard-response","223","354396","0.0-3.0-6.0-1.0-0.29","663f728e1e100a73c8b4bac0","6662009ae78f21dd82fcd179","666209ad0eda9a70e4593856","63","","j","","","","","","","","./tasks/HMM-beads/Images/NewTrialWC.png","lowH","1","29","1","1","1","1","true","",""
"image-keyboard-response","224","354699","0.0-3.0-6.0-1.0-1.29","663f728e1e100a73c8b4bac0","6662009ae78f21dd82fcd179","666209ad0eda9a70e4593856","null","","null","","","","","","","","./tasks/HMM-beads/Images/WhiteBeadChoice.png","","","","","","","","","",""
"image-keyboard-response","225","355201","0.0-3.0-6.0-1.0-2.29","663f728e1e100a73c8b4bac0","6662009ae78f21dd82fcd179","666209ad0eda9a70e4593856","null","","null","","","","","","","","./tasks/HMM-beads/Images/WhiteBeadChoiceCorrect.png","","","","","","","","","",""
"image-keyboard-response","226","355234","0.0-3.0-6.0-1.0-0.30","663f728e1e100a73c8b4bac0","6662009ae78f21dd82fcd179","666209ad0eda9a70e4593856","32","","j","","","","","","","","./tasks/HMM-beads/Images/NewTrialWC.png","lowH","1","30","1","1","1","1","true","",""
"image-keyboard-response","227","355537","0.0-3.0-6.0-1.0-1.30","663f728e1e100a73c8b4bac0","6662009ae78f21dd82fcd179","666209ad0eda9a70e4593856","null","","null","","","","","","","","./tasks/HMM-beads/Images/WhiteBeadChoice.png","","","","","","","","","",""
"image-keyboard-response","228","356040","0.0-3.0-6.0-1.0-2.30","663f728e1e100a73c8b4bac0","6662009ae78f21dd82fcd179","666209ad0eda9a70e4593856","null","","null","","","","","","","","./tasks/HMM-beads/Images/WhiteBeadChoiceCorrect.png","","","","","","","","","",""
"image-keyboard-response","229","356073","0.0-3.0-6.0-1.0-0.31","663f728e1e100a73c8b4bac0","6662009ae78f21dd82fcd179","666209ad0eda9a70e4593856","31","","j","","","","","","","","./tasks/HMM-beads/Images/NewTrialWC.png","lowH","1","31","1","1","1","1","true","",""
"image-keyboard-response","230","356376","0.0-3.0-6.0-1.0-1.31","663f728e1e100a73c8b4bac0","6662009ae78f21dd82fcd179","666209ad0eda9a70e4593856","null","","null","","","","","","","","./tasks/HMM-beads/Images/WhiteBeadChoice.png","","","","","","","","","",""
"image-keyboard-response","231","356879","0.0-3.0-6.0-1.0-2.31","663f728e1e100a73c8b4bac0","6662009ae78f21dd82fcd179","666209ad0eda9a70e4593856","null","","null","","","","","","","","./tasks/HMM-beads/Images/WhiteBeadChoiceCorrect.png","","","","","","","","","",""
"image-keyboard-response","232","356944","0.0-3.0-6.0-1.0-0.32","663f728e1e100a73c8b4bac0","6662009ae78f21dd82fcd179","666209ad0eda9a70e4593856","63","","j","","","","","","","","./tasks/HMM-beads/Images/NewTrialWC.png","lowH","1","32","1","1","1","1","true","",""
"image-keyboard-response","233","357247","0.0-3.0-6.0-1.0-1.32","663f728e1e100a73c8b4bac0","6662009ae78f21dd82fcd179","666209ad0eda9a70e4593856","null","","null","","","","","","","","./tasks/HMM-beads/Images/WhiteBeadChoice.png","","","","","","","","","",""
"image-keyboard-response","234","357750","0.0-3.0-6.0-1.0-2.32","663f728e1e100a73c8b4bac0","6662009ae78f21dd82fcd179","666209ad0eda9a70e4593856","null","","null","","","","","","","","./tasks/HMM-beads/Images/WhiteBeadChoiceCorrect.png","","","","","","","","","",""
"image-keyboard-response","235","357874","0.0-3.0-6.0-1.0-0.33","663f728e1e100a73c8b4bac0","6662009ae78f21dd82fcd179","666209ad0eda9a70e4593856","123","","j","","","","","","","","./tasks/HMM-beads/Images/NewTrialWC.png","lowH","1","33","1","1","1","1","true","",""
"image-keyboard-response","236","358178","0.0-3.0-6.0-1.0-1.33","663f728e1e100a73c8b4bac0","6662009ae78f21dd82fcd179","666209ad0eda9a70e4593856","null","","null","","","","","","","","./tasks/HMM-beads/Images/WhiteBeadChoice.png","","","","","","","","","",""
"image-keyboard-response","237","358681","0.0-3.0-6.0-1.0-2.33","663f728e1e100a73c8b4bac0","6662009ae78f21dd82fcd179","666209ad0eda9a70e4593856","null","","null","","","","","","","","./tasks/HMM-beads/Images/WhiteBeadChoiceCorrect.png","","","","","","","","","",""
"image-keyboard-response","238","359285","0.0-3.0-6.0-1.0-0.34","663f728e1e100a73c8b4bac0","6662009ae78f21dd82fcd179","666209ad0eda9a70e4593856","603","","j","","","","","","","","./tasks/HMM-beads/Images/NewTrialWC.png","lowH","1","34","1","1","1","1","true","",""
"image-keyboard-response","239","359589","0.0-3.0-6.0-1.0-1.34","663f728e1e100a73c8b4bac0","6662009ae78f21dd82fcd179","666209ad0eda9a70e4593856","null","","null","","","","","","","","./tasks/HMM-beads/Images/WhiteBeadChoice.png","","","","","","","","","",""
"image-keyboard-response","240","360093","0.0-3.0-6.0-1.0-2.34","663f728e1e100a73c8b4bac0","6662009ae78f21dd82fcd179","666209ad0eda9a70e4593856","null","","null","","","","","","","","./tasks/HMM-beads/Images/WhiteBeadChoiceCorrect.png","","","","","","","","","",""
"image-keyboard-response","241","360152","0.0-3.0-6.0-1.0-0.35","663f728e1e100a73c8b4bac0","6662009ae78f21dd82fcd179","666209ad0eda9a70e4593856","58","","j","","","","","","","","./tasks/HMM-beads/Images/NewTrialWC.png","lowH","1","35","1","1","1","1","true","",""
"image-keyboard-response","242","360455","0.0-3.0-6.0-1.0-1.35","663f728e1e100a73c8b4bac0","6662009ae78f21dd82fcd179","666209ad0eda9a70e4593856","null","","null","","","","","","","","./tasks/HMM-beads/Images/WhiteBeadChoice.png","","","","","","","","","",""
"image-keyboard-response","243","360958","0.0-3.0-6.0-1.0-2.35","663f728e1e100a73c8b4bac0","6662009ae78f21dd82fcd179","666209ad0eda9a70e4593856","null","","null","","","","","","","","./tasks/HMM-beads/Images/WhiteBeadChoiceCorrect.png","","","","","","","","","",""
"image-keyboard-response","244","361022","0.0-3.0-6.0-1.0-0.36","663f728e1e100a73c8b4bac0","6662009ae78f21dd82fcd179","666209ad0eda9a70e4593856","63","","j","","","","","","","","./tasks/HMM-beads/Images/NewTrialWC.png","lowH","1","36","1","1","1","1","true","",""
"image-keyboard-response","245","361325","0.0-3.0-6.0-1.0-1.36","663f728e1e100a73c8b4bac0","6662009ae78f21dd82fcd179","666209ad0eda9a70e4593856","null","","null","","","","","","","","./tasks/HMM-beads/Images/WhiteBeadChoice.png","","","","","","","","","",""
"image-keyboard-response","246","361829","0.0-3.0-6.0-1.0-2.36","663f728e1e100a73c8b4bac0","6662009ae78f21dd82fcd179","666209ad0eda9a70e4593856","null","","null","","","","","","","","./tasks/HMM-beads/Images/WhiteBeadChoiceCorrect.png","","","","","","","","","",""
"image-keyboard-response","247","361891","0.0-3.0-6.0-1.0-0.37","663f728e1e100a73c8b4bac0","6662009ae78f21dd82fcd179","666209ad0eda9a70e4593856","61","","j","","","","","","","","./tasks/HMM-beads/Images/NewTrialWC.png","lowH","1","37","1","1","1","1","true","",""
"image-keyboard-response","248","362194","0.0-3.0-6.0-1.0-1.37","663f728e1e100a73c8b4bac0","6662009ae78f21dd82fcd179","666209ad0eda9a70e4593856","null","","null","","","","","","","","./tasks/HMM-beads/Images/WhiteBeadChoice.png","","","","","","","","","",""
"image-keyboard-response","249","362699","0.0-3.0-6.0-1.0-2.37","663f728e1e100a73c8b4bac0","6662009ae78f21dd82fcd179","666209ad0eda9a70e4593856","null","","null","","","","","","","","./tasks/HMM-beads/Images/WhiteBeadChoiceCorrect.png","","","","","","","","","",""
"image-keyboard-response","250","362824","0.0-3.0-6.0-1.0-0.38","663f728e1e100a73c8b4bac0","6662009ae78f21dd82fcd179","666209ad0eda9a70e4593856","123","","j","","","","","","","","./tasks/HMM-beads/Images/NewTrialWC.png","lowH","1","38","1","1","1","1","true","",""
"image-keyboard-response","251","363127","0.0-3.0-6.0-1.0-1.38","663f728e1e100a73c8b4bac0","6662009ae78f21dd82fcd179","666209ad0eda9a70e4593856","null","","null","","","","","","","","./tasks/HMM-beads/Images/WhiteBeadChoice.png","","","","","","","","","",""
"image-keyboard-response","252","363631","0.0-3.0-6.0-1.0-2.38","663f728e1e100a73c8b4bac0","6662009ae78f21dd82fcd179","666209ad0eda9a70e4593856","null","","null","","","","","","","","./tasks/HMM-beads/Images/WhiteBeadChoiceCorrect.png","","","","","","","","","",""
"image-keyboard-response","253","363692","0.0-3.0-6.0-1.0-0.39","663f728e1e100a73c8b4bac0","6662009ae78f21dd82fcd179","666209ad0eda9a70e4593856","59","","j","","","","","","","","./tasks/HMM-beads/Images/NewTrialWC.png","lowH","1","39","1","1","1","1","true","",""
"image-keyboard-response","254","363995","0.0-3.0-6.0-1.0-1.39","663f728e1e100a73c8b4bac0","6662009ae78f21dd82fcd179","666209ad0eda9a70e4593856","null","","null","","","","","","","","./tasks/HMM-beads/Images/WhiteBeadChoice.png","","","","","","","","","",""
"image-keyboard-response","255","364498","0.0-3.0-6.0-1.0-2.39","663f728e1e100a73c8b4bac0","6662009ae78f21dd82fcd179","666209ad0eda9a70e4593856","null","","null","","","","","","","","./tasks/HMM-beads/Images/WhiteBeadChoiceCorrect.png","","","","","","","","","",""
"image-keyboard-response","256","364622","0.0-3.0-6.0-1.0-0.40","663f728e1e100a73c8b4bac0","6662009ae78f21dd82fcd179","666209ad0eda9a70e4593856","122","","j","","","","","","","","./tasks/HMM-beads/Images/NewTrialWC.png","lowH","1","40","1","1","1","1","true","",""
"image-keyboard-response","257","364925","0.0-3.0-6.0-1.0-1.40","663f728e1e100a73c8b4bac0","6662009ae78f21dd82fcd179","666209ad0eda9a70e4593856","null","","null","","","","","","","","./tasks/HMM-beads/Images/WhiteBeadChoice.png","","","","","","","","","",""
"image-keyboard-response","258","365428","0.0-3.0-6.0-1.0-2.40","663f728e1e100a73c8b4bac0","6662009ae78f21dd82fcd179","666209ad0eda9a70e4593856","null","","null","","","","","","","","./tasks/HMM-beads/Images/WhiteBeadChoiceCorrect.png","","","","","","","","","",""
"image-keyboard-response","259","365507","0.0-3.0-6.0-1.0-0.41","663f728e1e100a73c8b4bac0","6662009ae78f21dd82fcd179","666209ad0eda9a70e4593856","77","","j","","","","","","","","./tasks/HMM-beads/Images/NewTrialWC.png","lowH","1","41","1","1","1","1","true","",""
"image-keyboard-response","260","365809","0.0-3.0-6.0-1.0-1.41","663f728e1e100a73c8b4bac0","6662009ae78f21dd82fcd179","666209ad0eda9a70e4593856","null","","null","","","","","","","","./tasks/HMM-beads/Images/WhiteBeadChoice.png","","","","","","","","","",""
"image-keyboard-response","261","366312","0.0-3.0-6.0-1.0-2.41","663f728e1e100a73c8b4bac0","6662009ae78f21dd82fcd179","666209ad0eda9a70e4593856","null","","null","","","","","","","","./tasks/HMM-beads/Images/WhiteBeadChoiceCorrect.png","","","","","","","","","",""
"image-keyboard-response","262","366422","0.0-3.0-6.0-1.0-0.42","663f728e1e100a73c8b4bac0","6662009ae78f21dd82fcd179","666209ad0eda9a70e4593856","108","","j","","","","","","","","./tasks/HMM-beads/Images/NewTrialWC.png","lowH","1","42","1","1","1","1","true","",""
"image-keyboard-response","263","366724","0.0-3.0-6.0-1.0-1.42","663f728e1e100a73c8b4bac0","6662009ae78f21dd82fcd179","666209ad0eda9a70e4593856","null","","null","","","","","","","","./tasks/HMM-beads/Images/WhiteBeadChoice.png","","","","","","","","","",""
"image-keyboard-response","264","367228","0.0-3.0-6.0-1.0-2.42","663f728e1e100a73c8b4bac0","6662009ae78f21dd82fcd179","666209ad0eda9a70e4593856","null","","null","","","","","","","","./tasks/HMM-beads/Images/WhiteBeadChoiceCorrect.png","","","","","","","","","",""
"image-keyboard-response","265","367504","0.0-3.0-6.0-1.0-0.43","663f728e1e100a73c8b4bac0","6662009ae78f21dd82fcd179","666209ad0eda9a70e4593856","274","","j","","","","","","","","./tasks/HMM-beads/Images/NewTrialWC.png","lowH","1","43","1","1","1","1","true","",""
"image-keyboard-response","266","367807","0.0-3.0-6.0-1.0-1.43","663f728e1e100a73c8b4bac0","6662009ae78f21dd82fcd179","666209ad0eda9a70e4593856","null","","null","","","","","","","","./tasks/HMM-beads/Images/WhiteBeadChoice.png","","","","","","","","","",""
"image-keyboard-response","267","368310","0.0-3.0-6.0-1.0-2.43","663f728e1e100a73c8b4bac0","6662009ae78f21dd82fcd179","666209ad0eda9a70e4593856","null","","null","","","","","","","","./tasks/HMM-beads/Images/WhiteBeadChoiceCorrect.png","","","","","","","","","",""
"image-keyboard-response","268","368553","0.0-3.0-6.0-1.0-0.44","663f728e1e100a73c8b4bac0","6662009ae78f21dd82fcd179","666209ad0eda9a70e4593856","241","","j","","","","","","","","./tasks/HMM-beads/Images/NewTrialWC.png","lowH","1","44","1","1","1","1","true","",""
"image-keyboard-response","269","368856","0.0-3.0-6.0-1.0-1.44","663f728e1e100a73c8b4bac0","6662009ae78f21dd82fcd179","666209ad0eda9a70e4593856","null","","null","","","","","","","","./tasks/HMM-beads/Images/WhiteBeadChoice.png","","","","","","","","","",""
"image-keyboard-response","270","369360","0.0-3.0-6.0-1.0-2.44","663f728e1e100a73c8b4bac0","6662009ae78f21dd82fcd179","666209ad0eda9a70e4593856","null","","null","","","","","","","","./tasks/HMM-beads/Images/WhiteBeadChoiceCorrect.png","","","","","","","","","",""
"image-keyboard-response","271","369542","0.0-3.0-6.0-1.0-0.45","663f728e1e100a73c8b4bac0","6662009ae78f21dd82fcd179","666209ad0eda9a70e4593856","181","","j","","","","","","","","./tasks/HMM-beads/Images/NewTrialWC.png","lowH","1","45","1","1","1","1","true","",""
"image-keyboard-response","272","369845","0.0-3.0-6.0-1.0-1.45","663f728e1e100a73c8b4bac0","6662009ae78f21dd82fcd179","666209ad0eda9a70e4593856","null","","null","","","","","","","","./tasks/HMM-beads/Images/WhiteBeadChoice.png","","","","","","","","","",""
"image-keyboard-response","273","370349","0.0-3.0-6.0-1.0-2.45","663f728e1e100a73c8b4bac0","6662009ae78f21dd82fcd179","666209ad0eda9a70e4593856","null","","null","","","","","","","","./tasks/HMM-beads/Images/WhiteBeadChoiceCorrect.png","","","","","","","","","",""
"image-keyboard-response","274","370561","0.0-3.0-6.0-1.0-0.46","663f728e1e100a73c8b4bac0","6662009ae78f21dd82fcd179","666209ad0eda9a70e4593856","212","","j","","","","","","","","./tasks/HMM-beads/Images/NewTrialWC.png","lowH","1","46","1","1","1","1","true","",""
"image-keyboard-response","275","370863","0.0-3.0-6.0-1.0-1.46","663f728e1e100a73c8b4bac0","6662009ae78f21dd82fcd179","666209ad0eda9a70e4593856","null","","null","","","","","","","","./tasks/HMM-beads/Images/WhiteBeadChoice.png","","","","","","","","","",""
"image-keyboard-response","276","371366","0.0-3.0-6.0-1.0-2.46","663f728e1e100a73c8b4bac0","6662009ae78f21dd82fcd179","666209ad0eda9a70e4593856","null","","null","","","","","","","","./tasks/HMM-beads/Images/WhiteBeadChoiceCorrect.png","","","","","","","","","",""
"image-keyboard-response","277","371522","0.0-3.0-6.0-1.0-0.47","663f728e1e100a73c8b4bac0","6662009ae78f21dd82fcd179","666209ad0eda9a70e4593856","155","","j","","","","","","","","./tasks/HMM-beads/Images/NewTrialWC.png","lowH","1","47","1","0","1","1","false","",""
"image-keyboard-response","278","371826","0.0-3.0-6.0-1.0-1.47","663f728e1e100a73c8b4bac0","6662009ae78f21dd82fcd179","666209ad0eda9a70e4593856","null","","null","","","","","","","","./tasks/HMM-beads/Images/WhiteBeadChoice.png","","","","","","","","","",""
"image-keyboard-response","279","372328","0.0-3.0-6.0-1.0-2.47","663f728e1e100a73c8b4bac0","6662009ae78f21dd82fcd179","666209ad0eda9a70e4593856","null","","null","","","","","","","","./tasks/HMM-beads/Images/WhiteBeadChoiceWrong.png","","","","","","","","","",""
"image-keyboard-response","280","372467","0.0-3.0-6.0-1.0-0.48","663f728e1e100a73c8b4bac0","6662009ae78f21dd82fcd179","666209ad0eda9a70e4593856","138","","j","","","","","","","","./tasks/HMM-beads/Images/NewTrialBC.png","lowH","1","48","1","0","0","1","false","",""
"image-keyboard-response","281","372770","0.0-3.0-6.0-1.0-1.48","663f728e1e100a73c8b4bac0","6662009ae78f21dd82fcd179","666209ad0eda9a70e4593856","null","","null","","","","","","","","./tasks/HMM-beads/Images/WhiteBeadChoice.png","","","","","","","","","",""
"image-keyboard-response","282","373273","0.0-3.0-6.0-1.0-2.48","663f728e1e100a73c8b4bac0","6662009ae78f21dd82fcd179","666209ad0eda9a70e4593856","null","","null","","","","","","","","./tasks/HMM-beads/Images/WhiteBeadChoiceWrong.png","","","","","","","","","",""
"image-keyboard-response","283","373412","0.0-3.0-6.0-1.0-0.49","663f728e1e100a73c8b4bac0","6662009ae78f21dd82fcd179","666209ad0eda9a70e4593856","138","","j","","","","","","","","./tasks/HMM-beads/Images/NewTrialBC.png","lowH","1","49","1","0","0","1","false","",""
"image-keyboard-response","284","373715","0.0-3.0-6.0-1.0-1.49","663f728e1e100a73c8b4bac0","6662009ae78f21dd82fcd179","666209ad0eda9a70e4593856","null","","null","","","","","","","","./tasks/HMM-beads/Images/WhiteBeadChoice.png","","","","","","","","","",""
"image-keyboard-response","285","374218","0.0-3.0-6.0-1.0-2.49","663f728e1e100a73c8b4bac0","6662009ae78f21dd82fcd179","666209ad0eda9a70e4593856","null","","null","","","","","","","","./tasks/HMM-beads/Images/WhiteBeadChoiceWrong.png","","","","","","","","","",""
"image-keyboard-response","286","374282","0.0-3.0-6.0-1.0-0.50","663f728e1e100a73c8b4bac0","6662009ae78f21dd82fcd179","666209ad0eda9a70e4593856","62","","f","","","","","","","","./tasks/HMM-beads/Images/NewTrialBC.png","lowH","1","50","1","1","0","0","false","",""
"image-keyboard-response","287","374585","0.0-3.0-6.0-1.0-1.50","663f728e1e100a73c8b4bac0","6662009ae78f21dd82fcd179","666209ad0eda9a70e4593856","null","","null","","","","","","","","./tasks/HMM-beads/Images/BlackBeadChoice.png","","","","","","","","","",""
"image-keyboard-response","288","375088","0.0-3.0-6.0-1.0-2.50","663f728e1e100a73c8b4bac0","6662009ae78f21dd82fcd179","666209ad0eda9a70e4593856","null","","null","","","","","","","","./tasks/HMM-beads/Images/BlackBeadChoiceWrong.png","","","","","","","","","",""
"image-keyboard-response","289","375186","0.0-3.0-6.0-1.0-0.51","663f728e1e100a73c8b4bac0","6662009ae78f21dd82fcd179","666209ad0eda9a70e4593856","97","","f","","","","","","","","./tasks/HMM-beads/Images/NewTrialWC.png","lowH","1","51","1","1","1","0","false","",""
"image-keyboard-response","290","375489","0.0-3.0-6.0-1.0-1.51","663f728e1e100a73c8b4bac0","6662009ae78f21dd82fcd179","666209ad0eda9a70e4593856","null","","null","","","","","","","","./tasks/HMM-beads/Images/BlackBeadChoice.png","","","","","","","","","",""
"image-keyboard-response","291","375993","0.0-3.0-6.0-1.0-2.51","663f728e1e100a73c8b4bac0","6662009ae78f21dd82fcd179","666209ad0eda9a70e4593856","null","","null","","","","","","","","./tasks/HMM-beads/Images/BlackBeadChoiceWrong.png","","","","","","","","","",""
"image-keyboard-response","292","376082","0.0-3.0-6.0-1.0-0.52","663f728e1e100a73c8b4bac0","6662009ae78f21dd82fcd179","666209ad0eda9a70e4593856","87","","f","","","","","","","","./tasks/HMM-beads/Images/NewTrialWC.png","lowH","1","52","1","1","1","0","false","",""
"image-keyboard-response","293","376385","0.0-3.0-6.0-1.0-1.52","663f728e1e100a73c8b4bac0","6662009ae78f21dd82fcd179","666209ad0eda9a70e4593856","null","","null","","","","","","","","./tasks/HMM-beads/Images/BlackBeadChoice.png","","","","","","","","","",""
"image-keyboard-response","294","376888","0.0-3.0-6.0-1.0-2.52","663f728e1e100a73c8b4bac0","6662009ae78f21dd82fcd179","666209ad0eda9a70e4593856","null","","null","","","","","","","","./tasks/HMM-beads/Images/BlackBeadChoiceWrong.png","","","","","","","","","",""
"image-keyboard-response","295","377492","0.0-3.0-6.0-1.0-0.53","663f728e1e100a73c8b4bac0","6662009ae78f21dd82fcd179","666209ad0eda9a70e4593856","603","","j","","","","","","","","./tasks/HMM-beads/Images/NewTrialWC.png","lowH","1","53","1","1","1","1","true","",""
"image-keyboard-response","296","377796","0.0-3.0-6.0-1.0-1.53","663f728e1e100a73c8b4bac0","6662009ae78f21dd82fcd179","666209ad0eda9a70e4593856","null","","null","","","","","","","","./tasks/HMM-beads/Images/WhiteBeadChoice.png","","","","","","","","","",""
"image-keyboard-response","297","378298","0.0-3.0-6.0-1.0-2.53","663f728e1e100a73c8b4bac0","6662009ae78f21dd82fcd179","666209ad0eda9a70e4593856","null","","null","","","","","","","","./tasks/HMM-beads/Images/WhiteBeadChoiceCorrect.png","","","","","","","","","",""
"image-keyboard-response","298","378363","0.0-3.0-6.0-1.0-0.54","663f728e1e100a73c8b4bac0","6662009ae78f21dd82fcd179","666209ad0eda9a70e4593856","63","","j","","","","","","","","./tasks/HMM-beads/Images/NewTrialWC.png","lowH","1","54","1","1","1","1","true","",""
"image-keyboard-response","299","378667","0.0-3.0-6.0-1.0-1.54","663f728e1e100a73c8b4bac0","6662009ae78f21dd82fcd179","666209ad0eda9a70e4593856","null","","null","","","","","","","","./tasks/HMM-beads/Images/WhiteBeadChoice.png","","","","","","","","","",""
"image-keyboard-response","300","379170","0.0-3.0-6.0-1.0-2.54","663f728e1e100a73c8b4bac0","6662009ae78f21dd82fcd179","666209ad0eda9a70e4593856","null","","null","","","","","","","","./tasks/HMM-beads/Images/WhiteBeadChoiceCorrect.png","","","","","","","","","",""
"image-keyboard-response","301","379232","0.0-3.0-6.0-1.0-0.55","663f728e1e100a73c8b4bac0","6662009ae78f21dd82fcd179","666209ad0eda9a70e4593856","60","","j","","","","","","","","./tasks/HMM-beads/Images/NewTrialWC.png","lowH","1","55","1","1","1","1","true","",""
"image-keyboard-response","302","379536","0.0-3.0-6.0-1.0-1.55","663f728e1e100a73c8b4bac0","6662009ae78f21dd82fcd179","666209ad0eda9a70e4593856","null","","null","","","","","","","","./tasks/HMM-beads/Images/WhiteBeadChoice.png","","","","","","","","","",""
"image-keyboard-response","303","380040","0.0-3.0-6.0-1.0-2.55","663f728e1e100a73c8b4bac0","6662009ae78f21dd82fcd179","666209ad0eda9a70e4593856","null","","null","","","","","","","","./tasks/HMM-beads/Images/WhiteBeadChoiceCorrect.png","","","","","","","","","",""
"image-keyboard-response","304","380042","0.0-3.0-6.0-1.0-0.56","663f728e1e100a73c8b4bac0","6662009ae78f21dd82fcd179","666209ad0eda9a70e4593856","1","","j","","","","","","","","./tasks/HMM-beads/Images/NewTrialWC.png","lowH","1","56","1","1","1","1","true","",""
"image-keyboard-response","305","380345","0.0-3.0-6.0-1.0-1.56","663f728e1e100a73c8b4bac0","6662009ae78f21dd82fcd179","666209ad0eda9a70e4593856","null","","null","","","","","","","","./tasks/HMM-beads/Images/WhiteBeadChoice.png","","","","","","","","","",""
"image-keyboard-response","306","380848","0.0-3.0-6.0-1.0-2.56","663f728e1e100a73c8b4bac0","6662009ae78f21dd82fcd179","666209ad0eda9a70e4593856","null","","null","","","","","","","","./tasks/HMM-beads/Images/WhiteBeadChoiceCorrect.png","","","","","","","","","",""
"image-keyboard-response","307","381392","0.0-3.0-6.0-1.0-0.57","663f728e1e100a73c8b4bac0","6662009ae78f21dd82fcd179","666209ad0eda9a70e4593856","542","","j","","","","","","","","./tasks/HMM-beads/Images/NewTrialWC.png","lowH","1","57","1","1","1","1","true","",""
"image-keyboard-response","308","381695","0.0-3.0-6.0-1.0-1.57","663f728e1e100a73c8b4bac0","6662009ae78f21dd82fcd179","666209ad0eda9a70e4593856","null","","null","","","","","","","","./tasks/HMM-beads/Images/WhiteBeadChoice.png","","","","","","","","","",""
"image-keyboard-response","309","382198","0.0-3.0-6.0-1.0-2.57","663f728e1e100a73c8b4bac0","6662009ae78f21dd82fcd179","666209ad0eda9a70e4593856","null","","null","","","","","","","","./tasks/HMM-beads/Images/WhiteBeadChoiceCorrect.png","","","","","","","","","",""
"image-keyboard-response","310","382471","0.0-3.0-6.0-1.0-0.58","663f728e1e100a73c8b4bac0","6662009ae78f21dd82fcd179","666209ad0eda9a70e4593856","271","","j","","","","","","","","./tasks/HMM-beads/Images/NewTrialWC.png","lowH","1","58","1","1","1","1","true","",""
"image-keyboard-response","311","382774","0.0-3.0-6.0-1.0-1.58","663f728e1e100a73c8b4bac0","6662009ae78f21dd82fcd179","666209ad0eda9a70e4593856","null","","null","","","","","","","","./tasks/HMM-beads/Images/WhiteBeadChoice.png","","","","","","","","","",""
"image-keyboard-response","312","383277","0.0-3.0-6.0-1.0-2.58","663f728e1e100a73c8b4bac0","6662009ae78f21dd82fcd179","666209ad0eda9a70e4593856","null","","null","","","","","","","","./tasks/HMM-beads/Images/WhiteBeadChoiceCorrect.png","","","","","","","","","",""
"image-keyboard-response","313","383462","0.0-3.0-6.0-1.0-0.59","663f728e1e100a73c8b4bac0","6662009ae78f21dd82fcd179","666209ad0eda9a70e4593856","183","","j","","","","","","","","./tasks/HMM-beads/Images/NewTrialWC.png","lowH","1","59","1","0","1","1","false","",""
"image-keyboard-response","314","383765","0.0-3.0-6.0-1.0-1.59","663f728e1e100a73c8b4bac0","6662009ae78f21dd82fcd179","666209ad0eda9a70e4593856","null","","null","","","","","","","","./tasks/HMM-beads/Images/WhiteBeadChoice.png","","","","","","","","","",""
"image-keyboard-response","315","384268","0.0-3.0-6.0-1.0-2.59","663f728e1e100a73c8b4bac0","6662009ae78f21dd82fcd179","666209ad0eda9a70e4593856","null","","null","","","","","","","","./tasks/HMM-beads/Images/WhiteBeadChoiceWrong.png","","","","","","","","","",""
"image-keyboard-response","316","384752","0.0-3.0-6.0-1.0-0.60","663f728e1e100a73c8b4bac0","6662009ae78f21dd82fcd179","666209ad0eda9a70e4593856","483","","j","","","","","","","","./tasks/HMM-beads/Images/NewTrialBC.png","lowH","1","60","1","1","0","1","true","",""
"image-keyboard-response","317","385055","0.0-3.0-6.0-1.0-1.60","663f728e1e100a73c8b4bac0","6662009ae78f21dd82fcd179","666209ad0eda9a70e4593856","null","","null","","","","","","","","./tasks/HMM-beads/Images/WhiteBeadChoice.png","","","","","","","","","",""
"image-keyboard-response","318","385559","0.0-3.0-6.0-1.0-2.60","663f728e1e100a73c8b4bac0","6662009ae78f21dd82fcd179","666209ad0eda9a70e4593856","null","","null","","","","","","","","./tasks/HMM-beads/Images/WhiteBeadChoiceCorrect.png","","","","","","","","","",""
"image-keyboard-response","319","385686","0.0-3.0-6.0-1.0-0.61","663f728e1e100a73c8b4bac0","6662009ae78f21dd82fcd179","666209ad0eda9a70e4593856","126","","j","","","","","","","","./tasks/HMM-beads/Images/NewTrialWC.png","lowH","1","61","1","1","1","1","true","",""
"image-keyboard-response","320","385989","0.0-3.0-6.0-1.0-1.61","663f728e1e100a73c8b4bac0","6662009ae78f21dd82fcd179","666209ad0eda9a70e4593856","null","","null","","","","","","","","./tasks/HMM-beads/Images/WhiteBeadChoice.png","","","","","","","","","",""
"image-keyboard-response","321","386493","0.0-3.0-6.0-1.0-2.61","663f728e1e100a73c8b4bac0","6662009ae78f21dd82fcd179","666209ad0eda9a70e4593856","null","","null","","","","","","","","./tasks/HMM-beads/Images/WhiteBeadChoiceCorrect.png","","","","","","","","","",""
"image-keyboard-response","322","386613","0.0-3.0-6.0-1.0-0.62","663f728e1e100a73c8b4bac0","6662009ae78f21dd82fcd179","666209ad0eda9a70e4593856","119","","j","","","","","","","","./tasks/HMM-beads/Images/NewTrialWC.png","lowH","1","62","1","0","1","1","false","",""
"image-keyboard-response","323","386915","0.0-3.0-6.0-1.0-1.62","663f728e1e100a73c8b4bac0","6662009ae78f21dd82fcd179","666209ad0eda9a70e4593856","null","","null","","","","","","","","./tasks/HMM-beads/Images/WhiteBeadChoice.png","","","","","","","","","",""
"image-keyboard-response","324","387418","0.0-3.0-6.0-1.0-2.62","663f728e1e100a73c8b4bac0","6662009ae78f21dd82fcd179","666209ad0eda9a70e4593856","null","","null","","","","","","","","./tasks/HMM-beads/Images/WhiteBeadChoiceWrong.png","","","","","","","","","",""
"image-keyboard-response","325","387632","0.0-3.0-6.0-1.0-0.63","663f728e1e100a73c8b4bac0","6662009ae78f21dd82fcd179","666209ad0eda9a70e4593856","214","","j","","","","","","","","./tasks/HMM-beads/Images/NewTrialBC.png","lowH","1","63","1","1","0","1","true","",""
"image-keyboard-response","326","387935","0.0-3.0-6.0-1.0-1.63","663f728e1e100a73c8b4bac0","6662009ae78f21dd82fcd179","666209ad0eda9a70e4593856","null","","null","","","","","","","","./tasks/HMM-beads/Images/WhiteBeadChoice.png","","","","","","","","","",""
"image-keyboard-response","327","388438","0.0-3.0-6.0-1.0-2.63","663f728e1e100a73c8b4bac0","6662009ae78f21dd82fcd179","666209ad0eda9a70e4593856","null","","null","","","","","","","","./tasks/HMM-beads/Images/WhiteBeadChoiceCorrect.png","","","","","","","","","",""
"image-keyboard-response","328","388652","0.0-3.0-6.0-1.0-0.64","663f728e1e100a73c8b4bac0","6662009ae78f21dd82fcd179","666209ad0eda9a70e4593856","212","","j","","","","","","","","./tasks/HMM-beads/Images/NewTrialWC.png","lowH","1","64","1","1","1","1","true","",""
"image-keyboard-response","329","388955","0.0-3.0-6.0-1.0-1.64","663f728e1e100a73c8b4bac0","6662009ae78f21dd82fcd179","666209ad0eda9a70e4593856","null","","null","","","","","","","","./tasks/HMM-beads/Images/WhiteBeadChoice.png","","","","","","","","","",""
"image-keyboard-response","330","389458","0.0-3.0-6.0-1.0-2.64","663f728e1e100a73c8b4bac0","6662009ae78f21dd82fcd179","666209ad0eda9a70e4593856","null","","null","","","","","","","","./tasks/HMM-beads/Images/WhiteBeadChoiceCorrect.png","","","","","","","","","",""
"image-keyboard-response","331","389582","0.0-3.0-6.0-1.0-0.65","663f728e1e100a73c8b4bac0","6662009ae78f21dd82fcd179","666209ad0eda9a70e4593856","122","","j","","","","","","","","./tasks/HMM-beads/Images/NewTrialWC.png","lowH","1","65","1","1","1","1","true","",""
"image-keyboard-response","332","389886","0.0-3.0-6.0-1.0-1.65","663f728e1e100a73c8b4bac0","6662009ae78f21dd82fcd179","666209ad0eda9a70e4593856","null","","null","","","","","","","","./tasks/HMM-beads/Images/WhiteBeadChoice.png","","","","","","","","","",""
"image-keyboard-response","333","390389","0.0-3.0-6.0-1.0-2.65","663f728e1e100a73c8b4bac0","6662009ae78f21dd82fcd179","666209ad0eda9a70e4593856","null","","null","","","","","","","","./tasks/HMM-beads/Images/WhiteBeadChoiceCorrect.png","","","","","","","","","",""
"image-keyboard-response","334","390511","0.0-3.0-6.0-1.0-0.66","663f728e1e100a73c8b4bac0","6662009ae78f21dd82fcd179","666209ad0eda9a70e4593856","121","","j","","","","","","","","./tasks/HMM-beads/Images/NewTrialWC.png","lowH","1","66","1","1","1","1","true","",""
"image-keyboard-response","335","390813","0.0-3.0-6.0-1.0-1.66","663f728e1e100a73c8b4bac0","6662009ae78f21dd82fcd179","666209ad0eda9a70e4593856","null","","null","","","","","","","","./tasks/HMM-beads/Images/WhiteBeadChoice.png","","","","","","","","","",""
"image-keyboard-response","336","391315","0.0-3.0-6.0-1.0-2.66","663f728e1e100a73c8b4bac0","6662009ae78f21dd82fcd179","666209ad0eda9a70e4593856","null","","null","","","","","","","","./tasks/HMM-beads/Images/WhiteBeadChoiceCorrect.png","","","","","","","","","",""
"image-keyboard-response","337","391442","0.0-3.0-6.0-1.0-0.67","663f728e1e100a73c8b4bac0","6662009ae78f21dd82fcd179","666209ad0eda9a70e4593856","125","","j","","","","","","","","./tasks/HMM-beads/Images/NewTrialWC.png","lowH","1","67","1","0","1","1","false","",""
"image-keyboard-response","338","391746","0.0-3.0-6.0-1.0-1.67","663f728e1e100a73c8b4bac0","6662009ae78f21dd82fcd179","666209ad0eda9a70e4593856","null","","null","","","","","","","","./tasks/HMM-beads/Images/WhiteBeadChoice.png","","","","","","","","","",""
"image-keyboard-response","339","392248","0.0-3.0-6.0-1.0-2.67","663f728e1e100a73c8b4bac0","6662009ae78f21dd82fcd179","666209ad0eda9a70e4593856","null","","null","","","","","","","","./tasks/HMM-beads/Images/WhiteBeadChoiceWrong.png","","","","","","","","","",""
"image-keyboard-response","340","392430","0.0-3.0-6.0-1.0-0.68","663f728e1e100a73c8b4bac0","6662009ae78f21dd82fcd179","666209ad0eda9a70e4593856","181","","j","","","","","","","","./tasks/HMM-beads/Images/NewTrialBC.png","lowH","1","68","1","1","0","1","true","",""
"image-keyboard-response","341","392733","0.0-3.0-6.0-1.0-1.68","663f728e1e100a73c8b4bac0","6662009ae78f21dd82fcd179","666209ad0eda9a70e4593856","null","","null","","","","","","","","./tasks/HMM-beads/Images/WhiteBeadChoice.png","","","","","","","","","",""
"image-keyboard-response","342","393236","0.0-3.0-6.0-1.0-2.68","663f728e1e100a73c8b4bac0","6662009ae78f21dd82fcd179","666209ad0eda9a70e4593856","null","","null","","","","","","","","./tasks/HMM-beads/Images/WhiteBeadChoiceCorrect.png","","","","","","","","","",""
"image-keyboard-response","343","393362","0.0-3.0-6.0-1.0-0.69","663f728e1e100a73c8b4bac0","6662009ae78f21dd82fcd179","666209ad0eda9a70e4593856","125","","j","","","","","","","","./tasks/HMM-beads/Images/NewTrialWC.png","lowH","1","69","0","1","1","1","true","",""
"image-keyboard-response","344","393666","0.0-3.0-6.0-1.0-1.69","663f728e1e100a73c8b4bac0","6662009ae78f21dd82fcd179","666209ad0eda9a70e4593856","null","","null","","","","","","","","./tasks/HMM-beads/Images/WhiteBeadChoice.png","","","","","","","","","",""
"image-keyboard-response","345","394169","0.0-3.0-6.0-1.0-2.69","663f728e1e100a73c8b4bac0","6662009ae78f21dd82fcd179","666209ad0eda9a70e4593856","null","","null","","","","","","","","./tasks/HMM-beads/Images/WhiteBeadChoiceCorrect.png","","","","","","","","","",""
"image-keyboard-response","346","394247","0.0-3.0-6.0-1.0-0.70","663f728e1e100a73c8b4bac0","6662009ae78f21dd82fcd179","666209ad0eda9a70e4593856","76","","j","","","","","","","","./tasks/HMM-beads/Images/NewTrialWC.png","lowH","1","70","0","1","1","1","true","",""
"image-keyboard-response","347","394550","0.0-3.0-6.0-1.0-1.70","663f728e1e100a73c8b4bac0","6662009ae78f21dd82fcd179","666209ad0eda9a70e4593856","null","","null","","","","","","","","./tasks/HMM-beads/Images/WhiteBeadChoice.png","","","","","","","","","",""
"image-keyboard-response","348","395054","0.0-3.0-6.0-1.0-2.70","663f728e1e100a73c8b4bac0","6662009ae78f21dd82fcd179","666209ad0eda9a70e4593856","null","","null","","","","","","","","./tasks/HMM-beads/Images/WhiteBeadChoiceCorrect.png","","","","","","","","","",""
"image-keyboard-response","349","395101","0.0-3.0-6.0-1.0-0.71","663f728e1e100a73c8b4bac0","6662009ae78f21dd82fcd179","666209ad0eda9a70e4593856","45","","j","","","","","","","","./tasks/HMM-beads/Images/NewTrialWC.png","lowH","1","71","0","0","1","1","false","",""
"image-keyboard-response","350","395403","0.0-3.0-6.0-1.0-1.71","663f728e1e100a73c8b4bac0","6662009ae78f21dd82fcd179","666209ad0eda9a70e4593856","null","","null","","","","","","","","./tasks/HMM-beads/Images/WhiteBeadChoice.png","","","","","","","","","",""
"image-keyboard-response","351","395907","0.0-3.0-6.0-1.0-2.71","663f728e1e100a73c8b4bac0","6662009ae78f21dd82fcd179","666209ad0eda9a70e4593856","null","","null","","","","","","","","./tasks/HMM-beads/Images/WhiteBeadChoiceWrong.png","","","","","","","","","",""
"image-keyboard-response","352","396152","0.0-3.0-6.0-1.0-0.72","663f728e1e100a73c8b4bac0","6662009ae78f21dd82fcd179","666209ad0eda9a70e4593856","244","","j","","","","","","","","./tasks/HMM-beads/Images/NewTrialBC.png","lowH","1","72","0","0","0","1","false","",""
"image-keyboard-response","353","396455","0.0-3.0-6.0-1.0-1.72","663f728e1e100a73c8b4bac0","6662009ae78f21dd82fcd179","666209ad0eda9a70e4593856","null","","null","","","","","","","","./tasks/HMM-beads/Images/WhiteBeadChoice.png","","","","","","","","","",""
"image-keyboard-response","354","396959","0.0-3.0-6.0-1.0-2.72","663f728e1e100a73c8b4bac0","6662009ae78f21dd82fcd179","666209ad0eda9a70e4593856","null","","null","","","","","","","","./tasks/HMM-beads/Images/WhiteBeadChoiceWrong.png","","","","","","","","","",""
"image-keyboard-response","355","397052","0.0-3.0-6.0-1.0-0.73","663f728e1e100a73c8b4bac0","6662009ae78f21dd82fcd179","666209ad0eda9a70e4593856","92","","f","","","","","","","","./tasks/HMM-beads/Images/NewTrialBC.png","lowH","1","73","0","1","0","0","false","",""
"image-keyboard-response","356","397355","0.0-3.0-6.0-1.0-1.73","663f728e1e100a73c8b4bac0","6662009ae78f21dd82fcd179","666209ad0eda9a70e4593856","null","","null","","","","","","","","./tasks/HMM-beads/Images/BlackBeadChoice.png","","","","","","","","","",""
"image-keyboard-response","357","397858","0.0-3.0-6.0-1.0-2.73","663f728e1e100a73c8b4bac0","6662009ae78f21dd82fcd179","666209ad0eda9a70e4593856","null","","null","","","","","","","","./tasks/HMM-beads/Images/BlackBeadChoiceWrong.png","","","","","","","","","",""
"image-keyboard-response","358","398133","0.0-3.0-6.0-1.0-0.74","663f728e1e100a73c8b4bac0","6662009ae78f21dd82fcd179","666209ad0eda9a70e4593856","273","","f","","","","","","","","./tasks/HMM-beads/Images/NewTrialWC.png","lowH","1","74","0","0","1","0","true","",""
"image-keyboard-response","359","398436","0.0-3.0-6.0-1.0-1.74","663f728e1e100a73c8b4bac0","6662009ae78f21dd82fcd179","666209ad0eda9a70e4593856","null","","null","","","","","","","","./tasks/HMM-beads/Images/BlackBeadChoice.png","","","","","","","","","",""
"image-keyboard-response","360","398940","0.0-3.0-6.0-1.0-2.74","663f728e1e100a73c8b4bac0","6662009ae78f21dd82fcd179","666209ad0eda9a70e4593856","null","","null","","","","","","","","./tasks/HMM-beads/Images/BlackBeadChoiceCorrect.png","","","","","","","","","",""
"image-keyboard-response","361","399123","0.0-3.0-6.0-1.0-0.75","663f728e1e100a73c8b4bac0","6662009ae78f21dd82fcd179","666209ad0eda9a70e4593856","181","","f","","","","","","","","./tasks/HMM-beads/Images/NewTrialBC.png","lowH","1","75","0","1","0","0","false","",""
"image-keyboard-response","362","399426","0.0-3.0-6.0-1.0-1.75","663f728e1e100a73c8b4bac0","6662009ae78f21dd82fcd179","666209ad0eda9a70e4593856","null","","null","","","","","","","","./tasks/HMM-beads/Images/BlackBeadChoice.png","","","","","","","","","",""
"image-keyboard-response","363","399929","0.0-3.0-6.0-1.0-2.75","663f728e1e100a73c8b4bac0","6662009ae78f21dd82fcd179","666209ad0eda9a70e4593856","null","","null","","","","","","","","./tasks/HMM-beads/Images/BlackBeadChoiceWrong.png","","","","","","","","","",""
"image-keyboard-response","364","400082","0.0-3.0-6.0-1.0-0.76","663f728e1e100a73c8b4bac0","6662009ae78f21dd82fcd179","666209ad0eda9a70e4593856","151","","j","","","","","","","","./tasks/HMM-beads/Images/NewTrialWC.png","lowH","1","76","0","1","1","1","true","",""
"image-keyboard-response","365","400385","0.0-3.0-6.0-1.0-1.76","663f728e1e100a73c8b4bac0","6662009ae78f21dd82fcd179","666209ad0eda9a70e4593856","null","","null","","","","","","","","./tasks/HMM-beads/Images/WhiteBeadChoice.png","","","","","","","","","",""
"image-keyboard-response","366","400889","0.0-3.0-6.0-1.0-2.76","663f728e1e100a73c8b4bac0","6662009ae78f21dd82fcd179","666209ad0eda9a70e4593856","null","","null","","","","","","","","./tasks/HMM-beads/Images/WhiteBeadChoiceCorrect.png","","","","","","","","","",""
"image-keyboard-response","367","400951","0.0-3.0-6.0-1.0-0.77","663f728e1e100a73c8b4bac0","6662009ae78f21dd82fcd179","666209ad0eda9a70e4593856","61","","j","","","","","","","","./tasks/HMM-beads/Images/NewTrialWC.png","lowH","1","77","0","0","1","1","false","",""
"image-keyboard-response","368","401254","0.0-3.0-6.0-1.0-1.77","663f728e1e100a73c8b4bac0","6662009ae78f21dd82fcd179","666209ad0eda9a70e4593856","null","","null","","","","","","","","./tasks/HMM-beads/Images/WhiteBeadChoice.png","","","","","","","","","",""
"image-keyboard-response","369","401758","0.0-3.0-6.0-1.0-2.77","663f728e1e100a73c8b4bac0","6662009ae78f21dd82fcd179","666209ad0eda9a70e4593856","null","","null","","","","","","","","./tasks/HMM-beads/Images/WhiteBeadChoiceWrong.png","","","","","","","","","",""
"image-keyboard-response","370","401942","0.0-3.0-6.0-1.0-0.78","663f728e1e100a73c8b4bac0","6662009ae78f21dd82fcd179","666209ad0eda9a70e4593856","182","","j","","","","","","","","./tasks/HMM-beads/Images/NewTrialBC.png","lowH","1","78","0","0","0","1","false","",""
"image-keyboard-response","371","402245","0.0-3.0-6.0-1.0-1.78","663f728e1e100a73c8b4bac0","6662009ae78f21dd82fcd179","666209ad0eda9a70e4593856","null","","null","","","","","","","","./tasks/HMM-beads/Images/WhiteBeadChoice.png","","","","","","","","","",""
"image-keyboard-response","372","402749","0.0-3.0-6.0-1.0-2.78","663f728e1e100a73c8b4bac0","6662009ae78f21dd82fcd179","666209ad0eda9a70e4593856","null","","null","","","","","","","","./tasks/HMM-beads/Images/WhiteBeadChoiceWrong.png","","","","","","","","","",""
"image-keyboard-response","373","402811","0.0-3.0-6.0-1.0-0.79","663f728e1e100a73c8b4bac0","6662009ae78f21dd82fcd179","666209ad0eda9a70e4593856","61","","f","","","","","","","","./tasks/HMM-beads/Images/NewTrialBC.png","lowH","1","79","0","0","0","0","true","",""
"image-keyboard-response","374","403114","0.0-3.0-6.0-1.0-1.79","663f728e1e100a73c8b4bac0","6662009ae78f21dd82fcd179","666209ad0eda9a70e4593856","null","","null","","","","","","","","./tasks/HMM-beads/Images/BlackBeadChoice.png","","","","","","","","","",""
