"trial_type","trial_index","time_elapsed","internal_node_id","subject_id","study_id","session_id","rt","url","response","question_order","view_history","success","timeout","failed_images","failed_audio","failed_video","stimulus","block","block_rep","trial_number","jar","bead","previous_bead","choice","correct","lowH_score","total_bonus"
"pavlovia","0","1450","0.0-0.0","615e3c6bdb7c4e8e2ee86818","6662009ae78f21dd82fcd179","666204fdeb46cbfbd2bec21c","","","","","","","","","","","","","","","","","","","","",""
"external-html","1","48210","0.0-1.0-0.0","615e3c6bdb7c4e8e2ee86818","6662009ae78f21dd82fcd179","666204fdeb46cbfbd2bec21c","46637","new_consent.html","","","","","","","","","","","","","","","","","","",""
"survey-multi-choice","2","61083","0.0-1.0-1.0","615e3c6bdb7c4e8e2ee86818","6662009ae78f21dd82fcd179","666204fdeb46cbfbd2bec21c","12870","","{""Q0"":""Male"",""Q1"":""White""}","[0,1]","","","","","","","","","","","","","","","","",""
"survey-text","3","69242","0.0-1.0-2.0","615e3c6bdb7c4e8e2ee86818","6662009ae78f21dd82fcd179","666204fdeb46cbfbd2bec21c","8155","","{""Q0"":""39""}","","","","","","","","","","","","","","","","","",""
"instructions","4","73602","0.0-2.0","615e3c6bdb7c4e8e2ee86818","6662009ae78f21dd82fcd179","666204fdeb46cbfbd2bec21c","4246","","","","[{""page_index"":0,""viewing_time"":4246}]","","","","","","","","","","","","","","","",""
"preload","5","74605","0.0-3.0-0.0","615e3c6bdb7c4e8e2ee86818","6662009ae78f21dd82fcd179","666204fdeb46cbfbd2bec21c","","","","","","true","false","[]","[]","[]","","","","","","","","","","",""
"instructions","6","167578","0.0-3.0-1.0","615e3c6bdb7c4e8e2ee86818","6662009ae78f21dd82fcd179","666204fdeb46cbfbd2bec21c","92972","","","","[{""page_index"":0,""viewing_time"":18499},{""page_index"":1,""viewing_time"":6208},{""page_index"":2,""viewing_time"":3296},{""page_index"":3,""viewing_time"":2424},{""page_index"":4,""viewing_time"":9640},{""page_index"":5,""viewing_time"":21144},{""page_index"":6,""viewing_time"":5200},{""page_index"":7,""viewing_time"":7264},{""page_index"":8,""viewing_time"":5824},{""page_index"":9,""viewing_time"":6632},{""page_index"":10,""viewing_time"":4800},{""page_index"":11,""viewing_time"":2040}]","","","","","","","","","","","","","","","",""
"html-button-response","7","170378","0.0-3.0-2.0-0.0-0.0","615e3c6bdb7c4e8e2ee86818","6662009ae78f21dd82fcd179","666204fdeb46cbfbd2bec21c","2799","","1","","","","","","","","<div align=center>Your goal is to predict…?<br><br></div>","","","","","","","","","",""
"html-button-response","8","177362","0.0-3.0-2.0-1.0-0.0","615e3c6bdb7c4e8e2ee86818","6662009ae78f21dd82fcd179","666204fdeb46cbfbd2bec21c","5247","","2","","","","","","","","<div align=center>In the jar with mostly white beads, there are ___% white beads and ___% black beads?<br><br></div>","","","","","","","","","",""
"html-button-response","9","187890","0.0-3.0-2.0-2.0-0.0","615e3c6bdb7c4e8e2ee86818","6662009ae78f21dd82fcd179","666204fdeb46cbfbd2bec21c","9319","","1","","","","","","","","<div align=center>When there is a 1% probability that the jars will switch, the next bead will most likely be drawn from the…<br><br></div>","","","","","","","","","",""
"html-button-response","10","191082","0.0-3.0-2.0-2.1-0.1","615e3c6bdb7c4e8e2ee86818","6662009ae78f21dd82fcd179","666204fdeb46cbfbd2bec21c","727","","0","","","","","","","","<div align=center>When there is a 1% probability that the jars will switch, the next bead will most likely be drawn from the…<br><br></div>","","","","","","","","","",""
"html-button-response","11","194186","0.0-3.0-2.0-3.0-0.0","615e3c6bdb7c4e8e2ee86818","6662009ae78f21dd82fcd179","666204fdeb46cbfbd2bec21c","2111","","1","","","","","","","","<div align=center>When there is a 99% probability that the jars will switch, the next bead will most likely be drawn from the…<br><br></div>","","","","","","","","","",""
"instructions","12","202769","0.0-3.0-3.0","615e3c6bdb7c4e8e2ee86818","6662009ae78f21dd82fcd179","666204fdeb46cbfbd2bec21c","7384","","","","[{""page_index"":0,""viewing_time"":7383}]","","","","","","","","","","","","","","","",""
"html-keyboard-response","13","209739","0.0-3.0-4.0-0.0","615e3c6bdb7c4e8e2ee86818","6662009ae78f21dd82fcd179","666204fdeb46cbfbd2bec21c","6969",""," ","","","","","","","","<div align=center>In this practice block, there will be a <b>1% chance</b> that the jar on the next trial will be different from the jar on the current trial.<br><br></div>","","","","","","","","","",""
"image-keyboard-response","14","213867","0.0-3.0-4.0-1.0-0.0","615e3c6bdb7c4e8e2ee86818","6662009ae78f21dd82fcd179","666204fdeb46cbfbd2bec21c","4127","","f","","","","","","","","./tasks/HMM-beads/Images/NoChoice.png","practice","0","0","0","0","9","0","true","",""
"image-keyboard-response","15","214183","0.0-3.0-4.0-1.0-1.0","615e3c6bdb7c4e8e2ee86818","6662009ae78f21dd82fcd179","666204fdeb46cbfbd2bec21c","null","","null","","","","","","","","./tasks/HMM-beads/Images/BlackBeadChoice.png","","","","","","","","","",""
"image-keyboard-response","16","214694","0.0-3.0-4.0-1.0-2.0","615e3c6bdb7c4e8e2ee86818","6662009ae78f21dd82fcd179","666204fdeb46cbfbd2bec21c","null","","null","","","","","","","","./tasks/HMM-beads/Images/BlackBeadChoiceCorrect.png","","","","","","","","","",""
"image-keyboard-response","17","215970","0.0-3.0-4.0-1.0-0.1","615e3c6bdb7c4e8e2ee86818","6662009ae78f21dd82fcd179","666204fdeb46cbfbd2bec21c","1274","","j","","","","","","","","./tasks/HMM-beads/Images/NewTrialBC.png","practice","0","1","0","0","0","1","false","",""
"image-keyboard-response","18","216284","0.0-3.0-4.0-1.0-1.1","615e3c6bdb7c4e8e2ee86818","6662009ae78f21dd82fcd179","666204fdeb46cbfbd2bec21c","null","","null","","","","","","","","./tasks/HMM-beads/Images/WhiteBeadChoice.png","","","","","","","","","",""
"image-keyboard-response","19","216795","0.0-3.0-4.0-1.0-2.1","615e3c6bdb7c4e8e2ee86818","6662009ae78f21dd82fcd179","666204fdeb46cbfbd2bec21c","null","","null","","","","","","","","./tasks/HMM-beads/Images/WhiteBeadChoiceWrong.png","","","","","","","","","",""
"image-keyboard-response","20","218250","0.0-3.0-4.0-1.0-0.2","615e3c6bdb7c4e8e2ee86818","6662009ae78f21dd82fcd179","666204fdeb46cbfbd2bec21c","1454","","j","","","","","","","","./tasks/HMM-beads/Images/NewTrialBC.png","practice","0","2","0","1","0","1","true","",""
"image-keyboard-response","21","218565","0.0-3.0-4.0-1.0-1.2","615e3c6bdb7c4e8e2ee86818","6662009ae78f21dd82fcd179","666204fdeb46cbfbd2bec21c","null","","null","","","","","","","","./tasks/HMM-beads/Images/WhiteBeadChoice.png","","","","","","","","","",""
"image-keyboard-response","22","219075","0.0-3.0-4.0-1.0-2.2","615e3c6bdb7c4e8e2ee86818","6662009ae78f21dd82fcd179","666204fdeb46cbfbd2bec21c","null","","null","","","","","","","","./tasks/HMM-beads/Images/WhiteBeadChoiceCorrect.png","","","","","","","","","",""
"image-keyboard-response","23","220090","0.0-3.0-4.0-1.0-0.3","615e3c6bdb7c4e8e2ee86818","6662009ae78f21dd82fcd179","666204fdeb46cbfbd2bec21c","1014","","f","","","","","","","","./tasks/HMM-beads/Images/NewTrialWC.png","practice","0","3","0","0","1","0","true","",""
"image-keyboard-response","24","220395","0.0-3.0-4.0-1.0-1.3","615e3c6bdb7c4e8e2ee86818","6662009ae78f21dd82fcd179","666204fdeb46cbfbd2bec21c","null","","null","","","","","","","","./tasks/HMM-beads/Images/BlackBeadChoice.png","","","","","","","","","",""
"image-keyboard-response","25","220905","0.0-3.0-4.0-1.0-2.3","615e3c6bdb7c4e8e2ee86818","6662009ae78f21dd82fcd179","666204fdeb46cbfbd2bec21c","null","","null","","","","","","","","./tasks/HMM-beads/Images/BlackBeadChoiceCorrect.png","","","","","","","","","",""
"image-keyboard-response","26","222082","0.0-3.0-4.0-1.0-0.4","615e3c6bdb7c4e8e2ee86818","6662009ae78f21dd82fcd179","666204fdeb46cbfbd2bec21c","1176","","j","","","","","","","","./tasks/HMM-beads/Images/NewTrialBC.png","practice","0","4","0","0","0","1","false","",""
"image-keyboard-response","27","222392","0.0-3.0-4.0-1.0-1.4","615e3c6bdb7c4e8e2ee86818","6662009ae78f21dd82fcd179","666204fdeb46cbfbd2bec21c","null","","null","","","","","","","","./tasks/HMM-beads/Images/WhiteBeadChoice.png","","","","","","","","","",""
"image-keyboard-response","28","222902","0.0-3.0-4.0-1.0-2.4","615e3c6bdb7c4e8e2ee86818","6662009ae78f21dd82fcd179","666204fdeb46cbfbd2bec21c","null","","null","","","","","","","","./tasks/HMM-beads/Images/WhiteBeadChoiceWrong.png","","","","","","","","","",""
"image-keyboard-response","29","223883","0.0-3.0-4.0-1.0-0.5","615e3c6bdb7c4e8e2ee86818","6662009ae78f21dd82fcd179","666204fdeb46cbfbd2bec21c","980","","j","","","","","","","","./tasks/HMM-beads/Images/NewTrialBC.png","practice","0","5","0","1","0","1","true","",""
"image-keyboard-response","30","224192","0.0-3.0-4.0-1.0-1.5","615e3c6bdb7c4e8e2ee86818","6662009ae78f21dd82fcd179","666204fdeb46cbfbd2bec21c","null","","null","","","","","","","","./tasks/HMM-beads/Images/WhiteBeadChoice.png","","","","","","","","","",""
"image-keyboard-response","31","224702","0.0-3.0-4.0-1.0-2.5","615e3c6bdb7c4e8e2ee86818","6662009ae78f21dd82fcd179","666204fdeb46cbfbd2bec21c","null","","null","","","","","","","","./tasks/HMM-beads/Images/WhiteBeadChoiceCorrect.png","","","","","","","","","",""
"image-keyboard-response","32","225994","0.0-3.0-4.0-1.0-0.6","615e3c6bdb7c4e8e2ee86818","6662009ae78f21dd82fcd179","666204fdeb46cbfbd2bec21c","1291","","f","","","","","","","","./tasks/HMM-beads/Images/NewTrialWC.png","practice","0","6","0","0","1","0","true","",""
"image-keyboard-response","33","226307","0.0-3.0-4.0-1.0-1.6","615e3c6bdb7c4e8e2ee86818","6662009ae78f21dd82fcd179","666204fdeb46cbfbd2bec21c","null","","null","","","","","","","","./tasks/HMM-beads/Images/BlackBeadChoice.png","","","","","","","","","",""
"image-keyboard-response","34","226817","0.0-3.0-4.0-1.0-2.6","615e3c6bdb7c4e8e2ee86818","6662009ae78f21dd82fcd179","666204fdeb46cbfbd2bec21c","null","","null","","","","","","","","./tasks/HMM-beads/Images/BlackBeadChoiceCorrect.png","","","","","","","","","",""
"image-keyboard-response","35","227522","0.0-3.0-4.0-1.0-0.7","615e3c6bdb7c4e8e2ee86818","6662009ae78f21dd82fcd179","666204fdeb46cbfbd2bec21c","697","","f","","","","","","","","./tasks/HMM-beads/Images/NewTrialBC.png","practice","0","7","0","0","0","0","true","",""
"image-keyboard-response","36","227837","0.0-3.0-4.0-1.0-1.7","615e3c6bdb7c4e8e2ee86818","6662009ae78f21dd82fcd179","666204fdeb46cbfbd2bec21c","null","","null","","","","","","","","./tasks/HMM-beads/Images/BlackBeadChoice.png","","","","","","","","","",""
"image-keyboard-response","37","228348","0.0-3.0-4.0-1.0-2.7","615e3c6bdb7c4e8e2ee86818","6662009ae78f21dd82fcd179","666204fdeb46cbfbd2bec21c","null","","null","","","","","","","","./tasks/HMM-beads/Images/BlackBeadChoiceCorrect.png","","","","","","","","","",""
"image-keyboard-response","38","229002","0.0-3.0-4.0-1.0-0.8","615e3c6bdb7c4e8e2ee86818","6662009ae78f21dd82fcd179","666204fdeb46cbfbd2bec21c","653","","j","","","","","","","","./tasks/HMM-beads/Images/NewTrialBC.png","practice","0","8","0","0","0","1","false","",""
"image-keyboard-response","39","229308","0.0-3.0-4.0-1.0-1.8","615e3c6bdb7c4e8e2ee86818","6662009ae78f21dd82fcd179","666204fdeb46cbfbd2bec21c","null","","null","","","","","","","","./tasks/HMM-beads/Images/WhiteBeadChoice.png","","","","","","","","","",""
"image-keyboard-response","40","229818","0.0-3.0-4.0-1.0-2.8","615e3c6bdb7c4e8e2ee86818","6662009ae78f21dd82fcd179","666204fdeb46cbfbd2bec21c","null","","null","","","","","","","","./tasks/HMM-beads/Images/WhiteBeadChoiceWrong.png","","","","","","","","","",""
"image-keyboard-response","41","230418","0.0-3.0-4.0-1.0-0.9","615e3c6bdb7c4e8e2ee86818","6662009ae78f21dd82fcd179","666204fdeb46cbfbd2bec21c","599","","f","","","","","","","","./tasks/HMM-beads/Images/NewTrialBC.png","practice","0","9","0","1","0","0","false","",""
"image-keyboard-response","42","230719","0.0-3.0-4.0-1.0-1.9","615e3c6bdb7c4e8e2ee86818","6662009ae78f21dd82fcd179","666204fdeb46cbfbd2bec21c","null","","null","","","","","","","","./tasks/HMM-beads/Images/BlackBeadChoice.png","","","","","","","","","",""
"image-keyboard-response","43","231229","0.0-3.0-4.0-1.0-2.9","615e3c6bdb7c4e8e2ee86818","6662009ae78f21dd82fcd179","666204fdeb46cbfbd2bec21c","null","","null","","","","","","","","./tasks/HMM-beads/Images/BlackBeadChoiceWrong.png","","","","","","","","","",""
"image-keyboard-response","44","231882","0.0-3.0-4.0-1.0-0.10","615e3c6bdb7c4e8e2ee86818","6662009ae78f21dd82fcd179","666204fdeb46cbfbd2bec21c","652","","j","","","","","","","","./tasks/HMM-beads/Images/NewTrialWC.png","practice","0","10","0","0","1","1","false","",""
"image-keyboard-response","45","232189","0.0-3.0-4.0-1.0-1.10","615e3c6bdb7c4e8e2ee86818","6662009ae78f21dd82fcd179","666204fdeb46cbfbd2bec21c","null","","null","","","","","","","","./tasks/HMM-beads/Images/WhiteBeadChoice.png","","","","","","","","","",""
"image-keyboard-response","46","232699","0.0-3.0-4.0-1.0-2.10","615e3c6bdb7c4e8e2ee86818","6662009ae78f21dd82fcd179","666204fdeb46cbfbd2bec21c","null","","null","","","","","","","","./tasks/HMM-beads/Images/WhiteBeadChoiceWrong.png","","","","","","","","","",""
"image-keyboard-response","47","233282","0.0-3.0-4.0-1.0-0.11","615e3c6bdb7c4e8e2ee86818","6662009ae78f21dd82fcd179","666204fdeb46cbfbd2bec21c","582","","j","","","","","","","","./tasks/HMM-beads/Images/NewTrialBC.png","practice","0","11","0","1","0","1","true","",""
"image-keyboard-response","48","233600","0.0-3.0-4.0-1.0-1.11","615e3c6bdb7c4e8e2ee86818","6662009ae78f21dd82fcd179","666204fdeb46cbfbd2bec21c","null","","null","","","","","","","","./tasks/HMM-beads/Images/WhiteBeadChoice.png","","","","","","","","","",""
"image-keyboard-response","49","234110","0.0-3.0-4.0-1.0-2.11","615e3c6bdb7c4e8e2ee86818","6662009ae78f21dd82fcd179","666204fdeb46cbfbd2bec21c","null","","null","","","","","","","","./tasks/HMM-beads/Images/WhiteBeadChoiceCorrect.png","","","","","","","","","",""
"image-keyboard-response","50","234827","0.0-3.0-4.0-1.0-0.12","615e3c6bdb7c4e8e2ee86818","6662009ae78f21dd82fcd179","666204fdeb46cbfbd2bec21c","716","","j","","","","","","","","./tasks/HMM-beads/Images/NewTrialWC.png","practice","0","12","0","0","1","1","false","",""
"image-keyboard-response","51","235131","0.0-3.0-4.0-1.0-1.12","615e3c6bdb7c4e8e2ee86818","6662009ae78f21dd82fcd179","666204fdeb46cbfbd2bec21c","null","","null","","","","","","","","./tasks/HMM-beads/Images/WhiteBeadChoice.png","","","","","","","","","",""
"image-keyboard-response","52","235641","0.0-3.0-4.0-1.0-2.12","615e3c6bdb7c4e8e2ee86818","6662009ae78f21dd82fcd179","666204fdeb46cbfbd2bec21c","null","","null","","","","","","","","./tasks/HMM-beads/Images/WhiteBeadChoiceWrong.png","","","","","","","","","",""
"image-keyboard-response","53","236474","0.0-3.0-4.0-1.0-0.13","615e3c6bdb7c4e8e2ee86818","6662009ae78f21dd82fcd179","666204fdeb46cbfbd2bec21c","832","","j","","","","","","","","./tasks/HMM-beads/Images/NewTrialBC.png","practice","0","13","0","0","0","1","false","",""
"image-keyboard-response","54","236781","0.0-3.0-4.0-1.0-1.13","615e3c6bdb7c4e8e2ee86818","6662009ae78f21dd82fcd179","666204fdeb46cbfbd2bec21c","null","","null","","","","","","","","./tasks/HMM-beads/Images/WhiteBeadChoice.png","","","","","","","","","",""
"image-keyboard-response","55","237291","0.0-3.0-4.0-1.0-2.13","615e3c6bdb7c4e8e2ee86818","6662009ae78f21dd82fcd179","666204fdeb46cbfbd2bec21c","null","","null","","","","","","","","./tasks/HMM-beads/Images/WhiteBeadChoiceWrong.png","","","","","","","","","",""
"image-keyboard-response","56","237978","0.0-3.0-4.0-1.0-0.14","615e3c6bdb7c4e8e2ee86818","6662009ae78f21dd82fcd179","666204fdeb46cbfbd2bec21c","686","","j","","","","","","","","./tasks/HMM-beads/Images/NewTrialBC.png","practice","0","14","0","0","0","1","false","",""
"image-keyboard-response","57","238281","0.0-3.0-4.0-1.0-1.14","615e3c6bdb7c4e8e2ee86818","6662009ae78f21dd82fcd179","666204fdeb46cbfbd2bec21c","null","","null","","","","","","","","./tasks/HMM-beads/Images/WhiteBeadChoice.png","","","","","","","","","",""
"image-keyboard-response","58","238792","0.0-3.0-4.0-1.0-2.14","615e3c6bdb7c4e8e2ee86818","6662009ae78f21dd82fcd179","666204fdeb46cbfbd2bec21c","null","","null","","","","","","","","./tasks/HMM-beads/Images/WhiteBeadChoiceWrong.png","","","","","","","","","",""
"image-keyboard-response","59","239530","0.0-3.0-4.0-1.0-0.15","615e3c6bdb7c4e8e2ee86818","6662009ae78f21dd82fcd179","666204fdeb46cbfbd2bec21c","737","","j","","","","","","","","./tasks/HMM-beads/Images/NewTrialBC.png","practice","0","15","0","0","0","1","false","",""
"image-keyboard-response","60","239842","0.0-3.0-4.0-1.0-1.15","615e3c6bdb7c4e8e2ee86818","6662009ae78f21dd82fcd179","666204fdeb46cbfbd2bec21c","null","","null","","","","","","","","./tasks/HMM-beads/Images/WhiteBeadChoice.png","","","","","","","","","",""
"image-keyboard-response","61","240352","0.0-3.0-4.0-1.0-2.15","615e3c6bdb7c4e8e2ee86818","6662009ae78f21dd82fcd179","666204fdeb46cbfbd2bec21c","null","","null","","","","","","","","./tasks/HMM-beads/Images/WhiteBeadChoiceWrong.png","","","","","","","","","",""
"image-keyboard-response","62","241226","0.0-3.0-4.0-1.0-0.16","615e3c6bdb7c4e8e2ee86818","6662009ae78f21dd82fcd179","666204fdeb46cbfbd2bec21c","872","","j","","","","","","","","./tasks/HMM-beads/Images/NewTrialBC.png","practice","0","16","0","0","0","1","false","",""
"image-keyboard-response","63","241537","0.0-3.0-4.0-1.0-1.16","615e3c6bdb7c4e8e2ee86818","6662009ae78f21dd82fcd179","666204fdeb46cbfbd2bec21c","null","","null","","","","","","","","./tasks/HMM-beads/Images/WhiteBeadChoice.png","","","","","","","","","",""
"image-keyboard-response","64","242047","0.0-3.0-4.0-1.0-2.16","615e3c6bdb7c4e8e2ee86818","6662009ae78f21dd82fcd179","666204fdeb46cbfbd2bec21c","null","","null","","","","","","","","./tasks/HMM-beads/Images/WhiteBeadChoiceWrong.png","","","","","","","","","",""
"image-keyboard-response","65","242698","0.0-3.0-4.0-1.0-0.17","615e3c6bdb7c4e8e2ee86818","6662009ae78f21dd82fcd179","666204fdeb46cbfbd2bec21c","649","","f","","","","","","","","./tasks/HMM-beads/Images/NewTrialBC.png","practice","0","17","0","0","0","0","true","",""
"image-keyboard-response","66","243008","0.0-3.0-4.0-1.0-1.17","615e3c6bdb7c4e8e2ee86818","6662009ae78f21dd82fcd179","666204fdeb46cbfbd2bec21c","null","","null","","","","","","","","./tasks/HMM-beads/Images/BlackBeadChoice.png","","","","","","","","","",""
"image-keyboard-response","67","243518","0.0-3.0-4.0-1.0-2.17","615e3c6bdb7c4e8e2ee86818","6662009ae78f21dd82fcd179","666204fdeb46cbfbd2bec21c","null","","null","","","","","","","","./tasks/HMM-beads/Images/BlackBeadChoiceCorrect.png","","","","","","","","","",""
"image-keyboard-response","68","243970","0.0-3.0-4.0-1.0-0.18","615e3c6bdb7c4e8e2ee86818","6662009ae78f21dd82fcd179","666204fdeb46cbfbd2bec21c","451","","f","","","","","","","","./tasks/HMM-beads/Images/NewTrialBC.png","practice","0","18","0","1","0","0","false","",""
"image-keyboard-response","69","244283","0.0-3.0-4.0-1.0-1.18","615e3c6bdb7c4e8e2ee86818","6662009ae78f21dd82fcd179","666204fdeb46cbfbd2bec21c","null","","null","","","","","","","","./tasks/HMM-beads/Images/BlackBeadChoice.png","","","","","","","","","",""
"image-keyboard-response","70","244793","0.0-3.0-4.0-1.0-2.18","615e3c6bdb7c4e8e2ee86818","6662009ae78f21dd82fcd179","666204fdeb46cbfbd2bec21c","null","","null","","","","","","","","./tasks/HMM-beads/Images/BlackBeadChoiceWrong.png","","","","","","","","","",""
"image-keyboard-response","71","245219","0.0-3.0-4.0-1.0-0.19","615e3c6bdb7c4e8e2ee86818","6662009ae78f21dd82fcd179","666204fdeb46cbfbd2bec21c","425","","j","","","","","","","","./tasks/HMM-beads/Images/NewTrialWC.png","practice","0","19","0","0","1","1","false","",""
"image-keyboard-response","72","245528","0.0-3.0-4.0-1.0-1.19","615e3c6bdb7c4e8e2ee86818","6662009ae78f21dd82fcd179","666204fdeb46cbfbd2bec21c","null","","null","","","","","","","","./tasks/HMM-beads/Images/WhiteBeadChoice.png","","","","","","","","","",""
"image-keyboard-response","73","246039","0.0-3.0-4.0-1.0-2.19","615e3c6bdb7c4e8e2ee86818","6662009ae78f21dd82fcd179","666204fdeb46cbfbd2bec21c","null","","null","","","","","","","","./tasks/HMM-beads/Images/WhiteBeadChoiceWrong.png","","","","","","","","","",""
"image-keyboard-response","74","247570","0.0-3.0-4.0-1.0-0.20","615e3c6bdb7c4e8e2ee86818","6662009ae78f21dd82fcd179","666204fdeb46cbfbd2bec21c","1530","","f","","","","","","","","./tasks/HMM-beads/Images/NewTrialBC.png","practice","0","20","0","0","0","0","true","",""
"image-keyboard-response","75","247884","0.0-3.0-4.0-1.0-1.20","615e3c6bdb7c4e8e2ee86818","6662009ae78f21dd82fcd179","666204fdeb46cbfbd2bec21c","null","","null","","","","","","","","./tasks/HMM-beads/Images/BlackBeadChoice.png","","","","","","","","","",""
"image-keyboard-response","76","248394","0.0-3.0-4.0-1.0-2.20","615e3c6bdb7c4e8e2ee86818","6662009ae78f21dd82fcd179","666204fdeb46cbfbd2bec21c","null","","null","","","","","","","","./tasks/HMM-beads/Images/BlackBeadChoiceCorrect.png","","","","","","","","","",""
"image-keyboard-response","77","248946","0.0-3.0-4.0-1.0-0.21","615e3c6bdb7c4e8e2ee86818","6662009ae78f21dd82fcd179","666204fdeb46cbfbd2bec21c","551","","f","","","","","","","","./tasks/HMM-beads/Images/NewTrialBC.png","practice","0","21","0","1","0","0","false","",""
"image-keyboard-response","78","249249","0.0-3.0-4.0-1.0-1.21","615e3c6bdb7c4e8e2ee86818","6662009ae78f21dd82fcd179","666204fdeb46cbfbd2bec21c","null","","null","","","","","","","","./tasks/HMM-beads/Images/BlackBeadChoice.png","","","","","","","","","",""
"image-keyboard-response","79","249759","0.0-3.0-4.0-1.0-2.21","615e3c6bdb7c4e8e2ee86818","6662009ae78f21dd82fcd179","666204fdeb46cbfbd2bec21c","null","","null","","","","","","","","./tasks/HMM-beads/Images/BlackBeadChoiceWrong.png","","","","","","","","","",""
"image-keyboard-response","80","250186","0.0-3.0-4.0-1.0-0.22","615e3c6bdb7c4e8e2ee86818","6662009ae78f21dd82fcd179","666204fdeb46cbfbd2bec21c","426","","j","","","","","","","","./tasks/HMM-beads/Images/NewTrialWC.png","practice","0","22","1","1","1","1","true","",""
"image-keyboard-response","81","250495","0.0-3.0-4.0-1.0-1.22","615e3c6bdb7c4e8e2ee86818","6662009ae78f21dd82fcd179","666204fdeb46cbfbd2bec21c","null","","null","","","","","","","","./tasks/HMM-beads/Images/WhiteBeadChoice.png","","","","","","","","","",""
"image-keyboard-response","82","251005","0.0-3.0-4.0-1.0-2.22","615e3c6bdb7c4e8e2ee86818","6662009ae78f21dd82fcd179","666204fdeb46cbfbd2bec21c","null","","null","","","","","","","","./tasks/HMM-beads/Images/WhiteBeadChoiceCorrect.png","","","","","","","","","",""
"image-keyboard-response","83","251402","0.0-3.0-4.0-1.0-0.23","615e3c6bdb7c4e8e2ee86818","6662009ae78f21dd82fcd179","666204fdeb46cbfbd2bec21c","396","","j","","","","","","","","./tasks/HMM-beads/Images/NewTrialWC.png","practice","0","23","1","0","1","1","false","",""
"image-keyboard-response","84","251710","0.0-3.0-4.0-1.0-1.23","615e3c6bdb7c4e8e2ee86818","6662009ae78f21dd82fcd179","666204fdeb46cbfbd2bec21c","null","","null","","","","","","","","./tasks/HMM-beads/Images/WhiteBeadChoice.png","","","","","","","","","",""
"image-keyboard-response","85","252220","0.0-3.0-4.0-1.0-2.23","615e3c6bdb7c4e8e2ee86818","6662009ae78f21dd82fcd179","666204fdeb46cbfbd2bec21c","null","","null","","","","","","","","./tasks/HMM-beads/Images/WhiteBeadChoiceWrong.png","","","","","","","","","",""
"image-keyboard-response","86","252514","0.0-3.0-4.0-1.0-0.24","615e3c6bdb7c4e8e2ee86818","6662009ae78f21dd82fcd179","666204fdeb46cbfbd2bec21c","293","","f","","","","","","","","./tasks/HMM-beads/Images/NewTrialBC.png","practice","0","24","1","1","0","0","false","",""
"image-keyboard-response","87","252822","0.0-3.0-4.0-1.0-1.24","615e3c6bdb7c4e8e2ee86818","6662009ae78f21dd82fcd179","666204fdeb46cbfbd2bec21c","null","","null","","","","","","","","./tasks/HMM-beads/Images/BlackBeadChoice.png","","","","","","","","","",""
"image-keyboard-response","88","253332","0.0-3.0-4.0-1.0-2.24","615e3c6bdb7c4e8e2ee86818","6662009ae78f21dd82fcd179","666204fdeb46cbfbd2bec21c","null","","null","","","","","","","","./tasks/HMM-beads/Images/BlackBeadChoiceWrong.png","","","","","","","","","",""
"image-keyboard-response","89","254506","0.0-3.0-4.0-1.0-0.25","615e3c6bdb7c4e8e2ee86818","6662009ae78f21dd82fcd179","666204fdeb46cbfbd2bec21c","1172","","f","","","","","","","","./tasks/HMM-beads/Images/NewTrialWC.png","practice","0","25","1","1","1","0","false","",""
"image-keyboard-response","90","254817","0.0-3.0-4.0-1.0-1.25","615e3c6bdb7c4e8e2ee86818","6662009ae78f21dd82fcd179","666204fdeb46cbfbd2bec21c","null","","null","","","","","","","","./tasks/HMM-beads/Images/BlackBeadChoice.png","","","","","","","","","",""
"image-keyboard-response","91","255327","0.0-3.0-4.0-1.0-2.25","615e3c6bdb7c4e8e2ee86818","6662009ae78f21dd82fcd179","666204fdeb46cbfbd2bec21c","null","","null","","","","","","","","./tasks/HMM-beads/Images/BlackBeadChoiceWrong.png","","","","","","","","","",""
"image-keyboard-response","92","255836","0.0-3.0-4.0-1.0-0.26","615e3c6bdb7c4e8e2ee86818","6662009ae78f21dd82fcd179","666204fdeb46cbfbd2bec21c","507","","j","","","","","","","","./tasks/HMM-beads/Images/NewTrialWC.png","practice","0","26","1","1","1","1","true","",""
"image-keyboard-response","93","256140","0.0-3.0-4.0-1.0-1.26","615e3c6bdb7c4e8e2ee86818","6662009ae78f21dd82fcd179","666204fdeb46cbfbd2bec21c","null","","null","","","","","","","","./tasks/HMM-beads/Images/WhiteBeadChoice.png","","","","","","","","","",""
"image-keyboard-response","94","256650","0.0-3.0-4.0-1.0-2.26","615e3c6bdb7c4e8e2ee86818","6662009ae78f21dd82fcd179","666204fdeb46cbfbd2bec21c","null","","null","","","","","","","","./tasks/HMM-beads/Images/WhiteBeadChoiceCorrect.png","","","","","","","","","",""
"image-keyboard-response","95","257754","0.0-3.0-4.0-1.0-0.27","615e3c6bdb7c4e8e2ee86818","6662009ae78f21dd82fcd179","666204fdeb46cbfbd2bec21c","1103","","j","","","","","","","","./tasks/HMM-beads/Images/NewTrialWC.png","practice","0","27","1","1","1","1","true","",""
"image-keyboard-response","96","258062","0.0-3.0-4.0-1.0-1.27","615e3c6bdb7c4e8e2ee86818","6662009ae78f21dd82fcd179","666204fdeb46cbfbd2bec21c","null","","null","","","","","","","","./tasks/HMM-beads/Images/WhiteBeadChoice.png","","","","","","","","","",""
"image-keyboard-response","97","258573","0.0-3.0-4.0-1.0-2.27","615e3c6bdb7c4e8e2ee86818","6662009ae78f21dd82fcd179","666204fdeb46cbfbd2bec21c","null","","null","","","","","","","","./tasks/HMM-beads/Images/WhiteBeadChoiceCorrect.png","","","","","","","","","",""
"image-keyboard-response","98","259298","0.0-3.0-4.0-1.0-0.28","615e3c6bdb7c4e8e2ee86818","6662009ae78f21dd82fcd179","666204fdeb46cbfbd2bec21c","724","","j","","","","","","","","./tasks/HMM-beads/Images/NewTrialWC.png","practice","0","28","1","0","1","1","false","",""
"image-keyboard-response","99","259610","0.0-3.0-4.0-1.0-1.28","615e3c6bdb7c4e8e2ee86818","6662009ae78f21dd82fcd179","666204fdeb46cbfbd2bec21c","null","","null","","","","","","","","./tasks/HMM-beads/Images/WhiteBeadChoice.png","","","","","","","","","",""
"image-keyboard-response","100","260120","0.0-3.0-4.0-1.0-2.28","615e3c6bdb7c4e8e2ee86818","6662009ae78f21dd82fcd179","666204fdeb46cbfbd2bec21c","null","","null","","","","","","","","./tasks/HMM-beads/Images/WhiteBeadChoiceWrong.png","","","","","","","","","",""
"image-keyboard-response","101","261274","0.0-3.0-4.0-1.0-0.29","615e3c6bdb7c4e8e2ee86818","6662009ae78f21dd82fcd179","666204fdeb46cbfbd2bec21c","1153","","j","","","","","","","","./tasks/HMM-beads/Images/NewTrialBC.png","practice","0","29","1","1","0","1","true","",""
"image-keyboard-response","102","261577","0.0-3.0-4.0-1.0-1.29","615e3c6bdb7c4e8e2ee86818","6662009ae78f21dd82fcd179","666204fdeb46cbfbd2bec21c","null","","null","","","","","","","","./tasks/HMM-beads/Images/WhiteBeadChoice.png","","","","","","","","","",""
"image-keyboard-response","103","262087","0.0-3.0-4.0-1.0-2.29","615e3c6bdb7c4e8e2ee86818","6662009ae78f21dd82fcd179","666204fdeb46cbfbd2bec21c","null","","null","","","","","","","","./tasks/HMM-beads/Images/WhiteBeadChoiceCorrect.png","","","","","","","","","",""
"image-keyboard-response","104","262722","0.0-3.0-4.0-1.0-0.30","615e3c6bdb7c4e8e2ee86818","6662009ae78f21dd82fcd179","666204fdeb46cbfbd2bec21c","634","","f","","","","","","","","./tasks/HMM-beads/Images/NewTrialWC.png","practice","0","30","1","0","1","0","true","",""
"image-keyboard-response","105","263032","0.0-3.0-4.0-1.0-1.30","615e3c6bdb7c4e8e2ee86818","6662009ae78f21dd82fcd179","666204fdeb46cbfbd2bec21c","null","","null","","","","","","","","./tasks/HMM-beads/Images/BlackBeadChoice.png","","","","","","","","","",""
"image-keyboard-response","106","263542","0.0-3.0-4.0-1.0-2.30","615e3c6bdb7c4e8e2ee86818","6662009ae78f21dd82fcd179","666204fdeb46cbfbd2bec21c","null","","null","","","","","","","","./tasks/HMM-beads/Images/BlackBeadChoiceCorrect.png","","","","","","","","","",""
"image-keyboard-response","107","264098","0.0-3.0-4.0-1.0-0.31","615e3c6bdb7c4e8e2ee86818","6662009ae78f21dd82fcd179","666204fdeb46cbfbd2bec21c","555","","f","","","","","","","","./tasks/HMM-beads/Images/NewTrialBC.png","practice","0","31","1","1","0","0","false","",""
"image-keyboard-response","108","264413","0.0-3.0-4.0-1.0-1.31","615e3c6bdb7c4e8e2ee86818","6662009ae78f21dd82fcd179","666204fdeb46cbfbd2bec21c","null","","null","","","","","","","","./tasks/HMM-beads/Images/BlackBeadChoice.png","","","","","","","","","",""
"image-keyboard-response","109","264923","0.0-3.0-4.0-1.0-2.31","615e3c6bdb7c4e8e2ee86818","6662009ae78f21dd82fcd179","666204fdeb46cbfbd2bec21c","null","","null","","","","","","","","./tasks/HMM-beads/Images/BlackBeadChoiceWrong.png","","","","","","","","","",""
"image-keyboard-response","110","265466","0.0-3.0-4.0-1.0-0.32","615e3c6bdb7c4e8e2ee86818","6662009ae78f21dd82fcd179","666204fdeb46cbfbd2bec21c","542","","f","","","","","","","","./tasks/HMM-beads/Images/NewTrialWC.png","practice","0","32","1","1","1","0","false","",""
"image-keyboard-response","111","265779","0.0-3.0-4.0-1.0-1.32","615e3c6bdb7c4e8e2ee86818","6662009ae78f21dd82fcd179","666204fdeb46cbfbd2bec21c","null","","null","","","","","","","","./tasks/HMM-beads/Images/BlackBeadChoice.png","","","","","","","","","",""
"image-keyboard-response","112","266290","0.0-3.0-4.0-1.0-2.32","615e3c6bdb7c4e8e2ee86818","6662009ae78f21dd82fcd179","666204fdeb46cbfbd2bec21c","null","","null","","","","","","","","./tasks/HMM-beads/Images/BlackBeadChoiceWrong.png","","","","","","","","","",""
"image-keyboard-response","113","266867","0.0-3.0-4.0-1.0-0.33","615e3c6bdb7c4e8e2ee86818","6662009ae78f21dd82fcd179","666204fdeb46cbfbd2bec21c","570","","j","","","","","","","","./tasks/HMM-beads/Images/NewTrialWC.png","practice","0","33","1","1","1","1","true","",""
"image-keyboard-response","114","267175","0.0-3.0-4.0-1.0-1.33","615e3c6bdb7c4e8e2ee86818","6662009ae78f21dd82fcd179","666204fdeb46cbfbd2bec21c","null","","null","","","","","","","","./tasks/HMM-beads/Images/WhiteBeadChoice.png","","","","","","","","","",""
"image-keyboard-response","115","267685","0.0-3.0-4.0-1.0-2.33","615e3c6bdb7c4e8e2ee86818","6662009ae78f21dd82fcd179","666204fdeb46cbfbd2bec21c","null","","null","","","","","","","","./tasks/HMM-beads/Images/WhiteBeadChoiceCorrect.png","","","","","","","","","",""
"image-keyboard-response","116","268274","0.0-3.0-4.0-1.0-0.34","615e3c6bdb7c4e8e2ee86818","6662009ae78f21dd82fcd179","666204fdeb46cbfbd2bec21c","588","","f","","","","","","","","./tasks/HMM-beads/Images/NewTrialWC.png","practice","0","34","1","1","1","0","false","",""
"image-keyboard-response","117","268585","0.0-3.0-4.0-1.0-1.34","615e3c6bdb7c4e8e2ee86818","6662009ae78f21dd82fcd179","666204fdeb46cbfbd2bec21c","null","","null","","","","","","","","./tasks/HMM-beads/Images/BlackBeadChoice.png","","","","","","","","","",""
"image-keyboard-response","118","269095","0.0-3.0-4.0-1.0-2.34","615e3c6bdb7c4e8e2ee86818","6662009ae78f21dd82fcd179","666204fdeb46cbfbd2bec21c","null","","null","","","","","","","","./tasks/HMM-beads/Images/BlackBeadChoiceWrong.png","","","","","","","","","",""
"image-keyboard-response","119","270050","0.0-3.0-4.0-1.0-0.35","615e3c6bdb7c4e8e2ee86818","6662009ae78f21dd82fcd179","666204fdeb46cbfbd2bec21c","954","","j","","","","","","","","./tasks/HMM-beads/Images/NewTrialWC.png","practice","0","35","1","1","1","1","true","",""
"image-keyboard-response","120","270355","0.0-3.0-4.0-1.0-1.35","615e3c6bdb7c4e8e2ee86818","6662009ae78f21dd82fcd179","666204fdeb46cbfbd2bec21c","null","","null","","","","","","","","./tasks/HMM-beads/Images/WhiteBeadChoice.png","","","","","","","","","",""
"image-keyboard-response","121","270865","0.0-3.0-4.0-1.0-2.35","615e3c6bdb7c4e8e2ee86818","6662009ae78f21dd82fcd179","666204fdeb46cbfbd2bec21c","null","","null","","","","","","","","./tasks/HMM-beads/Images/WhiteBeadChoiceCorrect.png","","","","","","","","","",""
"image-keyboard-response","122","271354","0.0-3.0-4.0-1.0-0.36","615e3c6bdb7c4e8e2ee86818","6662009ae78f21dd82fcd179","666204fdeb46cbfbd2bec21c","488","","j","","","","","","","","./tasks/HMM-beads/Images/NewTrialWC.png","practice","0","36","1","0","1","1","false","",""
"image-keyboard-response","123","271660","0.0-3.0-4.0-1.0-1.36","615e3c6bdb7c4e8e2ee86818","6662009ae78f21dd82fcd179","666204fdeb46cbfbd2bec21c","null","","null","","","","","","","","./tasks/HMM-beads/Images/WhiteBeadChoice.png","","","","","","","","","",""
"image-keyboard-response","124","272170","0.0-3.0-4.0-1.0-2.36","615e3c6bdb7c4e8e2ee86818","6662009ae78f21dd82fcd179","666204fdeb46cbfbd2bec21c","null","","null","","","","","","","","./tasks/HMM-beads/Images/WhiteBeadChoiceWrong.png","","","","","","","","","",""
"image-keyboard-response","125","272610","0.0-3.0-4.0-1.0-0.37","615e3c6bdb7c4e8e2ee86818","6662009ae78f21dd82fcd179","666204fdeb46cbfbd2bec21c","439","","f","","","","","","","","./tasks/HMM-beads/Images/NewTrialBC.png","practice","0","37","1","1","0","0","false","",""
"image-keyboard-response","126","272921","0.0-3.0-4.0-1.0-1.37","615e3c6bdb7c4e8e2ee86818","6662009ae78f21dd82fcd179","666204fdeb46cbfbd2bec21c","null","","null","","","","","","","","./tasks/HMM-beads/Images/BlackBeadChoice.png","","","","","","","","","",""
"image-keyboard-response","127","273431","0.0-3.0-4.0-1.0-2.37","615e3c6bdb7c4e8e2ee86818","6662009ae78f21dd82fcd179","666204fdeb46cbfbd2bec21c","null","","null","","","","","","","","./tasks/HMM-beads/Images/BlackBeadChoiceWrong.png","","","","","","","","","",""
"image-keyboard-response","128","273938","0.0-3.0-4.0-1.0-0.38","615e3c6bdb7c4e8e2ee86818","6662009ae78f21dd82fcd179","666204fdeb46cbfbd2bec21c","506","","f","","","","","","","","./tasks/HMM-beads/Images/NewTrialWC.png","practice","0","38","1","1","1","0","false","",""
"image-keyboard-response","129","274241","0.0-3.0-4.0-1.0-1.38","615e3c6bdb7c4e8e2ee86818","6662009ae78f21dd82fcd179","666204fdeb46cbfbd2bec21c","null","","null","","","","","","","","./tasks/HMM-beads/Images/BlackBeadChoice.png","","","","","","","","","",""
"image-keyboard-response","130","274751","0.0-3.0-4.0-1.0-2.38","615e3c6bdb7c4e8e2ee86818","6662009ae78f21dd82fcd179","666204fdeb46cbfbd2bec21c","null","","null","","","","","","","","./tasks/HMM-beads/Images/BlackBeadChoiceWrong.png","","","","","","","","","",""
"image-keyboard-response","131","275194","0.0-3.0-4.0-1.0-0.39","615e3c6bdb7c4e8e2ee86818","6662009ae78f21dd82fcd179","666204fdeb46cbfbd2bec21c","442","","j","","","","","","","","./tasks/HMM-beads/Images/NewTrialWC.png","practice","0","39","1","1","1","1","true","",""
"image-keyboard-response","132","275501","0.0-3.0-4.0-1.0-1.39","615e3c6bdb7c4e8e2ee86818","6662009ae78f21dd82fcd179","666204fdeb46cbfbd2bec21c","null","","null","","","","","","","","./tasks/HMM-beads/Images/WhiteBeadChoice.png","","","","","","","","","",""
"image-keyboard-response","133","276011","0.0-3.0-4.0-1.0-2.39","615e3c6bdb7c4e8e2ee86818","6662009ae78f21dd82fcd179","666204fdeb46cbfbd2bec21c","null","","null","","","","","","","","./tasks/HMM-beads/Images/WhiteBeadChoiceCorrect.png","","","","","","","","","",""
"html-keyboard-response","134","279707","0.0-3.0-4.0-2.0","615e3c6bdb7c4e8e2ee86818","6662009ae78f21dd82fcd179","666204fdeb46cbfbd2bec21c","3695",""," ","","","","","","","","","","","","","","","","","",""
"instructions","135","299345","0.0-3.0-5.0","615e3c6bdb7c4e8e2ee86818","6662009ae78f21dd82fcd179","666204fdeb46cbfbd2bec21c","19637","","","","[{""page_index"":0,""viewing_time"":15445},{""page_index"":1,""viewing_time"":4192}]","","","","","","","","","","","","","","","",""
"html-keyboard-response","136","305435","0.0-3.0-6.0-0.0","615e3c6bdb7c4e8e2ee86818","6662009ae78f21dd82fcd179","666204fdeb46cbfbd2bec21c","6090",""," ","","","","","","","","<div align=center>In this block, there will be a <b>1% chance</b> that the jar on the next trial will be different from the jar on the current trial.<br><br></div>","","","","","","","","","",""
"image-keyboard-response","137","308346","0.0-3.0-6.0-1.0-0.0","615e3c6bdb7c4e8e2ee86818","6662009ae78f21dd82fcd179","666204fdeb46cbfbd2bec21c","2910","","f","","","","","","","","./tasks/HMM-beads/Images/NoChoice.png","lowH","1","0","1","0","9","0","true","",""
"image-keyboard-response","138","308657","0.0-3.0-6.0-1.0-1.0","615e3c6bdb7c4e8e2ee86818","6662009ae78f21dd82fcd179","666204fdeb46cbfbd2bec21c","null","","null","","","","","","","","./tasks/HMM-beads/Images/BlackBeadChoice.png","","","","","","","","","",""
"image-keyboard-response","139","309167","0.0-3.0-6.0-1.0-2.0","615e3c6bdb7c4e8e2ee86818","6662009ae78f21dd82fcd179","666204fdeb46cbfbd2bec21c","null","","null","","","","","","","","./tasks/HMM-beads/Images/BlackBeadChoiceCorrect.png","","","","","","","","","",""
"image-keyboard-response","140","309666","0.0-3.0-6.0-1.0-0.1","615e3c6bdb7c4e8e2ee86818","6662009ae78f21dd82fcd179","666204fdeb46cbfbd2bec21c","498","","f","","","","","","","","./tasks/HMM-beads/Images/NewTrialBC.png","lowH","1","1","1","1","0","0","false","",""
"image-keyboard-response","141","309977","0.0-3.0-6.0-1.0-1.1","615e3c6bdb7c4e8e2ee86818","6662009ae78f21dd82fcd179","666204fdeb46cbfbd2bec21c","null","","null","","","","","","","","./tasks/HMM-beads/Images/BlackBeadChoice.png","","","","","","","","","",""
"image-keyboard-response","142","310487","0.0-3.0-6.0-1.0-2.1","615e3c6bdb7c4e8e2ee86818","6662009ae78f21dd82fcd179","666204fdeb46cbfbd2bec21c","null","","null","","","","","","","","./tasks/HMM-beads/Images/BlackBeadChoiceWrong.png","","","","","","","","","",""
"image-keyboard-response","143","311058","0.0-3.0-6.0-1.0-0.2","615e3c6bdb7c4e8e2ee86818","6662009ae78f21dd82fcd179","666204fdeb46cbfbd2bec21c","570","","f","","","","","","","","./tasks/HMM-beads/Images/NewTrialWC.png","lowH","1","2","1","1","1","0","false","",""
"image-keyboard-response","144","311372","0.0-3.0-6.0-1.0-1.2","615e3c6bdb7c4e8e2ee86818","6662009ae78f21dd82fcd179","666204fdeb46cbfbd2bec21c","null","","null","","","","","","","","./tasks/HMM-beads/Images/BlackBeadChoice.png","","","","","","","","","",""
"image-keyboard-response","145","311882","0.0-3.0-6.0-1.0-2.2","615e3c6bdb7c4e8e2ee86818","6662009ae78f21dd82fcd179","666204fdeb46cbfbd2bec21c","null","","null","","","","","","","","./tasks/HMM-beads/Images/BlackBeadChoiceWrong.png","","","","","","","","","",""
"image-keyboard-response","146","312370","0.0-3.0-6.0-1.0-0.3","615e3c6bdb7c4e8e2ee86818","6662009ae78f21dd82fcd179","666204fdeb46cbfbd2bec21c","487","","j","","","","","","","","./tasks/HMM-beads/Images/NewTrialWC.png","lowH","1","3","1","1","1","1","true","",""
"image-keyboard-response","147","312677","0.0-3.0-6.0-1.0-1.3","615e3c6bdb7c4e8e2ee86818","6662009ae78f21dd82fcd179","666204fdeb46cbfbd2bec21c","null","","null","","","","","","","","./tasks/HMM-beads/Images/WhiteBeadChoice.png","","","","","","","","","",""
"image-keyboard-response","148","313187","0.0-3.0-6.0-1.0-2.3","615e3c6bdb7c4e8e2ee86818","6662009ae78f21dd82fcd179","666204fdeb46cbfbd2bec21c","null","","null","","","","","","","","./tasks/HMM-beads/Images/WhiteBeadChoiceCorrect.png","","","","","","","","","",""
"image-keyboard-response","149","313978","0.0-3.0-6.0-1.0-0.4","615e3c6bdb7c4e8e2ee86818","6662009ae78f21dd82fcd179","666204fdeb46cbfbd2bec21c","790","","j","","","","","","","","./tasks/HMM-beads/Images/NewTrialWC.png","lowH","1","4","1","1","1","1","true","",""
"image-keyboard-response","150","314282","0.0-3.0-6.0-1.0-1.4","615e3c6bdb7c4e8e2ee86818","6662009ae78f21dd82fcd179","666204fdeb46cbfbd2bec21c","null","","null","","","","","","","","./tasks/HMM-beads/Images/WhiteBeadChoice.png","","","","","","","","","",""
"image-keyboard-response","151","314792","0.0-3.0-6.0-1.0-2.4","615e3c6bdb7c4e8e2ee86818","6662009ae78f21dd82fcd179","666204fdeb46cbfbd2bec21c","null","","null","","","","","","","","./tasks/HMM-beads/Images/WhiteBeadChoiceCorrect.png","","","","","","","","","",""
"image-keyboard-response","152","315434","0.0-3.0-6.0-1.0-0.5","615e3c6bdb7c4e8e2ee86818","6662009ae78f21dd82fcd179","666204fdeb46cbfbd2bec21c","641","","f","","","","","","","","./tasks/HMM-beads/Images/NewTrialWC.png","lowH","1","5","1","1","1","0","false","",""
"image-keyboard-response","153","315737","0.0-3.0-6.0-1.0-1.5","615e3c6bdb7c4e8e2ee86818","6662009ae78f21dd82fcd179","666204fdeb46cbfbd2bec21c","null","","null","","","","","","","","./tasks/HMM-beads/Images/BlackBeadChoice.png","","","","","","","","","",""
"image-keyboard-response","154","316247","0.0-3.0-6.0-1.0-2.5","615e3c6bdb7c4e8e2ee86818","6662009ae78f21dd82fcd179","666204fdeb46cbfbd2bec21c","null","","null","","","","","","","","./tasks/HMM-beads/Images/BlackBeadChoiceWrong.png","","","","","","","","","",""
"image-keyboard-response","155","316763","0.0-3.0-6.0-1.0-0.6","615e3c6bdb7c4e8e2ee86818","6662009ae78f21dd82fcd179","666204fdeb46cbfbd2bec21c","515","","j","","","","","","","","./tasks/HMM-beads/Images/NewTrialWC.png","lowH","1","6","1","0","1","1","false","",""
"image-keyboard-response","156","317072","0.0-3.0-6.0-1.0-1.6","615e3c6bdb7c4e8e2ee86818","6662009ae78f21dd82fcd179","666204fdeb46cbfbd2bec21c","null","","null","","","","","","","","./tasks/HMM-beads/Images/WhiteBeadChoice.png","","","","","","","","","",""
"image-keyboard-response","157","317582","0.0-3.0-6.0-1.0-2.6","615e3c6bdb7c4e8e2ee86818","6662009ae78f21dd82fcd179","666204fdeb46cbfbd2bec21c","null","","null","","","","","","","","./tasks/HMM-beads/Images/WhiteBeadChoiceWrong.png","","","","","","","","","",""
"image-keyboard-response","158","318642","0.0-3.0-6.0-1.0-0.7","615e3c6bdb7c4e8e2ee86818","6662009ae78f21dd82fcd179","666204fdeb46cbfbd2bec21c","1059","","j","","","","","","","","./tasks/HMM-beads/Images/NewTrialBC.png","lowH","1","7","1","1","0","1","true","",""
"image-keyboard-response","159","318947","0.0-3.0-6.0-1.0-1.7","615e3c6bdb7c4e8e2ee86818","6662009ae78f21dd82fcd179","666204fdeb46cbfbd2bec21c","null","","null","","","","","","","","./tasks/HMM-beads/Images/WhiteBeadChoice.png","","","","","","","","","",""
"image-keyboard-response","160","319457","0.0-3.0-6.0-1.0-2.7","615e3c6bdb7c4e8e2ee86818","6662009ae78f21dd82fcd179","666204fdeb46cbfbd2bec21c","null","","null","","","","","","","","./tasks/HMM-beads/Images/WhiteBeadChoiceCorrect.png","","","","","","","","","",""
"image-keyboard-response","161","319914","0.0-3.0-6.0-1.0-0.8","615e3c6bdb7c4e8e2ee86818","6662009ae78f21dd82fcd179","666204fdeb46cbfbd2bec21c","456","","j","","","","","","","","./tasks/HMM-beads/Images/NewTrialWC.png","lowH","1","8","1","1","1","1","true","",""
"image-keyboard-response","162","320222","0.0-3.0-6.0-1.0-1.8","615e3c6bdb7c4e8e2ee86818","6662009ae78f21dd82fcd179","666204fdeb46cbfbd2bec21c","null","","null","","","","","","","","./tasks/HMM-beads/Images/WhiteBeadChoice.png","","","","","","","","","",""
"image-keyboard-response","163","320733","0.0-3.0-6.0-1.0-2.8","615e3c6bdb7c4e8e2ee86818","6662009ae78f21dd82fcd179","666204fdeb46cbfbd2bec21c","null","","null","","","","","","","","./tasks/HMM-beads/Images/WhiteBeadChoiceCorrect.png","","","","","","","","","",""
"image-keyboard-response","164","321242","0.0-3.0-6.0-1.0-0.9","615e3c6bdb7c4e8e2ee86818","6662009ae78f21dd82fcd179","666204fdeb46cbfbd2bec21c","509","","j","","","","","","","","./tasks/HMM-beads/Images/NewTrialWC.png","lowH","1","9","1","1","1","1","true","",""
"image-keyboard-response","165","321558","0.0-3.0-6.0-1.0-1.9","615e3c6bdb7c4e8e2ee86818","6662009ae78f21dd82fcd179","666204fdeb46cbfbd2bec21c","null","","null","","","","","","","","./tasks/HMM-beads/Images/WhiteBeadChoice.png","","","","","","","","","",""
"image-keyboard-response","166","322068","0.0-3.0-6.0-1.0-2.9","615e3c6bdb7c4e8e2ee86818","6662009ae78f21dd82fcd179","666204fdeb46cbfbd2bec21c","null","","null","","","","","","","","./tasks/HMM-beads/Images/WhiteBeadChoiceCorrect.png","","","","","","","","","",""
"image-keyboard-response","167","322434","0.0-3.0-6.0-1.0-0.10","615e3c6bdb7c4e8e2ee86818","6662009ae78f21dd82fcd179","666204fdeb46cbfbd2bec21c","365","","j","","","","","","","","./tasks/HMM-beads/Images/NewTrialWC.png","lowH","1","10","1","1","1","1","true","",""
"image-keyboard-response","168","322744","0.0-3.0-6.0-1.0-1.10","615e3c6bdb7c4e8e2ee86818","6662009ae78f21dd82fcd179","666204fdeb46cbfbd2bec21c","null","","null","","","","","","","","./tasks/HMM-beads/Images/WhiteBeadChoice.png","","","","","","","","","",""
"image-keyboard-response","169","323254","0.0-3.0-6.0-1.0-2.10","615e3c6bdb7c4e8e2ee86818","6662009ae78f21dd82fcd179","666204fdeb46cbfbd2bec21c","null","","null","","","","","","","","./tasks/HMM-beads/Images/WhiteBeadChoiceCorrect.png","","","","","","","","","",""
"image-keyboard-response","170","323666","0.0-3.0-6.0-1.0-0.11","615e3c6bdb7c4e8e2ee86818","6662009ae78f21dd82fcd179","666204fdeb46cbfbd2bec21c","411","","f","","","","","","","","./tasks/HMM-beads/Images/NewTrialWC.png","lowH","1","11","1","1","1","0","false","",""
"image-keyboard-response","171","323974","0.0-3.0-6.0-1.0-1.11","615e3c6bdb7c4e8e2ee86818","6662009ae78f21dd82fcd179","666204fdeb46cbfbd2bec21c","null","","null","","","","","","","","./tasks/HMM-beads/Images/BlackBeadChoice.png","","","","","","","","","",""
"image-keyboard-response","172","324484","0.0-3.0-6.0-1.0-2.11","615e3c6bdb7c4e8e2ee86818","6662009ae78f21dd82fcd179","666204fdeb46cbfbd2bec21c","null","","null","","","","","","","","./tasks/HMM-beads/Images/BlackBeadChoiceWrong.png","","","","","","","","","",""
"image-keyboard-response","173","324866","0.0-3.0-6.0-1.0-0.12","615e3c6bdb7c4e8e2ee86818","6662009ae78f21dd82fcd179","666204fdeb46cbfbd2bec21c","381","","j","","","","","","","","./tasks/HMM-beads/Images/NewTrialWC.png","lowH","1","12","1","1","1","1","true","",""
"image-keyboard-response","174","325174","0.0-3.0-6.0-1.0-1.12","615e3c6bdb7c4e8e2ee86818","6662009ae78f21dd82fcd179","666204fdeb46cbfbd2bec21c","null","","null","","","","","","","","./tasks/HMM-beads/Images/WhiteBeadChoice.png","","","","","","","","","",""
"image-keyboard-response","175","325684","0.0-3.0-6.0-1.0-2.12","615e3c6bdb7c4e8e2ee86818","6662009ae78f21dd82fcd179","666204fdeb46cbfbd2bec21c","null","","null","","","","","","","","./tasks/HMM-beads/Images/WhiteBeadChoiceCorrect.png","","","","","","","","","",""
"image-keyboard-response","176","326226","0.0-3.0-6.0-1.0-0.13","615e3c6bdb7c4e8e2ee86818","6662009ae78f21dd82fcd179","666204fdeb46cbfbd2bec21c","541","","j","","","","","","","","./tasks/HMM-beads/Images/NewTrialWC.png","lowH","1","13","1","0","1","1","false","",""
"image-keyboard-response","177","326539","0.0-3.0-6.0-1.0-1.13","615e3c6bdb7c4e8e2ee86818","6662009ae78f21dd82fcd179","666204fdeb46cbfbd2bec21c","null","","null","","","","","","","","./tasks/HMM-beads/Images/WhiteBeadChoice.png","","","","","","","","","",""
"image-keyboard-response","178","327049","0.0-3.0-6.0-1.0-2.13","615e3c6bdb7c4e8e2ee86818","6662009ae78f21dd82fcd179","666204fdeb46cbfbd2bec21c","null","","null","","","","","","","","./tasks/HMM-beads/Images/WhiteBeadChoiceWrong.png","","","","","","","","","",""
"image-keyboard-response","179","328051","0.0-3.0-6.0-1.0-0.14","615e3c6bdb7c4e8e2ee86818","6662009ae78f21dd82fcd179","666204fdeb46cbfbd2bec21c","1001","","j","","","","","","","","./tasks/HMM-beads/Images/NewTrialBC.png","lowH","1","14","1","0","0","1","false","",""
"image-keyboard-response","180","328354","0.0-3.0-6.0-1.0-1.14","615e3c6bdb7c4e8e2ee86818","6662009ae78f21dd82fcd179","666204fdeb46cbfbd2bec21c","null","","null","","","","","","","","./tasks/HMM-beads/Images/WhiteBeadChoice.png","","","","","","","","","",""
"image-keyboard-response","181","328864","0.0-3.0-6.0-1.0-2.14","615e3c6bdb7c4e8e2ee86818","6662009ae78f21dd82fcd179","666204fdeb46cbfbd2bec21c","null","","null","","","","","","","","./tasks/HMM-beads/Images/WhiteBeadChoiceWrong.png","","","","","","","","","",""
"image-keyboard-response","182","329754","0.0-3.0-6.0-1.0-0.15","615e3c6bdb7c4e8e2ee86818","6662009ae78f21dd82fcd179","666204fdeb46cbfbd2bec21c","889","","j","","","","","","","","./tasks/HMM-beads/Images/NewTrialBC.png","lowH","1","15","1","1","0","1","true","",""
"image-keyboard-response","183","330066","0.0-3.0-6.0-1.0-1.15","615e3c6bdb7c4e8e2ee86818","6662009ae78f21dd82fcd179","666204fdeb46cbfbd2bec21c","null","","null","","","","","","","","./tasks/HMM-beads/Images/WhiteBeadChoice.png","","","","","","","","","",""
"image-keyboard-response","184","330576","0.0-3.0-6.0-1.0-2.15","615e3c6bdb7c4e8e2ee86818","6662009ae78f21dd82fcd179","666204fdeb46cbfbd2bec21c","null","","null","","","","","","","","./tasks/HMM-beads/Images/WhiteBeadChoiceCorrect.png","","","","","","","","","",""
"image-keyboard-response","185","331202","0.0-3.0-6.0-1.0-0.16","615e3c6bdb7c4e8e2ee86818","6662009ae78f21dd82fcd179","666204fdeb46cbfbd2bec21c","625","","j","","","","","","","","./tasks/HMM-beads/Images/NewTrialWC.png","lowH","1","16","1","1","1","1","true","",""
"image-keyboard-response","186","331506","0.0-3.0-6.0-1.0-1.16","615e3c6bdb7c4e8e2ee86818","6662009ae78f21dd82fcd179","666204fdeb46cbfbd2bec21c","null","","null","","","","","","","","./tasks/HMM-beads/Images/WhiteBeadChoice.png","","","","","","","","","",""
"image-keyboard-response","187","332016","0.0-3.0-6.0-1.0-2.16","615e3c6bdb7c4e8e2ee86818","6662009ae78f21dd82fcd179","666204fdeb46cbfbd2bec21c","null","","null","","","","","","","","./tasks/HMM-beads/Images/WhiteBeadChoiceCorrect.png","","","","","","","","","",""
"image-keyboard-response","188","332562","0.0-3.0-6.0-1.0-0.17","615e3c6bdb7c4e8e2ee86818","6662009ae78f21dd82fcd179","666204fdeb46cbfbd2bec21c","545","","j","","","","","","","","./tasks/HMM-beads/Images/NewTrialWC.png","lowH","1","17","1","1","1","1","true","",""
"image-keyboard-response","189","332871","0.0-3.0-6.0-1.0-1.17","615e3c6bdb7c4e8e2ee86818","6662009ae78f21dd82fcd179","666204fdeb46cbfbd2bec21c","null","","null","","","","","","","","./tasks/HMM-beads/Images/WhiteBeadChoice.png","","","","","","","","","",""
"image-keyboard-response","190","333382","0.0-3.0-6.0-1.0-2.17","615e3c6bdb7c4e8e2ee86818","6662009ae78f21dd82fcd179","666204fdeb46cbfbd2bec21c","null","","null","","","","","","","","./tasks/HMM-beads/Images/WhiteBeadChoiceCorrect.png","","","","","","","","","",""
"image-keyboard-response","191","333778","0.0-3.0-6.0-1.0-0.18","615e3c6bdb7c4e8e2ee86818","6662009ae78f21dd82fcd179","666204fdeb46cbfbd2bec21c","396","","j","","","","","","","","./tasks/HMM-beads/Images/NewTrialWC.png","lowH","1","18","1","1","1","1","true","",""
"image-keyboard-response","192","334087","0.0-3.0-6.0-1.0-1.18","615e3c6bdb7c4e8e2ee86818","6662009ae78f21dd82fcd179","666204fdeb46cbfbd2bec21c","null","","null","","","","","","","","./tasks/HMM-beads/Images/WhiteBeadChoice.png","","","","","","","","","",""
"image-keyboard-response","193","334597","0.0-3.0-6.0-1.0-2.18","615e3c6bdb7c4e8e2ee86818","6662009ae78f21dd82fcd179","666204fdeb46cbfbd2bec21c","null","","null","","","","","","","","./tasks/HMM-beads/Images/WhiteBeadChoiceCorrect.png","","","","","","","","","",""
"image-keyboard-response","194","335042","0.0-3.0-6.0-1.0-0.19","615e3c6bdb7c4e8e2ee86818","6662009ae78f21dd82fcd179","666204fdeb46cbfbd2bec21c","444","","j","","","","","","","","./tasks/HMM-beads/Images/NewTrialWC.png","lowH","1","19","1","1","1","1","true","",""
"image-keyboard-response","195","335347","0.0-3.0-6.0-1.0-1.19","615e3c6bdb7c4e8e2ee86818","6662009ae78f21dd82fcd179","666204fdeb46cbfbd2bec21c","null","","null","","","","","","","","./tasks/HMM-beads/Images/WhiteBeadChoice.png","","","","","","","","","",""
"image-keyboard-response","196","335857","0.0-3.0-6.0-1.0-2.19","615e3c6bdb7c4e8e2ee86818","6662009ae78f21dd82fcd179","666204fdeb46cbfbd2bec21c","null","","null","","","","","","","","./tasks/HMM-beads/Images/WhiteBeadChoiceCorrect.png","","","","","","","","","",""
"image-keyboard-response","197","336242","0.0-3.0-6.0-1.0-0.20","615e3c6bdb7c4e8e2ee86818","6662009ae78f21dd82fcd179","666204fdeb46cbfbd2bec21c","384","","j","","","","","","","","./tasks/HMM-beads/Images/NewTrialWC.png","lowH","1","20","1","1","1","1","true","",""
"image-keyboard-response","198","336547","0.0-3.0-6.0-1.0-1.20","615e3c6bdb7c4e8e2ee86818","6662009ae78f21dd82fcd179","666204fdeb46cbfbd2bec21c","null","","null","","","","","","","","./tasks/HMM-beads/Images/WhiteBeadChoice.png","","","","","","","","","",""
"image-keyboard-response","199","337057","0.0-3.0-6.0-1.0-2.20","615e3c6bdb7c4e8e2ee86818","6662009ae78f21dd82fcd179","666204fdeb46cbfbd2bec21c","null","","null","","","","","","","","./tasks/HMM-beads/Images/WhiteBeadChoiceCorrect.png","","","","","","","","","",""
"image-keyboard-response","200","337242","0.0-3.0-6.0-1.0-0.21","615e3c6bdb7c4e8e2ee86818","6662009ae78f21dd82fcd179","666204fdeb46cbfbd2bec21c","184","","j","","","","","","","","./tasks/HMM-beads/Images/NewTrialWC.png","lowH","1","21","1","1","1","1","true","",""
"image-keyboard-response","201","337552","0.0-3.0-6.0-1.0-1.21","615e3c6bdb7c4e8e2ee86818","6662009ae78f21dd82fcd179","666204fdeb46cbfbd2bec21c","null","","null","","","","","","","","./tasks/HMM-beads/Images/WhiteBeadChoice.png","","","","","","","","","",""
"image-keyboard-response","202","338062","0.0-3.0-6.0-1.0-2.21","615e3c6bdb7c4e8e2ee86818","6662009ae78f21dd82fcd179","666204fdeb46cbfbd2bec21c","null","","null","","","","","","","","./tasks/HMM-beads/Images/WhiteBeadChoiceCorrect.png","","","","","","","","","",""
"image-keyboard-response","203","338355","0.0-3.0-6.0-1.0-0.22","615e3c6bdb7c4e8e2ee86818","6662009ae78f21dd82fcd179","666204fdeb46cbfbd2bec21c","293","","j","","","","","","","","./tasks/HMM-beads/Images/NewTrialWC.png","lowH","1","22","1","1","1","1","true","",""
"image-keyboard-response","204","338662","0.0-3.0-6.0-1.0-1.22","615e3c6bdb7c4e8e2ee86818","6662009ae78f21dd82fcd179","666204fdeb46cbfbd2bec21c","null","","null","","","","","","","","./tasks/HMM-beads/Images/WhiteBeadChoice.png","","","","","","","","","",""
"image-keyboard-response","205","339172","0.0-3.0-6.0-1.0-2.22","615e3c6bdb7c4e8e2ee86818","6662009ae78f21dd82fcd179","666204fdeb46cbfbd2bec21c","null","","null","","","","","","","","./tasks/HMM-beads/Images/WhiteBeadChoiceCorrect.png","","","","","","","","","",""
"image-keyboard-response","206","339490","0.0-3.0-6.0-1.0-0.23","615e3c6bdb7c4e8e2ee86818","6662009ae78f21dd82fcd179","666204fdeb46cbfbd2bec21c","317","","j","","","","","","","","./tasks/HMM-beads/Images/NewTrialWC.png","lowH","1","23","1","1","1","1","true","",""
"image-keyboard-response","207","339802","0.0-3.0-6.0-1.0-1.23","615e3c6bdb7c4e8e2ee86818","6662009ae78f21dd82fcd179","666204fdeb46cbfbd2bec21c","null","","null","","","","","","","","./tasks/HMM-beads/Images/WhiteBeadChoice.png","","","","","","","","","",""
"image-keyboard-response","208","340312","0.0-3.0-6.0-1.0-2.23","615e3c6bdb7c4e8e2ee86818","6662009ae78f21dd82fcd179","666204fdeb46cbfbd2bec21c","null","","null","","","","","","","","./tasks/HMM-beads/Images/WhiteBeadChoiceCorrect.png","","","","","","","","","",""
"image-keyboard-response","209","340458","0.0-3.0-6.0-1.0-0.24","615e3c6bdb7c4e8e2ee86818","6662009ae78f21dd82fcd179","666204fdeb46cbfbd2bec21c","145","","j","","","","","","","","./tasks/HMM-beads/Images/NewTrialWC.png","lowH","1","24","1","0","1","1","false","",""
"image-keyboard-response","210","340762","0.0-3.0-6.0-1.0-1.24","615e3c6bdb7c4e8e2ee86818","6662009ae78f21dd82fcd179","666204fdeb46cbfbd2bec21c","null","","null","","","","","","","","./tasks/HMM-beads/Images/WhiteBeadChoice.png","","","","","","","","","",""
"image-keyboard-response","211","341272","0.0-3.0-6.0-1.0-2.24","615e3c6bdb7c4e8e2ee86818","6662009ae78f21dd82fcd179","666204fdeb46cbfbd2bec21c","null","","null","","","","","","","","./tasks/HMM-beads/Images/WhiteBeadChoiceWrong.png","","","","","","","","","",""
"image-keyboard-response","212","342474","0.0-3.0-6.0-1.0-0.25","615e3c6bdb7c4e8e2ee86818","6662009ae78f21dd82fcd179","666204fdeb46cbfbd2bec21c","1201","","j","","","","","","","","./tasks/HMM-beads/Images/NewTrialBC.png","lowH","1","25","1","1","0","1","true","",""
"image-keyboard-response","213","342787","0.0-3.0-6.0-1.0-1.25","615e3c6bdb7c4e8e2ee86818","6662009ae78f21dd82fcd179","666204fdeb46cbfbd2bec21c","null","","null","","","","","","","","./tasks/HMM-beads/Images/WhiteBeadChoice.png","","","","","","","","","",""
"image-keyboard-response","214","343297","0.0-3.0-6.0-1.0-2.25","615e3c6bdb7c4e8e2ee86818","6662009ae78f21dd82fcd179","666204fdeb46cbfbd2bec21c","null","","null","","","","","","","","./tasks/HMM-beads/Images/WhiteBeadChoiceCorrect.png","","","","","","","","","",""
"image-keyboard-response","215","343458","0.0-3.0-6.0-1.0-0.26","615e3c6bdb7c4e8e2ee86818","6662009ae78f21dd82fcd179","666204fdeb46cbfbd2bec21c","160","","j","","","","","","","","./tasks/HMM-beads/Images/NewTrialWC.png","lowH","1","26","1","0","1","1","false","",""
"image-keyboard-response","216","343762","0.0-3.0-6.0-1.0-1.26","615e3c6bdb7c4e8e2ee86818","6662009ae78f21dd82fcd179","666204fdeb46cbfbd2bec21c","null","","null","","","","","","","","./tasks/HMM-beads/Images/WhiteBeadChoice.png","","","","","","","","","",""
"image-keyboard-response","217","344272","0.0-3.0-6.0-1.0-2.26","615e3c6bdb7c4e8e2ee86818","6662009ae78f21dd82fcd179","666204fdeb46cbfbd2bec21c","null","","null","","","","","","","","./tasks/HMM-beads/Images/WhiteBeadChoiceWrong.png","","","","","","","","","",""
"image-keyboard-response","218","344610","0.0-3.0-6.0-1.0-0.27","615e3c6bdb7c4e8e2ee86818","6662009ae78f21dd82fcd179","666204fdeb46cbfbd2bec21c","337","","j","","","","","","","","./tasks/HMM-beads/Images/NewTrialBC.png","lowH","1","27","1","1","0","1","true","",""
"image-keyboard-response","219","344917","0.0-3.0-6.0-1.0-1.27","615e3c6bdb7c4e8e2ee86818","6662009ae78f21dd82fcd179","666204fdeb46cbfbd2bec21c","null","","null","","","","","","","","./tasks/HMM-beads/Images/WhiteBeadChoice.png","","","","","","","","","",""
"image-keyboard-response","220","345427","0.0-3.0-6.0-1.0-2.27","615e3c6bdb7c4e8e2ee86818","6662009ae78f21dd82fcd179","666204fdeb46cbfbd2bec21c","null","","null","","","","","","","","./tasks/HMM-beads/Images/WhiteBeadChoiceCorrect.png","","","","","","","","","",""
"image-keyboard-response","221","345722","0.0-3.0-6.0-1.0-0.28","615e3c6bdb7c4e8e2ee86818","6662009ae78f21dd82fcd179","666204fdeb46cbfbd2bec21c","294","","j","","","","","","","","./tasks/HMM-beads/Images/NewTrialWC.png","lowH","1","28","1","1","1","1","true","",""
"image-keyboard-response","222","346027","0.0-3.0-6.0-1.0-1.28","615e3c6bdb7c4e8e2ee86818","6662009ae78f21dd82fcd179","666204fdeb46cbfbd2bec21c","null","","null","","","","","","","","./tasks/HMM-beads/Images/WhiteBeadChoice.png","","","","","","","","","",""
"image-keyboard-response","223","346538","0.0-3.0-6.0-1.0-2.28","615e3c6bdb7c4e8e2ee86818","6662009ae78f21dd82fcd179","666204fdeb46cbfbd2bec21c","null","","null","","","","","","","","./tasks/HMM-beads/Images/WhiteBeadChoiceCorrect.png","","","","","","","","","",""
"image-keyboard-response","224","346922","0.0-3.0-6.0-1.0-0.29","615e3c6bdb7c4e8e2ee86818","6662009ae78f21dd82fcd179","666204fdeb46cbfbd2bec21c","383","","j","","","","","","","","./tasks/HMM-beads/Images/NewTrialWC.png","lowH","1","29","1","1","1","1","true","",""
"image-keyboard-response","225","347228","0.0-3.0-6.0-1.0-1.29","615e3c6bdb7c4e8e2ee86818","6662009ae78f21dd82fcd179","666204fdeb46cbfbd2bec21c","null","","null","","","","","","","","./tasks/HMM-beads/Images/WhiteBeadChoice.png","","","","","","","","","",""
"image-keyboard-response","226","347738","0.0-3.0-6.0-1.0-2.29","615e3c6bdb7c4e8e2ee86818","6662009ae78f21dd82fcd179","666204fdeb46cbfbd2bec21c","null","","null","","","","","","","","./tasks/HMM-beads/Images/WhiteBeadChoiceCorrect.png","","","","","","","","","",""
"image-keyboard-response","227","348026","0.0-3.0-6.0-1.0-0.30","615e3c6bdb7c4e8e2ee86818","6662009ae78f21dd82fcd179","666204fdeb46cbfbd2bec21c","287","","j","","","","","","","","./tasks/HMM-beads/Images/NewTrialWC.png","lowH","1","30","1","1","1","1","true","",""
"image-keyboard-response","228","348338","0.0-3.0-6.0-1.0-1.30","615e3c6bdb7c4e8e2ee86818","6662009ae78f21dd82fcd179","666204fdeb46cbfbd2bec21c","null","","null","","","","","","","","./tasks/HMM-beads/Images/WhiteBeadChoice.png","","","","","","","","","",""
"image-keyboard-response","229","348849","0.0-3.0-6.0-1.0-2.30","615e3c6bdb7c4e8e2ee86818","6662009ae78f21dd82fcd179","666204fdeb46cbfbd2bec21c","null","","null","","","","","","","","./tasks/HMM-beads/Images/WhiteBeadChoiceCorrect.png","","","","","","","","","",""
"image-keyboard-response","230","349083","0.0-3.0-6.0-1.0-0.31","615e3c6bdb7c4e8e2ee86818","6662009ae78f21dd82fcd179","666204fdeb46cbfbd2bec21c","234","","j","","","","","","","","./tasks/HMM-beads/Images/NewTrialWC.png","lowH","1","31","1","1","1","1","true","",""
"image-keyboard-response","231","349389","0.0-3.0-6.0-1.0-1.31","615e3c6bdb7c4e8e2ee86818","6662009ae78f21dd82fcd179","666204fdeb46cbfbd2bec21c","null","","null","","","","","","","","./tasks/HMM-beads/Images/WhiteBeadChoice.png","","","","","","","","","",""
"image-keyboard-response","232","349899","0.0-3.0-6.0-1.0-2.31","615e3c6bdb7c4e8e2ee86818","6662009ae78f21dd82fcd179","666204fdeb46cbfbd2bec21c","null","","null","","","","","","","","./tasks/HMM-beads/Images/WhiteBeadChoiceCorrect.png","","","","","","","","","",""
"image-keyboard-response","233","350266","0.0-3.0-6.0-1.0-0.32","615e3c6bdb7c4e8e2ee86818","6662009ae78f21dd82fcd179","666204fdeb46cbfbd2bec21c","360","","j","","","","","","","","./tasks/HMM-beads/Images/NewTrialWC.png","lowH","1","32","1","1","1","1","true","",""
"image-keyboard-response","234","350574","0.0-3.0-6.0-1.0-1.32","615e3c6bdb7c4e8e2ee86818","6662009ae78f21dd82fcd179","666204fdeb46cbfbd2bec21c","null","","null","","","","","","","","./tasks/HMM-beads/Images/WhiteBeadChoice.png","","","","","","","","","",""
"image-keyboard-response","235","351084","0.0-3.0-6.0-1.0-2.32","615e3c6bdb7c4e8e2ee86818","6662009ae78f21dd82fcd179","666204fdeb46cbfbd2bec21c","null","","null","","","","","","","","./tasks/HMM-beads/Images/WhiteBeadChoiceCorrect.png","","","","","","","","","",""
"image-keyboard-response","236","351402","0.0-3.0-6.0-1.0-0.33","615e3c6bdb7c4e8e2ee86818","6662009ae78f21dd82fcd179","666204fdeb46cbfbd2bec21c","317","","j","","","","","","","","./tasks/HMM-beads/Images/NewTrialWC.png","lowH","1","33","1","1","1","1","true","",""
"image-keyboard-response","237","351715","0.0-3.0-6.0-1.0-1.33","615e3c6bdb7c4e8e2ee86818","6662009ae78f21dd82fcd179","666204fdeb46cbfbd2bec21c","null","","null","","","","","","","","./tasks/HMM-beads/Images/WhiteBeadChoice.png","","","","","","","","","",""
"image-keyboard-response","238","352225","0.0-3.0-6.0-1.0-2.33","615e3c6bdb7c4e8e2ee86818","6662009ae78f21dd82fcd179","666204fdeb46cbfbd2bec21c","null","","null","","","","","","","","./tasks/HMM-beads/Images/WhiteBeadChoiceCorrect.png","","","","","","","","","",""
"image-keyboard-response","239","352818","0.0-3.0-6.0-1.0-0.34","615e3c6bdb7c4e8e2ee86818","6662009ae78f21dd82fcd179","666204fdeb46cbfbd2bec21c","592","","j","","","","","","","","./tasks/HMM-beads/Images/NewTrialWC.png","lowH","1","34","1","1","1","1","true","",""
"image-keyboard-response","240","353125","0.0-3.0-6.0-1.0-1.34","615e3c6bdb7c4e8e2ee86818","6662009ae78f21dd82fcd179","666204fdeb46cbfbd2bec21c","null","","null","","","","","","","","./tasks/HMM-beads/Images/WhiteBeadChoice.png","","","","","","","","","",""
"image-keyboard-response","241","353627","0.0-3.0-6.0-1.0-2.34","615e3c6bdb7c4e8e2ee86818","6662009ae78f21dd82fcd179","666204fdeb46cbfbd2bec21c","null","","null","","","","","","","","./tasks/HMM-beads/Images/WhiteBeadChoiceCorrect.png","","","","","","","","","",""
"image-keyboard-response","242","355338","0.0-3.0-6.0-1.0-0.35","615e3c6bdb7c4e8e2ee86818","6662009ae78f21dd82fcd179","666204fdeb46cbfbd2bec21c","1710","","j","","","","","","","","./tasks/HMM-beads/Images/NewTrialWC.png","lowH","1","35","1","1","1","1","true","",""
"image-keyboard-response","243","355645","0.0-3.0-6.0-1.0-1.35","615e3c6bdb7c4e8e2ee86818","6662009ae78f21dd82fcd179","666204fdeb46cbfbd2bec21c","null","","null","","","","","","","","./tasks/HMM-beads/Images/WhiteBeadChoice.png","","","","","","","","","",""
"image-keyboard-response","244","356155","0.0-3.0-6.0-1.0-2.35","615e3c6bdb7c4e8e2ee86818","6662009ae78f21dd82fcd179","666204fdeb46cbfbd2bec21c","null","","null","","","","","","","","./tasks/HMM-beads/Images/WhiteBeadChoiceCorrect.png","","","","","","","","","",""
"image-keyboard-response","245","356530","0.0-3.0-6.0-1.0-0.36","615e3c6bdb7c4e8e2ee86818","6662009ae78f21dd82fcd179","666204fdeb46cbfbd2bec21c","374","","j","","","","","","","","./tasks/HMM-beads/Images/NewTrialWC.png","lowH","1","36","1","1","1","1","true","",""
"image-keyboard-response","246","356845","0.0-3.0-6.0-1.0-1.36","615e3c6bdb7c4e8e2ee86818","6662009ae78f21dd82fcd179","666204fdeb46cbfbd2bec21c","null","","null","","","","","","","","./tasks/HMM-beads/Images/WhiteBeadChoice.png","","","","","","","","","",""
"image-keyboard-response","247","357355","0.0-3.0-6.0-1.0-2.36","615e3c6bdb7c4e8e2ee86818","6662009ae78f21dd82fcd179","666204fdeb46cbfbd2bec21c","null","","null","","","","","","","","./tasks/HMM-beads/Images/WhiteBeadChoiceCorrect.png","","","","","","","","","",""
"image-keyboard-response","248","357658","0.0-3.0-6.0-1.0-0.37","615e3c6bdb7c4e8e2ee86818","6662009ae78f21dd82fcd179","666204fdeb46cbfbd2bec21c","302","","j","","","","","","","","./tasks/HMM-beads/Images/NewTrialWC.png","lowH","1","37","1","1","1","1","true","",""
"image-keyboard-response","249","357970","0.0-3.0-6.0-1.0-1.37","615e3c6bdb7c4e8e2ee86818","6662009ae78f21dd82fcd179","666204fdeb46cbfbd2bec21c","null","","null","","","","","","","","./tasks/HMM-beads/Images/WhiteBeadChoice.png","","","","","","","","","",""
"image-keyboard-response","250","358480","0.0-3.0-6.0-1.0-2.37","615e3c6bdb7c4e8e2ee86818","6662009ae78f21dd82fcd179","666204fdeb46cbfbd2bec21c","null","","null","","","","","","","","./tasks/HMM-beads/Images/WhiteBeadChoiceCorrect.png","","","","","","","","","",""
"image-keyboard-response","251","358634","0.0-3.0-6.0-1.0-0.38","615e3c6bdb7c4e8e2ee86818","6662009ae78f21dd82fcd179","666204fdeb46cbfbd2bec21c","153","","j","","","","","","","","./tasks/HMM-beads/Images/NewTrialWC.png","lowH","1","38","1","1","1","1","true","",""
"image-keyboard-response","252","358945","0.0-3.0-6.0-1.0-1.38","615e3c6bdb7c4e8e2ee86818","6662009ae78f21dd82fcd179","666204fdeb46cbfbd2bec21c","null","","null","","","","","","","","./tasks/HMM-beads/Images/WhiteBeadChoice.png","","","","","","","","","",""
"image-keyboard-response","253","359455","0.0-3.0-6.0-1.0-2.38","615e3c6bdb7c4e8e2ee86818","6662009ae78f21dd82fcd179","666204fdeb46cbfbd2bec21c","null","","null","","","","","","","","./tasks/HMM-beads/Images/WhiteBeadChoiceCorrect.png","","","","","","","","","",""
"image-keyboard-response","254","359684","0.0-3.0-6.0-1.0-0.39","615e3c6bdb7c4e8e2ee86818","6662009ae78f21dd82fcd179","666204fdeb46cbfbd2bec21c","227","","j","","","","","","","","./tasks/HMM-beads/Images/NewTrialWC.png","lowH","1","39","1","1","1","1","true","",""
"image-keyboard-response","255","359995","0.0-3.0-6.0-1.0-1.39","615e3c6bdb7c4e8e2ee86818","6662009ae78f21dd82fcd179","666204fdeb46cbfbd2bec21c","null","","null","","","","","","","","./tasks/HMM-beads/Images/WhiteBeadChoice.png","","","","","","","","","",""
"image-keyboard-response","256","360506","0.0-3.0-6.0-1.0-2.39","615e3c6bdb7c4e8e2ee86818","6662009ae78f21dd82fcd179","666204fdeb46cbfbd2bec21c","null","","null","","","","","","","","./tasks/HMM-beads/Images/WhiteBeadChoiceCorrect.png","","","","","","","","","",""
"image-keyboard-response","257","360738","0.0-3.0-6.0-1.0-0.40","615e3c6bdb7c4e8e2ee86818","6662009ae78f21dd82fcd179","666204fdeb46cbfbd2bec21c","231","","j","","","","","","","","./tasks/HMM-beads/Images/NewTrialWC.png","lowH","1","40","1","1","1","1","true","",""
"image-keyboard-response","258","361046","0.0-3.0-6.0-1.0-1.40","615e3c6bdb7c4e8e2ee86818","6662009ae78f21dd82fcd179","666204fdeb46cbfbd2bec21c","null","","null","","","","","","","","./tasks/HMM-beads/Images/WhiteBeadChoice.png","","","","","","","","","",""
"image-keyboard-response","259","361556","0.0-3.0-6.0-1.0-2.40","615e3c6bdb7c4e8e2ee86818","6662009ae78f21dd82fcd179","666204fdeb46cbfbd2bec21c","null","","null","","","","","","","","./tasks/HMM-beads/Images/WhiteBeadChoiceCorrect.png","","","","","","","","","",""
"image-keyboard-response","260","361874","0.0-3.0-6.0-1.0-0.41","615e3c6bdb7c4e8e2ee86818","6662009ae78f21dd82fcd179","666204fdeb46cbfbd2bec21c","317","","j","","","","","","","","./tasks/HMM-beads/Images/NewTrialWC.png","lowH","1","41","1","1","1","1","true","",""
"image-keyboard-response","261","362186","0.0-3.0-6.0-1.0-1.41","615e3c6bdb7c4e8e2ee86818","6662009ae78f21dd82fcd179","666204fdeb46cbfbd2bec21c","null","","null","","","","","","","","./tasks/HMM-beads/Images/WhiteBeadChoice.png","","","","","","","","","",""
"image-keyboard-response","262","362696","0.0-3.0-6.0-1.0-2.41","615e3c6bdb7c4e8e2ee86818","6662009ae78f21dd82fcd179","666204fdeb46cbfbd2bec21c","null","","null","","","","","","","","./tasks/HMM-beads/Images/WhiteBeadChoiceCorrect.png","","","","","","","","","",""
"image-keyboard-response","263","363010","0.0-3.0-6.0-1.0-0.42","615e3c6bdb7c4e8e2ee86818","6662009ae78f21dd82fcd179","666204fdeb46cbfbd2bec21c","313","","j","","","","","","","","./tasks/HMM-beads/Images/NewTrialWC.png","lowH","1","42","1","1","1","1","true","",""
"image-keyboard-response","264","363312","0.0-3.0-6.0-1.0-1.42","615e3c6bdb7c4e8e2ee86818","6662009ae78f21dd82fcd179","666204fdeb46cbfbd2bec21c","null","","null","","","","","","","","./tasks/HMM-beads/Images/WhiteBeadChoice.png","","","","","","","","","",""
"image-keyboard-response","265","363822","0.0-3.0-6.0-1.0-2.42","615e3c6bdb7c4e8e2ee86818","6662009ae78f21dd82fcd179","666204fdeb46cbfbd2bec21c","null","","null","","","","","","","","./tasks/HMM-beads/Images/WhiteBeadChoiceCorrect.png","","","","","","","","","",""
"image-keyboard-response","266","364090","0.0-3.0-6.0-1.0-0.43","615e3c6bdb7c4e8e2ee86818","6662009ae78f21dd82fcd179","666204fdeb46cbfbd2bec21c","267","","j","","","","","","","","./tasks/HMM-beads/Images/NewTrialWC.png","lowH","1","43","1","1","1","1","true","",""
"image-keyboard-response","267","364393","0.0-3.0-6.0-1.0-1.43","615e3c6bdb7c4e8e2ee86818","6662009ae78f21dd82fcd179","666204fdeb46cbfbd2bec21c","null","","null","","","","","","","","./tasks/HMM-beads/Images/WhiteBeadChoice.png","","","","","","","","","",""
"image-keyboard-response","268","364904","0.0-3.0-6.0-1.0-2.43","615e3c6bdb7c4e8e2ee86818","6662009ae78f21dd82fcd179","666204fdeb46cbfbd2bec21c","null","","null","","","","","","","","./tasks/HMM-beads/Images/WhiteBeadChoiceCorrect.png","","","","","","","","","",""
"image-keyboard-response","269","365290","0.0-3.0-6.0-1.0-0.44","615e3c6bdb7c4e8e2ee86818","6662009ae78f21dd82fcd179","666204fdeb46cbfbd2bec21c","385","","j","","","","","","","","./tasks/HMM-beads/Images/NewTrialWC.png","lowH","1","44","1","1","1","1","true","",""
"image-keyboard-response","270","365594","0.0-3.0-6.0-1.0-1.44","615e3c6bdb7c4e8e2ee86818","6662009ae78f21dd82fcd179","666204fdeb46cbfbd2bec21c","null","","null","","","","","","","","./tasks/HMM-beads/Images/WhiteBeadChoice.png","","","","","","","","","",""
"image-keyboard-response","271","366104","0.0-3.0-6.0-1.0-2.44","615e3c6bdb7c4e8e2ee86818","6662009ae78f21dd82fcd179","666204fdeb46cbfbd2bec21c","null","","null","","","","","","","","./tasks/HMM-beads/Images/WhiteBeadChoiceCorrect.png","","","","","","","","","",""
"image-keyboard-response","272","366314","0.0-3.0-6.0-1.0-0.45","615e3c6bdb7c4e8e2ee86818","6662009ae78f21dd82fcd179","666204fdeb46cbfbd2bec21c","209","","j","","","","","","","","./tasks/HMM-beads/Images/NewTrialWC.png","lowH","1","45","1","1","1","1","true","",""
"image-keyboard-response","273","366629","0.0-3.0-6.0-1.0-1.45","615e3c6bdb7c4e8e2ee86818","6662009ae78f21dd82fcd179","666204fdeb46cbfbd2bec21c","null","","null","","","","","","","","./tasks/HMM-beads/Images/WhiteBeadChoice.png","","","","","","","","","",""
"image-keyboard-response","274","367139","0.0-3.0-6.0-1.0-2.45","615e3c6bdb7c4e8e2ee86818","6662009ae78f21dd82fcd179","666204fdeb46cbfbd2bec21c","null","","null","","","","","","","","./tasks/HMM-beads/Images/WhiteBeadChoiceCorrect.png","","","","","","","","","",""
"image-keyboard-response","275","367482","0.0-3.0-6.0-1.0-0.46","615e3c6bdb7c4e8e2ee86818","6662009ae78f21dd82fcd179","666204fdeb46cbfbd2bec21c","342","","j","","","","","","","","./tasks/HMM-beads/Images/NewTrialWC.png","lowH","1","46","1","1","1","1","true","",""
"image-keyboard-response","276","367784","0.0-3.0-6.0-1.0-1.46","615e3c6bdb7c4e8e2ee86818","6662009ae78f21dd82fcd179","666204fdeb46cbfbd2bec21c","null","","null","","","","","","","","./tasks/HMM-beads/Images/WhiteBeadChoice.png","","","","","","","","","",""
"image-keyboard-response","277","368294","0.0-3.0-6.0-1.0-2.46","615e3c6bdb7c4e8e2ee86818","6662009ae78f21dd82fcd179","666204fdeb46cbfbd2bec21c","null","","null","","","","","","","","./tasks/HMM-beads/Images/WhiteBeadChoiceCorrect.png","","","","","","","","","",""
"image-keyboard-response","278","368594","0.0-3.0-6.0-1.0-0.47","615e3c6bdb7c4e8e2ee86818","6662009ae78f21dd82fcd179","666204fdeb46cbfbd2bec21c","299","","j","","","","","","","","./tasks/HMM-beads/Images/NewTrialWC.png","lowH","1","47","1","0","1","1","false","",""
"image-keyboard-response","279","368909","0.0-3.0-6.0-1.0-1.47","615e3c6bdb7c4e8e2ee86818","6662009ae78f21dd82fcd179","666204fdeb46cbfbd2bec21c","null","","null","","","","","","","","./tasks/HMM-beads/Images/WhiteBeadChoice.png","","","","","","","","","",""
"image-keyboard-response","280","369419","0.0-3.0-6.0-1.0-2.47","615e3c6bdb7c4e8e2ee86818","6662009ae78f21dd82fcd179","666204fdeb46cbfbd2bec21c","null","","null","","","","","","","","./tasks/HMM-beads/Images/WhiteBeadChoiceWrong.png","","","","","","","","","",""
"image-keyboard-response","281","369987","0.0-3.0-6.0-1.0-0.48","615e3c6bdb7c4e8e2ee86818","6662009ae78f21dd82fcd179","666204fdeb46cbfbd2bec21c","567","","j","","","","","","","","./tasks/HMM-beads/Images/NewTrialBC.png","lowH","1","48","1","0","0","1","false","",""
"image-keyboard-response","282","370290","0.0-3.0-6.0-1.0-1.48","615e3c6bdb7c4e8e2ee86818","6662009ae78f21dd82fcd179","666204fdeb46cbfbd2bec21c","null","","null","","","","","","","","./tasks/HMM-beads/Images/WhiteBeadChoice.png","","","","","","","","","",""
"image-keyboard-response","283","370800","0.0-3.0-6.0-1.0-2.48","615e3c6bdb7c4e8e2ee86818","6662009ae78f21dd82fcd179","666204fdeb46cbfbd2bec21c","null","","null","","","","","","","","./tasks/HMM-beads/Images/WhiteBeadChoiceWrong.png","","","","","","","","","",""
"image-keyboard-response","284","371122","0.0-3.0-6.0-1.0-0.49","615e3c6bdb7c4e8e2ee86818","6662009ae78f21dd82fcd179","666204fdeb46cbfbd2bec21c","321","","j","","","","","","","","./tasks/HMM-beads/Images/NewTrialBC.png","lowH","1","49","1","0","0","1","false","",""
"image-keyboard-response","285","371432","0.0-3.0-6.0-1.0-1.49","615e3c6bdb7c4e8e2ee86818","6662009ae78f21dd82fcd179","666204fdeb46cbfbd2bec21c","null","","null","","","","","","","","./tasks/HMM-beads/Images/WhiteBeadChoice.png","","","","","","","","","",""
"image-keyboard-response","286","371941","0.0-3.0-6.0-1.0-2.49","615e3c6bdb7c4e8e2ee86818","6662009ae78f21dd82fcd179","666204fdeb46cbfbd2bec21c","null","","null","","","","","","","","./tasks/HMM-beads/Images/WhiteBeadChoiceWrong.png","","","","","","","","","",""
"image-keyboard-response","287","372282","0.0-3.0-6.0-1.0-0.50","615e3c6bdb7c4e8e2ee86818","6662009ae78f21dd82fcd179","666204fdeb46cbfbd2bec21c","340","","j","","","","","","","","./tasks/HMM-beads/Images/NewTrialBC.png","lowH","1","50","1","1","0","1","true","",""
"image-keyboard-response","288","372587","0.0-3.0-6.0-1.0-1.50","615e3c6bdb7c4e8e2ee86818","6662009ae78f21dd82fcd179","666204fdeb46cbfbd2bec21c","null","","null","","","","","","","","./tasks/HMM-beads/Images/WhiteBeadChoice.png","","","","","","","","","",""
"image-keyboard-response","289","373097","0.0-3.0-6.0-1.0-2.50","615e3c6bdb7c4e8e2ee86818","6662009ae78f21dd82fcd179","666204fdeb46cbfbd2bec21c","null","","null","","","","","","","","./tasks/HMM-beads/Images/WhiteBeadChoiceCorrect.png","","","","","","","","","",""
"image-keyboard-response","290","373314","0.0-3.0-6.0-1.0-0.51","615e3c6bdb7c4e8e2ee86818","6662009ae78f21dd82fcd179","666204fdeb46cbfbd2bec21c","216","","j","","","","","","","","./tasks/HMM-beads/Images/NewTrialWC.png","lowH","1","51","1","1","1","1","true","",""
"image-keyboard-response","291","373623","0.0-3.0-6.0-1.0-1.51","615e3c6bdb7c4e8e2ee86818","6662009ae78f21dd82fcd179","666204fdeb46cbfbd2bec21c","null","","null","","","","","","","","./tasks/HMM-beads/Images/WhiteBeadChoice.png","","","","","","","","","",""
"image-keyboard-response","292","374133","0.0-3.0-6.0-1.0-2.51","615e3c6bdb7c4e8e2ee86818","6662009ae78f21dd82fcd179","666204fdeb46cbfbd2bec21c","null","","null","","","","","","","","./tasks/HMM-beads/Images/WhiteBeadChoiceCorrect.png","","","","","","","","","",""
"image-keyboard-response","293","374386","0.0-3.0-6.0-1.0-0.52","615e3c6bdb7c4e8e2ee86818","6662009ae78f21dd82fcd179","666204fdeb46cbfbd2bec21c","252","","j","","","","","","","","./tasks/HMM-beads/Images/NewTrialWC.png","lowH","1","52","1","1","1","1","true","",""
"image-keyboard-response","294","374689","0.0-3.0-6.0-1.0-1.52","615e3c6bdb7c4e8e2ee86818","6662009ae78f21dd82fcd179","666204fdeb46cbfbd2bec21c","null","","null","","","","","","","","./tasks/HMM-beads/Images/WhiteBeadChoice.png","","","","","","","","","",""
"image-keyboard-response","295","375199","0.0-3.0-6.0-1.0-2.52","615e3c6bdb7c4e8e2ee86818","6662009ae78f21dd82fcd179","666204fdeb46cbfbd2bec21c","null","","null","","","","","","","","./tasks/HMM-beads/Images/WhiteBeadChoiceCorrect.png","","","","","","","","","",""
"image-keyboard-response","296","375426","0.0-3.0-6.0-1.0-0.53","615e3c6bdb7c4e8e2ee86818","6662009ae78f21dd82fcd179","666204fdeb46cbfbd2bec21c","226","","j","","","","","","","","./tasks/HMM-beads/Images/NewTrialWC.png","lowH","1","53","1","1","1","1","true","",""
"image-keyboard-response","297","375739","0.0-3.0-6.0-1.0-1.53","615e3c6bdb7c4e8e2ee86818","6662009ae78f21dd82fcd179","666204fdeb46cbfbd2bec21c","null","","null","","","","","","","","./tasks/HMM-beads/Images/WhiteBeadChoice.png","","","","","","","","","",""
"image-keyboard-response","298","376249","0.0-3.0-6.0-1.0-2.53","615e3c6bdb7c4e8e2ee86818","6662009ae78f21dd82fcd179","666204fdeb46cbfbd2bec21c","null","","null","","","","","","","","./tasks/HMM-beads/Images/WhiteBeadChoiceCorrect.png","","","","","","","","","",""
"image-keyboard-response","299","376410","0.0-3.0-6.0-1.0-0.54","615e3c6bdb7c4e8e2ee86818","6662009ae78f21dd82fcd179","666204fdeb46cbfbd2bec21c","160","","j","","","","","","","","./tasks/HMM-beads/Images/NewTrialWC.png","lowH","1","54","1","1","1","1","true","",""
"image-keyboard-response","300","376714","0.0-3.0-6.0-1.0-1.54","615e3c6bdb7c4e8e2ee86818","6662009ae78f21dd82fcd179","666204fdeb46cbfbd2bec21c","null","","null","","","","","","","","./tasks/HMM-beads/Images/WhiteBeadChoice.png","","","","","","","","","",""
"image-keyboard-response","301","377224","0.0-3.0-6.0-1.0-2.54","615e3c6bdb7c4e8e2ee86818","6662009ae78f21dd82fcd179","666204fdeb46cbfbd2bec21c","null","","null","","","","","","","","./tasks/HMM-beads/Images/WhiteBeadChoiceCorrect.png","","","","","","","","","",""
"image-keyboard-response","302","377402","0.0-3.0-6.0-1.0-0.55","615e3c6bdb7c4e8e2ee86818","6662009ae78f21dd82fcd179","666204fdeb46cbfbd2bec21c","177","","j","","","","","","","","./tasks/HMM-beads/Images/NewTrialWC.png","lowH","1","55","1","1","1","1","true","",""
"image-keyboard-response","303","377704","0.0-3.0-6.0-1.0-1.55","615e3c6bdb7c4e8e2ee86818","6662009ae78f21dd82fcd179","666204fdeb46cbfbd2bec21c","null","","null","","","","","","","","./tasks/HMM-beads/Images/WhiteBeadChoice.png","","","","","","","","","",""
"image-keyboard-response","304","378214","0.0-3.0-6.0-1.0-2.55","615e3c6bdb7c4e8e2ee86818","6662009ae78f21dd82fcd179","666204fdeb46cbfbd2bec21c","null","","null","","","","","","","","./tasks/HMM-beads/Images/WhiteBeadChoiceCorrect.png","","","","","","","","","",""
"image-keyboard-response","305","378386","0.0-3.0-6.0-1.0-0.56","615e3c6bdb7c4e8e2ee86818","6662009ae78f21dd82fcd179","666204fdeb46cbfbd2bec21c","171","","j","","","","","","","","./tasks/HMM-beads/Images/NewTrialWC.png","lowH","1","56","1","1","1","1","true","",""
"image-keyboard-response","306","378695","0.0-3.0-6.0-1.0-1.56","615e3c6bdb7c4e8e2ee86818","6662009ae78f21dd82fcd179","666204fdeb46cbfbd2bec21c","null","","null","","","","","","","","./tasks/HMM-beads/Images/WhiteBeadChoice.png","","","","","","","","","",""
"image-keyboard-response","307","379205","0.0-3.0-6.0-1.0-2.56","615e3c6bdb7c4e8e2ee86818","6662009ae78f21dd82fcd179","666204fdeb46cbfbd2bec21c","null","","null","","","","","","","","./tasks/HMM-beads/Images/WhiteBeadChoiceCorrect.png","","","","","","","","","",""
"image-keyboard-response","308","379394","0.0-3.0-6.0-1.0-0.57","615e3c6bdb7c4e8e2ee86818","6662009ae78f21dd82fcd179","666204fdeb46cbfbd2bec21c","188","","j","","","","","","","","./tasks/HMM-beads/Images/NewTrialWC.png","lowH","1","57","1","1","1","1","true","",""
"image-keyboard-response","309","379700","0.0-3.0-6.0-1.0-1.57","615e3c6bdb7c4e8e2ee86818","6662009ae78f21dd82fcd179","666204fdeb46cbfbd2bec21c","null","","null","","","","","","","","./tasks/HMM-beads/Images/WhiteBeadChoice.png","","","","","","","","","",""
"image-keyboard-response","310","380210","0.0-3.0-6.0-1.0-2.57","615e3c6bdb7c4e8e2ee86818","6662009ae78f21dd82fcd179","666204fdeb46cbfbd2bec21c","null","","null","","","","","","","","./tasks/HMM-beads/Images/WhiteBeadChoiceCorrect.png","","","","","","","","","",""
"image-keyboard-response","311","380443","0.0-3.0-6.0-1.0-0.58","615e3c6bdb7c4e8e2ee86818","6662009ae78f21dd82fcd179","666204fdeb46cbfbd2bec21c","226","","j","","","","","","","","./tasks/HMM-beads/Images/NewTrialWC.png","lowH","1","58","1","1","1","1","true","",""
"image-keyboard-response","312","380750","0.0-3.0-6.0-1.0-1.58","615e3c6bdb7c4e8e2ee86818","6662009ae78f21dd82fcd179","666204fdeb46cbfbd2bec21c","null","","null","","","","","","","","./tasks/HMM-beads/Images/WhiteBeadChoice.png","","","","","","","","","",""
"image-keyboard-response","313","381260","0.0-3.0-6.0-1.0-2.58","615e3c6bdb7c4e8e2ee86818","6662009ae78f21dd82fcd179","666204fdeb46cbfbd2bec21c","null","","null","","","","","","","","./tasks/HMM-beads/Images/WhiteBeadChoiceCorrect.png","","","","","","","","","",""
"image-keyboard-response","314","381514","0.0-3.0-6.0-1.0-0.59","615e3c6bdb7c4e8e2ee86818","6662009ae78f21dd82fcd179","666204fdeb46cbfbd2bec21c","253","","j","","","","","","","","./tasks/HMM-beads/Images/NewTrialWC.png","lowH","1","59","1","0","1","1","false","",""
"image-keyboard-response","315","381815","0.0-3.0-6.0-1.0-1.59","615e3c6bdb7c4e8e2ee86818","6662009ae78f21dd82fcd179","666204fdeb46cbfbd2bec21c","null","","null","","","","","","","","./tasks/HMM-beads/Images/WhiteBeadChoice.png","","","","","","","","","",""
"image-keyboard-response","316","382325","0.0-3.0-6.0-1.0-2.59","615e3c6bdb7c4e8e2ee86818","6662009ae78f21dd82fcd179","666204fdeb46cbfbd2bec21c","null","","null","","","","","","","","./tasks/HMM-beads/Images/WhiteBeadChoiceWrong.png","","","","","","","","","",""
"image-keyboard-response","317","382754","0.0-3.0-6.0-1.0-0.60","615e3c6bdb7c4e8e2ee86818","6662009ae78f21dd82fcd179","666204fdeb46cbfbd2bec21c","428","","j","","","","","","","","./tasks/HMM-beads/Images/NewTrialBC.png","lowH","1","60","1","1","0","1","true","",""
"image-keyboard-response","318","383060","0.0-3.0-6.0-1.0-1.60","615e3c6bdb7c4e8e2ee86818","6662009ae78f21dd82fcd179","666204fdeb46cbfbd2bec21c","null","","null","","","","","","","","./tasks/HMM-beads/Images/WhiteBeadChoice.png","","","","","","","","","",""
"image-keyboard-response","319","383570","0.0-3.0-6.0-1.0-2.60","615e3c6bdb7c4e8e2ee86818","6662009ae78f21dd82fcd179","666204fdeb46cbfbd2bec21c","null","","null","","","","","","","","./tasks/HMM-beads/Images/WhiteBeadChoiceCorrect.png","","","","","","","","","",""
"image-keyboard-response","320","385114","0.0-3.0-6.0-1.0-0.61","615e3c6bdb7c4e8e2ee86818","6662009ae78f21dd82fcd179","666204fdeb46cbfbd2bec21c","1543","","j","","","","","","","","./tasks/HMM-beads/Images/NewTrialWC.png","lowH","1","61","1","1","1","1","true","",""
"image-keyboard-response","321","385415","0.0-3.0-6.0-1.0-1.61","615e3c6bdb7c4e8e2ee86818","6662009ae78f21dd82fcd179","666204fdeb46cbfbd2bec21c","null","","null","","","","","","","","./tasks/HMM-beads/Images/WhiteBeadChoice.png","","","","","","","","","",""
"image-keyboard-response","322","385925","0.0-3.0-6.0-1.0-2.61","615e3c6bdb7c4e8e2ee86818","6662009ae78f21dd82fcd179","666204fdeb46cbfbd2bec21c","null","","null","","","","","","","","./tasks/HMM-beads/Images/WhiteBeadChoiceCorrect.png","","","","","","","","","",""
"image-keyboard-response","323","386290","0.0-3.0-6.0-1.0-0.62","615e3c6bdb7c4e8e2ee86818","6662009ae78f21dd82fcd179","666204fdeb46cbfbd2bec21c","364","","j","","","","","","","","./tasks/HMM-beads/Images/NewTrialWC.png","lowH","1","62","1","0","1","1","false","",""
"image-keyboard-response","324","386601","0.0-3.0-6.0-1.0-1.62","615e3c6bdb7c4e8e2ee86818","6662009ae78f21dd82fcd179","666204fdeb46cbfbd2bec21c","null","","null","","","","","","","","./tasks/HMM-beads/Images/WhiteBeadChoice.png","","","","","","","","","",""
"image-keyboard-response","325","387111","0.0-3.0-6.0-1.0-2.62","615e3c6bdb7c4e8e2ee86818","6662009ae78f21dd82fcd179","666204fdeb46cbfbd2bec21c","null","","null","","","","","","","","./tasks/HMM-beads/Images/WhiteBeadChoiceWrong.png","","","","","","","","","",""
"image-keyboard-response","326","387322","0.0-3.0-6.0-1.0-0.63","615e3c6bdb7c4e8e2ee86818","6662009ae78f21dd82fcd179","666204fdeb46cbfbd2bec21c","211","","j","","","","","","","","./tasks/HMM-beads/Images/NewTrialBC.png","lowH","1","63","1","1","0","1","true","",""
"image-keyboard-response","327","387636","0.0-3.0-6.0-1.0-1.63","615e3c6bdb7c4e8e2ee86818","6662009ae78f21dd82fcd179","666204fdeb46cbfbd2bec21c","null","","null","","","","","","","","./tasks/HMM-beads/Images/WhiteBeadChoice.png","","","","","","","","","",""
"image-keyboard-response","328","388146","0.0-3.0-6.0-1.0-2.63","615e3c6bdb7c4e8e2ee86818","6662009ae78f21dd82fcd179","666204fdeb46cbfbd2bec21c","null","","null","","","","","","","","./tasks/HMM-beads/Images/WhiteBeadChoiceCorrect.png","","","","","","","","","",""
"image-keyboard-response","329","388370","0.0-3.0-6.0-1.0-0.64","615e3c6bdb7c4e8e2ee86818","6662009ae78f21dd82fcd179","666204fdeb46cbfbd2bec21c","224","","j","","","","","","","","./tasks/HMM-beads/Images/NewTrialWC.png","lowH","1","64","1","1","1","1","true","",""
"image-keyboard-response","330","388671","0.0-3.0-6.0-1.0-1.64","615e3c6bdb7c4e8e2ee86818","6662009ae78f21dd82fcd179","666204fdeb46cbfbd2bec21c","null","","null","","","","","","","","./tasks/HMM-beads/Images/WhiteBeadChoice.png","","","","","","","","","",""
"image-keyboard-response","331","389181","0.0-3.0-6.0-1.0-2.64","615e3c6bdb7c4e8e2ee86818","6662009ae78f21dd82fcd179","666204fdeb46cbfbd2bec21c","null","","null","","","","","","","","./tasks/HMM-beads/Images/WhiteBeadChoiceCorrect.png","","","","","","","","","",""
"image-keyboard-response","332","389322","0.0-3.0-6.0-1.0-0.65","615e3c6bdb7c4e8e2ee86818","6662009ae78f21dd82fcd179","666204fdeb46cbfbd2bec21c","140","","j","","","","","","","","./tasks/HMM-beads/Images/NewTrialWC.png","lowH","1","65","1","1","1","1","true","",""
"image-keyboard-response","333","389631","0.0-3.0-6.0-1.0-1.65","615e3c6bdb7c4e8e2ee86818","6662009ae78f21dd82fcd179","666204fdeb46cbfbd2bec21c","null","","null","","","","","","","","./tasks/HMM-beads/Images/WhiteBeadChoice.png","","","","","","","","","",""
"image-keyboard-response","334","390141","0.0-3.0-6.0-1.0-2.65","615e3c6bdb7c4e8e2ee86818","6662009ae78f21dd82fcd179","666204fdeb46cbfbd2bec21c","null","","null","","","","","","","","./tasks/HMM-beads/Images/WhiteBeadChoiceCorrect.png","","","","","","","","","",""
"image-keyboard-response","335","390402","0.0-3.0-6.0-1.0-0.66","615e3c6bdb7c4e8e2ee86818","6662009ae78f21dd82fcd179","666204fdeb46cbfbd2bec21c","260","","j","","","","","","","","./tasks/HMM-beads/Images/NewTrialWC.png","lowH","1","66","1","1","1","1","true","",""
"image-keyboard-response","336","390711","0.0-3.0-6.0-1.0-1.66","615e3c6bdb7c4e8e2ee86818","6662009ae78f21dd82fcd179","666204fdeb46cbfbd2bec21c","null","","null","","","","","","","","./tasks/HMM-beads/Images/WhiteBeadChoice.png","","","","","","","","","",""
"image-keyboard-response","337","391221","0.0-3.0-6.0-1.0-2.66","615e3c6bdb7c4e8e2ee86818","6662009ae78f21dd82fcd179","666204fdeb46cbfbd2bec21c","null","","null","","","","","","","","./tasks/HMM-beads/Images/WhiteBeadChoiceCorrect.png","","","","","","","","","",""
"image-keyboard-response","338","391523","0.0-3.0-6.0-1.0-0.67","615e3c6bdb7c4e8e2ee86818","6662009ae78f21dd82fcd179","666204fdeb46cbfbd2bec21c","302","","j","","","","","","","","./tasks/HMM-beads/Images/NewTrialWC.png","lowH","1","67","1","0","1","1","false","",""
"image-keyboard-response","339","391836","0.0-3.0-6.0-1.0-1.67","615e3c6bdb7c4e8e2ee86818","6662009ae78f21dd82fcd179","666204fdeb46cbfbd2bec21c","null","","null","","","","","","","","./tasks/HMM-beads/Images/WhiteBeadChoice.png","","","","","","","","","",""
"image-keyboard-response","340","392346","0.0-3.0-6.0-1.0-2.67","615e3c6bdb7c4e8e2ee86818","6662009ae78f21dd82fcd179","666204fdeb46cbfbd2bec21c","null","","null","","","","","","","","./tasks/HMM-beads/Images/WhiteBeadChoiceWrong.png","","","","","","","","","",""
"image-keyboard-response","341","392714","0.0-3.0-6.0-1.0-0.68","615e3c6bdb7c4e8e2ee86818","6662009ae78f21dd82fcd179","666204fdeb46cbfbd2bec21c","367","","j","","","","","","","","./tasks/HMM-beads/Images/NewTrialBC.png","lowH","1","68","1","1","0","1","true","",""
"image-keyboard-response","342","393021","0.0-3.0-6.0-1.0-1.68","615e3c6bdb7c4e8e2ee86818","6662009ae78f21dd82fcd179","666204fdeb46cbfbd2bec21c","null","","null","","","","","","","","./tasks/HMM-beads/Images/WhiteBeadChoice.png","","","","","","","","","",""
"image-keyboard-response","343","393531","0.0-3.0-6.0-1.0-2.68","615e3c6bdb7c4e8e2ee86818","6662009ae78f21dd82fcd179","666204fdeb46cbfbd2bec21c","null","","null","","","","","","","","./tasks/HMM-beads/Images/WhiteBeadChoiceCorrect.png","","","","","","","","","",""
"image-keyboard-response","344","395698","0.0-3.0-6.0-1.0-0.69","615e3c6bdb7c4e8e2ee86818","6662009ae78f21dd82fcd179","666204fdeb46cbfbd2bec21c","2166","","j","","","","","","","","./tasks/HMM-beads/Images/NewTrialWC.png","lowH","1","69","0","1","1","1","true","",""
"image-keyboard-response","345","396006","0.0-3.0-6.0-1.0-1.69","615e3c6bdb7c4e8e2ee86818","6662009ae78f21dd82fcd179","666204fdeb46cbfbd2bec21c","null","","null","","","","","","","","./tasks/HMM-beads/Images/WhiteBeadChoice.png","","","","","","","","","",""
"image-keyboard-response","346","396516","0.0-3.0-6.0-1.0-2.69","615e3c6bdb7c4e8e2ee86818","6662009ae78f21dd82fcd179","666204fdeb46cbfbd2bec21c","null","","null","","","","","","","","./tasks/HMM-beads/Images/WhiteBeadChoiceCorrect.png","","","","","","","","","",""
"image-keyboard-response","347","396823","0.0-3.0-6.0-1.0-0.70","615e3c6bdb7c4e8e2ee86818","6662009ae78f21dd82fcd179","666204fdeb46cbfbd2bec21c","306","","j","","","","","","","","./tasks/HMM-beads/Images/NewTrialWC.png","lowH","1","70","0","1","1","1","true","",""
"image-keyboard-response","348","397131","0.0-3.0-6.0-1.0-1.70","615e3c6bdb7c4e8e2ee86818","6662009ae78f21dd82fcd179","666204fdeb46cbfbd2bec21c","null","","null","","","","","","","","./tasks/HMM-beads/Images/WhiteBeadChoice.png","","","","","","","","","",""
"image-keyboard-response","349","397642","0.0-3.0-6.0-1.0-2.70","615e3c6bdb7c4e8e2ee86818","6662009ae78f21dd82fcd179","666204fdeb46cbfbd2bec21c","null","","null","","","","","","","","./tasks/HMM-beads/Images/WhiteBeadChoiceCorrect.png","","","","","","","","","",""
"image-keyboard-response","350","397922","0.0-3.0-6.0-1.0-0.71","615e3c6bdb7c4e8e2ee86818","6662009ae78f21dd82fcd179","666204fdeb46cbfbd2bec21c","279","","j","","","","","","","","./tasks/HMM-beads/Images/NewTrialWC.png","lowH","1","71","0","0","1","1","false","",""
"image-keyboard-response","351","398228","0.0-3.0-6.0-1.0-1.71","615e3c6bdb7c4e8e2ee86818","6662009ae78f21dd82fcd179","666204fdeb46cbfbd2bec21c","null","","null","","","","","","","","./tasks/HMM-beads/Images/WhiteBeadChoice.png","","","","","","","","","",""
"image-keyboard-response","352","398737","0.0-3.0-6.0-1.0-2.71","615e3c6bdb7c4e8e2ee86818","6662009ae78f21dd82fcd179","666204fdeb46cbfbd2bec21c","null","","null","","","","","","","","./tasks/HMM-beads/Images/WhiteBeadChoiceWrong.png","","","","","","","","","",""
"image-keyboard-response","353","398970","0.0-3.0-6.0-1.0-0.72","615e3c6bdb7c4e8e2ee86818","6662009ae78f21dd82fcd179","666204fdeb46cbfbd2bec21c","231","","j","","","","","","","","./tasks/HMM-beads/Images/NewTrialBC.png","lowH","1","72","0","0","0","1","false","",""
"image-keyboard-response","354","399277","0.0-3.0-6.0-1.0-1.72","615e3c6bdb7c4e8e2ee86818","6662009ae78f21dd82fcd179","666204fdeb46cbfbd2bec21c","null","","null","","","","","","","","./tasks/HMM-beads/Images/WhiteBeadChoice.png","","","","","","","","","",""
"image-keyboard-response","355","399788","0.0-3.0-6.0-1.0-2.72","615e3c6bdb7c4e8e2ee86818","6662009ae78f21dd82fcd179","666204fdeb46cbfbd2bec21c","null","","null","","","","","","","","./tasks/HMM-beads/Images/WhiteBeadChoiceWrong.png","","","","","","","","","",""
"image-keyboard-response","356","400058","0.0-3.0-6.0-1.0-0.73","615e3c6bdb7c4e8e2ee86818","6662009ae78f21dd82fcd179","666204fdeb46cbfbd2bec21c","270","","j","","","","","","","","./tasks/HMM-beads/Images/NewTrialBC.png","lowH","1","73","0","1","0","1","true","",""
"image-keyboard-response","357","400373","0.0-3.0-6.0-1.0-1.73","615e3c6bdb7c4e8e2ee86818","6662009ae78f21dd82fcd179","666204fdeb46cbfbd2bec21c","null","","null","","","","","","","","./tasks/HMM-beads/Images/WhiteBeadChoice.png","","","","","","","","","",""
"image-keyboard-response","358","400885","0.0-3.0-6.0-1.0-2.73","615e3c6bdb7c4e8e2ee86818","6662009ae78f21dd82fcd179","666204fdeb46cbfbd2bec21c","null","","null","","","","","","","","./tasks/HMM-beads/Images/WhiteBeadChoiceCorrect.png","","","","","","","","","",""
"image-keyboard-response","359","400970","0.0-3.0-6.0-1.0-0.74","615e3c6bdb7c4e8e2ee86818","6662009ae78f21dd82fcd179","666204fdeb46cbfbd2bec21c","84","","j","","","","","","","","./tasks/HMM-beads/Images/NewTrialWC.png","lowH","1","74","0","0","1","1","false","",""
"image-keyboard-response","360","401275","0.0-3.0-6.0-1.0-1.74","615e3c6bdb7c4e8e2ee86818","6662009ae78f21dd82fcd179","666204fdeb46cbfbd2bec21c","null","","null","","","","","","","","./tasks/HMM-beads/Images/WhiteBeadChoice.png","","","","","","","","","",""
"image-keyboard-response","361","401785","0.0-3.0-6.0-1.0-2.74","615e3c6bdb7c4e8e2ee86818","6662009ae78f21dd82fcd179","666204fdeb46cbfbd2bec21c","null","","null","","","","","","","","./tasks/HMM-beads/Images/WhiteBeadChoiceWrong.png","","","","","","","","","",""
"image-keyboard-response","362","402123","0.0-3.0-6.0-1.0-0.75","615e3c6bdb7c4e8e2ee86818","6662009ae78f21dd82fcd179","666204fdeb46cbfbd2bec21c","338","","j","","","","","","","","./tasks/HMM-beads/Images/NewTrialBC.png","lowH","1","75","0","1","0","1","true","",""
"image-keyboard-response","363","402431","0.0-3.0-6.0-1.0-1.75","615e3c6bdb7c4e8e2ee86818","6662009ae78f21dd82fcd179","666204fdeb46cbfbd2bec21c","null","","null","","","","","","","","./tasks/HMM-beads/Images/WhiteBeadChoice.png","","","","","","","","","",""
"image-keyboard-response","364","402941","0.0-3.0-6.0-1.0-2.75","615e3c6bdb7c4e8e2ee86818","6662009ae78f21dd82fcd179","666204fdeb46cbfbd2bec21c","null","","null","","","","","","","","./tasks/HMM-beads/Images/WhiteBeadChoiceCorrect.png","","","","","","","","","",""
"image-keyboard-response","365","403202","0.0-3.0-6.0-1.0-0.76","615e3c6bdb7c4e8e2ee86818","6662009ae78f21dd82fcd179","666204fdeb46cbfbd2bec21c","260","","j","","","","","","","","./tasks/HMM-beads/Images/NewTrialWC.png","lowH","1","76","0","1","1","1","true","",""
"image-keyboard-response","366","403511","0.0-3.0-6.0-1.0-1.76","615e3c6bdb7c4e8e2ee86818","6662009ae78f21dd82fcd179","666204fdeb46cbfbd2bec21c","null","","null","","","","","","","","./tasks/HMM-beads/Images/WhiteBeadChoice.png","","","","","","","","","",""
"image-keyboard-response","367","404021","0.0-3.0-6.0-1.0-2.76","615e3c6bdb7c4e8e2ee86818","6662009ae78f21dd82fcd179","666204fdeb46cbfbd2bec21c","null","","null","","","","","","","","./tasks/HMM-beads/Images/WhiteBeadChoiceCorrect.png","","","","","","","","","",""
"image-keyboard-response","368","404298","0.0-3.0-6.0-1.0-0.77","615e3c6bdb7c4e8e2ee86818","6662009ae78f21dd82fcd179","666204fdeb46cbfbd2bec21c","276","","j","","","","","","","","./tasks/HMM-beads/Images/NewTrialWC.png","lowH","1","77","0","0","1","1","false","",""
"image-keyboard-response","369","404606","0.0-3.0-6.0-1.0-1.77","615e3c6bdb7c4e8e2ee86818","6662009ae78f21dd82fcd179","666204fdeb46cbfbd2bec21c","null","","null","","","","","","","","./tasks/HMM-beads/Images/WhiteBeadChoice.png","","","","","","","","","",""
"image-keyboard-response","370","405116","0.0-3.0-6.0-1.0-2.77","615e3c6bdb7c4e8e2ee86818","6662009ae78f21dd82fcd179","666204fdeb46cbfbd2bec21c","null","","null","","","","","","","","./tasks/HMM-beads/Images/WhiteBeadChoiceWrong.png","","","","","","","","","",""
"image-keyboard-response","371","405458","0.0-3.0-6.0-1.0-0.78","615e3c6bdb7c4e8e2ee86818","6662009ae78f21dd82fcd179","666204fdeb46cbfbd2bec21c","341","","j","","","","","","","","./tasks/HMM-beads/Images/NewTrialBC.png","lowH","1","78","0","0","0","1","false","",""
"image-keyboard-response","372","405761","0.0-3.0-6.0-1.0-1.78","615e3c6bdb7c4e8e2ee86818","6662009ae78f21dd82fcd179","666204fdeb46cbfbd2bec21c","null","","null","","","","","","","","./tasks/HMM-beads/Images/WhiteBeadChoice.png","","","","","","","","","",""
"image-keyboard-response","373","406271","0.0-3.0-6.0-1.0-2.78","615e3c6bdb7c4e8e2ee86818","6662009ae78f21dd82fcd179","666204fdeb46cbfbd2bec21c","null","","null","","","","","","","","./tasks/HMM-beads/Images/WhiteBeadChoiceWrong.png","","","","","","","","","",""
"image-keyboard-response","374","406498","0.0-3.0-6.0-1.0-0.79","615e3c6bdb7c4e8e2ee86818","6662009ae78f21dd82fcd179","666204fdeb46cbfbd2bec21c","226","","j","","","","","","","","./tasks/HMM-beads/Images/NewTrialBC.png","lowH","1","79","0","0","0","1","false","",""
