"trial_type","trial_index","time_elapsed","internal_node_id","subject_id","study_id","session_id","rt","url","response","question_order","view_history","success","timeout","failed_images","failed_audio","failed_video","stimulus","block","block_rep","trial_number","jar","bead","previous_bead","choice","correct","lowH_score","total_bonus"
"pavlovia","0","1058","0.0-0.0","610ad9de7928e140edf063f8","6662009ae78f21dd82fcd179","66620b4fe762e741abb9e750","","","","","","","","","","","","","","","","","","","","",""
"external-html","1","13024","0.0-1.0-0.0","610ad9de7928e140edf063f8","6662009ae78f21dd82fcd179","66620b4fe762e741abb9e750","11843","new_consent.html","","","","","","","","","","","","","","","","","","",""
"survey-multi-choice","2","19053","0.0-1.0-1.0","610ad9de7928e140edf063f8","6662009ae78f21dd82fcd179","66620b4fe762e741abb9e750","6027","","{""Q0"":""Female"",""Q1"":""White""}","[0,1]","","","","","","","","","","","","","","","","",""
"survey-text","3","50233","0.0-1.0-2.0","610ad9de7928e140edf063f8","6662009ae78f21dd82fcd179","66620b4fe762e741abb9e750","31175","","{""Q0"":""35""}","","","","","","","","","","","","","","","","","",""
"instructions","4","52564","0.0-2.0","610ad9de7928e140edf063f8","6662009ae78f21dd82fcd179","66620b4fe762e741abb9e750","2221","","","","[{""page_index"":0,""viewing_time"":2221}]","","","","","","","","","","","","","","","",""
"preload","5","61589","0.0-3.0-0.0","610ad9de7928e140edf063f8","6662009ae78f21dd82fcd179","66620b4fe762e741abb9e750","","","","","","true","false","[]","[]","[]","","","","","","","","","","",""
"instructions","6","208152","0.0-3.0-1.0","610ad9de7928e140edf063f8","6662009ae78f21dd82fcd179","66620b4fe762e741abb9e750","146562","","","","[{""page_index"":0,""viewing_time"":79518},{""page_index"":1,""viewing_time"":6360},{""page_index"":2,""viewing_time"":2664},{""page_index"":3,""viewing_time"":1316},{""page_index"":4,""viewing_time"":12876},{""page_index"":3,""viewing_time"":2737},{""page_index"":4,""viewing_time"":4080},{""page_index"":5,""viewing_time"":5543},{""page_index"":6,""viewing_time"":2344},{""page_index"":7,""viewing_time"":6516},{""page_index"":8,""viewing_time"":4271},{""page_index"":9,""viewing_time"":4445},{""page_index"":10,""viewing_time"":10059},{""page_index"":11,""viewing_time"":3832}]","","","","","","","","","","","","","","","",""
"html-button-response","7","211820","0.0-3.0-2.0-0.0-0.0","610ad9de7928e140edf063f8","6662009ae78f21dd82fcd179","66620b4fe762e741abb9e750","3667","","1","","","","","","","","<div align=center>Your goal is to predict…?<br><br></div>","","","","","","","","","",""
"html-button-response","8","218887","0.0-3.0-2.0-1.0-0.0","610ad9de7928e140edf063f8","6662009ae78f21dd82fcd179","66620b4fe762e741abb9e750","5074","","2","","","","","","","","<div align=center>In the jar with mostly white beads, there are ___% white beads and ___% black beads?<br><br></div>","","","","","","","","","",""
"html-button-response","9","226323","0.0-3.0-2.0-2.0-0.0","610ad9de7928e140edf063f8","6662009ae78f21dd82fcd179","66620b4fe762e741abb9e750","6106","","1","","","","","","","","<div align=center>When there is a 1% probability that the jars will switch, the next bead will most likely be drawn from the…<br><br></div>","","","","","","","","","",""
"html-button-response","10","231284","0.0-3.0-2.0-2.1-0.1","610ad9de7928e140edf063f8","6662009ae78f21dd82fcd179","66620b4fe762e741abb9e750","1538","","0","","","","","","","","<div align=center>When there is a 1% probability that the jars will switch, the next bead will most likely be drawn from the…<br><br></div>","","","","","","","","","",""
"html-button-response","11","235527","0.0-3.0-2.0-3.0-0.0","610ad9de7928e140edf063f8","6662009ae78f21dd82fcd179","66620b4fe762e741abb9e750","3335","","1","","","","","","","","<div align=center>When there is a 99% probability that the jars will switch, the next bead will most likely be drawn from the…<br><br></div>","","","","","","","","","",""
"instructions","12","242427","0.0-3.0-3.0","610ad9de7928e140edf063f8","6662009ae78f21dd82fcd179","66620b4fe762e741abb9e750","5743","","","","[{""page_index"":0,""viewing_time"":5743}]","","","","","","","","","","","","","","","",""
"html-keyboard-response","13","248171","0.0-3.0-4.0-0.0","610ad9de7928e140edf063f8","6662009ae78f21dd82fcd179","66620b4fe762e741abb9e750","5743",""," ","","","","","","","","<div align=center>In this practice block, there will be a <b>1% chance</b> that the jar on the next trial will be different from the jar on the current trial.<br><br></div>","","","","","","","","","",""
"image-keyboard-response","14","250692","0.0-3.0-4.0-1.0-0.0","610ad9de7928e140edf063f8","6662009ae78f21dd82fcd179","66620b4fe762e741abb9e750","2519","","f","","","","","","","","./tasks/HMM-beads/Images/NoChoice.png","practice","0","0","0","0","9","0","true","",""
"image-keyboard-response","15","251004","0.0-3.0-4.0-1.0-1.0","610ad9de7928e140edf063f8","6662009ae78f21dd82fcd179","66620b4fe762e741abb9e750","null","","null","","","","","","","","./tasks/HMM-beads/Images/BlackBeadChoice.png","","","","","","","","","",""
"image-keyboard-response","16","251515","0.0-3.0-4.0-1.0-2.0","610ad9de7928e140edf063f8","6662009ae78f21dd82fcd179","66620b4fe762e741abb9e750","null","","null","","","","","","","","./tasks/HMM-beads/Images/BlackBeadChoiceCorrect.png","","","","","","","","","",""
"image-keyboard-response","17","252669","0.0-3.0-4.0-1.0-0.1","610ad9de7928e140edf063f8","6662009ae78f21dd82fcd179","66620b4fe762e741abb9e750","1153","","f","","","","","","","","./tasks/HMM-beads/Images/NewTrialBC.png","practice","0","1","0","0","0","0","true","",""
"image-keyboard-response","18","252973","0.0-3.0-4.0-1.0-1.1","610ad9de7928e140edf063f8","6662009ae78f21dd82fcd179","66620b4fe762e741abb9e750","null","","null","","","","","","","","./tasks/HMM-beads/Images/BlackBeadChoice.png","","","","","","","","","",""
"image-keyboard-response","19","253487","0.0-3.0-4.0-1.0-2.1","610ad9de7928e140edf063f8","6662009ae78f21dd82fcd179","66620b4fe762e741abb9e750","null","","null","","","","","","","","./tasks/HMM-beads/Images/BlackBeadChoiceCorrect.png","","","","","","","","","",""
"image-keyboard-response","20","254100","0.0-3.0-4.0-1.0-0.2","610ad9de7928e140edf063f8","6662009ae78f21dd82fcd179","66620b4fe762e741abb9e750","612","","f","","","","","","","","./tasks/HMM-beads/Images/NewTrialBC.png","practice","0","2","0","1","0","0","false","",""
"image-keyboard-response","21","254407","0.0-3.0-4.0-1.0-1.2","610ad9de7928e140edf063f8","6662009ae78f21dd82fcd179","66620b4fe762e741abb9e750","null","","null","","","","","","","","./tasks/HMM-beads/Images/BlackBeadChoice.png","","","","","","","","","",""
"image-keyboard-response","22","254922","0.0-3.0-4.0-1.0-2.2","610ad9de7928e140edf063f8","6662009ae78f21dd82fcd179","66620b4fe762e741abb9e750","null","","null","","","","","","","","./tasks/HMM-beads/Images/BlackBeadChoiceWrong.png","","","","","","","","","",""
"image-keyboard-response","23","258867","0.0-3.0-4.0-1.0-0.3","610ad9de7928e140edf063f8","6662009ae78f21dd82fcd179","66620b4fe762e741abb9e750","3944","","j","","","","","","","","./tasks/HMM-beads/Images/NewTrialWC.png","practice","0","3","0","0","1","1","false","",""
"image-keyboard-response","24","259173","0.0-3.0-4.0-1.0-1.3","610ad9de7928e140edf063f8","6662009ae78f21dd82fcd179","66620b4fe762e741abb9e750","null","","null","","","","","","","","./tasks/HMM-beads/Images/WhiteBeadChoice.png","","","","","","","","","",""
"image-keyboard-response","25","259686","0.0-3.0-4.0-1.0-2.3","610ad9de7928e140edf063f8","6662009ae78f21dd82fcd179","66620b4fe762e741abb9e750","null","","null","","","","","","","","./tasks/HMM-beads/Images/WhiteBeadChoiceWrong.png","","","","","","","","","",""
"image-keyboard-response","26","260300","0.0-3.0-4.0-1.0-0.4","610ad9de7928e140edf063f8","6662009ae78f21dd82fcd179","66620b4fe762e741abb9e750","613","","f","","","","","","","","./tasks/HMM-beads/Images/NewTrialBC.png","practice","0","4","0","0","0","0","true","",""
"image-keyboard-response","27","260617","0.0-3.0-4.0-1.0-1.4","610ad9de7928e140edf063f8","6662009ae78f21dd82fcd179","66620b4fe762e741abb9e750","null","","null","","","","","","","","./tasks/HMM-beads/Images/BlackBeadChoice.png","","","","","","","","","",""
"image-keyboard-response","28","261129","0.0-3.0-4.0-1.0-2.4","610ad9de7928e140edf063f8","6662009ae78f21dd82fcd179","66620b4fe762e741abb9e750","null","","null","","","","","","","","./tasks/HMM-beads/Images/BlackBeadChoiceCorrect.png","","","","","","","","","",""
"image-keyboard-response","29","262181","0.0-3.0-4.0-1.0-0.5","610ad9de7928e140edf063f8","6662009ae78f21dd82fcd179","66620b4fe762e741abb9e750","1050","","f","","","","","","","","./tasks/HMM-beads/Images/NewTrialBC.png","practice","0","5","0","1","0","0","false","",""
"image-keyboard-response","30","262487","0.0-3.0-4.0-1.0-1.5","610ad9de7928e140edf063f8","6662009ae78f21dd82fcd179","66620b4fe762e741abb9e750","null","","null","","","","","","","","./tasks/HMM-beads/Images/BlackBeadChoice.png","","","","","","","","","",""
"image-keyboard-response","31","262999","0.0-3.0-4.0-1.0-2.5","610ad9de7928e140edf063f8","6662009ae78f21dd82fcd179","66620b4fe762e741abb9e750","null","","null","","","","","","","","./tasks/HMM-beads/Images/BlackBeadChoiceWrong.png","","","","","","","","","",""
"image-keyboard-response","32","263685","0.0-3.0-4.0-1.0-0.6","610ad9de7928e140edf063f8","6662009ae78f21dd82fcd179","66620b4fe762e741abb9e750","684","","f","","","","","","","","./tasks/HMM-beads/Images/NewTrialWC.png","practice","0","6","0","0","1","0","true","",""
"image-keyboard-response","33","263991","0.0-3.0-4.0-1.0-1.6","610ad9de7928e140edf063f8","6662009ae78f21dd82fcd179","66620b4fe762e741abb9e750","null","","null","","","","","","","","./tasks/HMM-beads/Images/BlackBeadChoice.png","","","","","","","","","",""
"image-keyboard-response","34","264502","0.0-3.0-4.0-1.0-2.6","610ad9de7928e140edf063f8","6662009ae78f21dd82fcd179","66620b4fe762e741abb9e750","null","","null","","","","","","","","./tasks/HMM-beads/Images/BlackBeadChoiceCorrect.png","","","","","","","","","",""
"image-keyboard-response","35","265092","0.0-3.0-4.0-1.0-0.7","610ad9de7928e140edf063f8","6662009ae78f21dd82fcd179","66620b4fe762e741abb9e750","589","","f","","","","","","","","./tasks/HMM-beads/Images/NewTrialBC.png","practice","0","7","0","0","0","0","true","",""
"image-keyboard-response","36","265394","0.0-3.0-4.0-1.0-1.7","610ad9de7928e140edf063f8","6662009ae78f21dd82fcd179","66620b4fe762e741abb9e750","null","","null","","","","","","","","./tasks/HMM-beads/Images/BlackBeadChoice.png","","","","","","","","","",""
"image-keyboard-response","37","265907","0.0-3.0-4.0-1.0-2.7","610ad9de7928e140edf063f8","6662009ae78f21dd82fcd179","66620b4fe762e741abb9e750","null","","null","","","","","","","","./tasks/HMM-beads/Images/BlackBeadChoiceCorrect.png","","","","","","","","","",""
"image-keyboard-response","38","266444","0.0-3.0-4.0-1.0-0.8","610ad9de7928e140edf063f8","6662009ae78f21dd82fcd179","66620b4fe762e741abb9e750","535","","j","","","","","","","","./tasks/HMM-beads/Images/NewTrialBC.png","practice","0","8","0","0","0","1","false","",""
"image-keyboard-response","39","266752","0.0-3.0-4.0-1.0-1.8","610ad9de7928e140edf063f8","6662009ae78f21dd82fcd179","66620b4fe762e741abb9e750","null","","null","","","","","","","","./tasks/HMM-beads/Images/WhiteBeadChoice.png","","","","","","","","","",""
"image-keyboard-response","40","267253","0.0-3.0-4.0-1.0-2.8","610ad9de7928e140edf063f8","6662009ae78f21dd82fcd179","66620b4fe762e741abb9e750","null","","null","","","","","","","","./tasks/HMM-beads/Images/WhiteBeadChoiceWrong.png","","","","","","","","","",""
"image-keyboard-response","41","267709","0.0-3.0-4.0-1.0-0.9","610ad9de7928e140edf063f8","6662009ae78f21dd82fcd179","66620b4fe762e741abb9e750","455","","f","","","","","","","","./tasks/HMM-beads/Images/NewTrialBC.png","practice","0","9","0","1","0","0","false","",""
"image-keyboard-response","42","268017","0.0-3.0-4.0-1.0-1.9","610ad9de7928e140edf063f8","6662009ae78f21dd82fcd179","66620b4fe762e741abb9e750","null","","null","","","","","","","","./tasks/HMM-beads/Images/BlackBeadChoice.png","","","","","","","","","",""
"image-keyboard-response","43","268532","0.0-3.0-4.0-1.0-2.9","610ad9de7928e140edf063f8","6662009ae78f21dd82fcd179","66620b4fe762e741abb9e750","null","","null","","","","","","","","./tasks/HMM-beads/Images/BlackBeadChoiceWrong.png","","","","","","","","","",""
"image-keyboard-response","44","269285","0.0-3.0-4.0-1.0-0.10","610ad9de7928e140edf063f8","6662009ae78f21dd82fcd179","66620b4fe762e741abb9e750","752","","f","","","","","","","","./tasks/HMM-beads/Images/NewTrialWC.png","practice","0","10","0","0","1","0","true","",""
"image-keyboard-response","45","269592","0.0-3.0-4.0-1.0-1.10","610ad9de7928e140edf063f8","6662009ae78f21dd82fcd179","66620b4fe762e741abb9e750","null","","null","","","","","","","","./tasks/HMM-beads/Images/BlackBeadChoice.png","","","","","","","","","",""
"image-keyboard-response","46","270103","0.0-3.0-4.0-1.0-2.10","610ad9de7928e140edf063f8","6662009ae78f21dd82fcd179","66620b4fe762e741abb9e750","null","","null","","","","","","","","./tasks/HMM-beads/Images/BlackBeadChoiceCorrect.png","","","","","","","","","",""
"image-keyboard-response","47","270652","0.0-3.0-4.0-1.0-0.11","610ad9de7928e140edf063f8","6662009ae78f21dd82fcd179","66620b4fe762e741abb9e750","548","","f","","","","","","","","./tasks/HMM-beads/Images/NewTrialBC.png","practice","0","11","0","1","0","0","false","",""
"image-keyboard-response","48","270963","0.0-3.0-4.0-1.0-1.11","610ad9de7928e140edf063f8","6662009ae78f21dd82fcd179","66620b4fe762e741abb9e750","null","","null","","","","","","","","./tasks/HMM-beads/Images/BlackBeadChoice.png","","","","","","","","","",""
"image-keyboard-response","49","271470","0.0-3.0-4.0-1.0-2.11","610ad9de7928e140edf063f8","6662009ae78f21dd82fcd179","66620b4fe762e741abb9e750","null","","null","","","","","","","","./tasks/HMM-beads/Images/BlackBeadChoiceWrong.png","","","","","","","","","",""
"image-keyboard-response","50","272988","0.0-3.0-4.0-1.0-0.12","610ad9de7928e140edf063f8","6662009ae78f21dd82fcd179","66620b4fe762e741abb9e750","1517","","f","","","","","","","","./tasks/HMM-beads/Images/NewTrialWC.png","practice","0","12","0","0","1","0","true","",""
"image-keyboard-response","51","273296","0.0-3.0-4.0-1.0-1.12","610ad9de7928e140edf063f8","6662009ae78f21dd82fcd179","66620b4fe762e741abb9e750","null","","null","","","","","","","","./tasks/HMM-beads/Images/BlackBeadChoice.png","","","","","","","","","",""
"image-keyboard-response","52","273810","0.0-3.0-4.0-1.0-2.12","610ad9de7928e140edf063f8","6662009ae78f21dd82fcd179","66620b4fe762e741abb9e750","null","","null","","","","","","","","./tasks/HMM-beads/Images/BlackBeadChoiceCorrect.png","","","","","","","","","",""
"image-keyboard-response","53","274756","0.0-3.0-4.0-1.0-0.13","610ad9de7928e140edf063f8","6662009ae78f21dd82fcd179","66620b4fe762e741abb9e750","945","","f","","","","","","","","./tasks/HMM-beads/Images/NewTrialBC.png","practice","0","13","0","0","0","0","true","",""
"image-keyboard-response","54","275060","0.0-3.0-4.0-1.0-1.13","610ad9de7928e140edf063f8","6662009ae78f21dd82fcd179","66620b4fe762e741abb9e750","null","","null","","","","","","","","./tasks/HMM-beads/Images/BlackBeadChoice.png","","","","","","","","","",""
"image-keyboard-response","55","275566","0.0-3.0-4.0-1.0-2.13","610ad9de7928e140edf063f8","6662009ae78f21dd82fcd179","66620b4fe762e741abb9e750","null","","null","","","","","","","","./tasks/HMM-beads/Images/BlackBeadChoiceCorrect.png","","","","","","","","","",""
"image-keyboard-response","56","276210","0.0-3.0-4.0-1.0-0.14","610ad9de7928e140edf063f8","6662009ae78f21dd82fcd179","66620b4fe762e741abb9e750","643","","j","","","","","","","","./tasks/HMM-beads/Images/NewTrialBC.png","practice","0","14","0","0","0","1","false","",""
"image-keyboard-response","57","276519","0.0-3.0-4.0-1.0-1.14","610ad9de7928e140edf063f8","6662009ae78f21dd82fcd179","66620b4fe762e741abb9e750","null","","null","","","","","","","","./tasks/HMM-beads/Images/WhiteBeadChoice.png","","","","","","","","","",""
"image-keyboard-response","58","277035","0.0-3.0-4.0-1.0-2.14","610ad9de7928e140edf063f8","6662009ae78f21dd82fcd179","66620b4fe762e741abb9e750","null","","null","","","","","","","","./tasks/HMM-beads/Images/WhiteBeadChoiceWrong.png","","","","","","","","","",""
"image-keyboard-response","59","277540","0.0-3.0-4.0-1.0-0.15","610ad9de7928e140edf063f8","6662009ae78f21dd82fcd179","66620b4fe762e741abb9e750","504","","j","","","","","","","","./tasks/HMM-beads/Images/NewTrialBC.png","practice","0","15","0","0","0","1","false","",""
"image-keyboard-response","60","277847","0.0-3.0-4.0-1.0-1.15","610ad9de7928e140edf063f8","6662009ae78f21dd82fcd179","66620b4fe762e741abb9e750","null","","null","","","","","","","","./tasks/HMM-beads/Images/WhiteBeadChoice.png","","","","","","","","","",""
"image-keyboard-response","61","278360","0.0-3.0-4.0-1.0-2.15","610ad9de7928e140edf063f8","6662009ae78f21dd82fcd179","66620b4fe762e741abb9e750","null","","null","","","","","","","","./tasks/HMM-beads/Images/WhiteBeadChoiceWrong.png","","","","","","","","","",""
"image-keyboard-response","62","278852","0.0-3.0-4.0-1.0-0.16","610ad9de7928e140edf063f8","6662009ae78f21dd82fcd179","66620b4fe762e741abb9e750","490","","j","","","","","","","","./tasks/HMM-beads/Images/NewTrialBC.png","practice","0","16","0","0","0","1","false","",""
"image-keyboard-response","63","279154","0.0-3.0-4.0-1.0-1.16","610ad9de7928e140edf063f8","6662009ae78f21dd82fcd179","66620b4fe762e741abb9e750","null","","null","","","","","","","","./tasks/HMM-beads/Images/WhiteBeadChoice.png","","","","","","","","","",""
"image-keyboard-response","64","279668","0.0-3.0-4.0-1.0-2.16","610ad9de7928e140edf063f8","6662009ae78f21dd82fcd179","66620b4fe762e741abb9e750","null","","null","","","","","","","","./tasks/HMM-beads/Images/WhiteBeadChoiceWrong.png","","","","","","","","","",""
"image-keyboard-response","65","280084","0.0-3.0-4.0-1.0-0.17","610ad9de7928e140edf063f8","6662009ae78f21dd82fcd179","66620b4fe762e741abb9e750","415","","f","","","","","","","","./tasks/HMM-beads/Images/NewTrialBC.png","practice","0","17","0","0","0","0","true","",""
"image-keyboard-response","66","280401","0.0-3.0-4.0-1.0-1.17","610ad9de7928e140edf063f8","6662009ae78f21dd82fcd179","66620b4fe762e741abb9e750","null","","null","","","","","","","","./tasks/HMM-beads/Images/BlackBeadChoice.png","","","","","","","","","",""
"image-keyboard-response","67","280908","0.0-3.0-4.0-1.0-2.17","610ad9de7928e140edf063f8","6662009ae78f21dd82fcd179","66620b4fe762e741abb9e750","null","","null","","","","","","","","./tasks/HMM-beads/Images/BlackBeadChoiceCorrect.png","","","","","","","","","",""
"image-keyboard-response","68","281492","0.0-3.0-4.0-1.0-0.18","610ad9de7928e140edf063f8","6662009ae78f21dd82fcd179","66620b4fe762e741abb9e750","583","","j","","","","","","","","./tasks/HMM-beads/Images/NewTrialBC.png","practice","0","18","0","1","0","1","true","",""
"image-keyboard-response","69","281798","0.0-3.0-4.0-1.0-1.18","610ad9de7928e140edf063f8","6662009ae78f21dd82fcd179","66620b4fe762e741abb9e750","null","","null","","","","","","","","./tasks/HMM-beads/Images/WhiteBeadChoice.png","","","","","","","","","",""
"image-keyboard-response","70","282314","0.0-3.0-4.0-1.0-2.18","610ad9de7928e140edf063f8","6662009ae78f21dd82fcd179","66620b4fe762e741abb9e750","null","","null","","","","","","","","./tasks/HMM-beads/Images/WhiteBeadChoiceCorrect.png","","","","","","","","","",""
"image-keyboard-response","71","283307","0.0-3.0-4.0-1.0-0.19","610ad9de7928e140edf063f8","6662009ae78f21dd82fcd179","66620b4fe762e741abb9e750","992","","f","","","","","","","","./tasks/HMM-beads/Images/NewTrialWC.png","practice","0","19","0","0","1","0","true","",""
"image-keyboard-response","72","283611","0.0-3.0-4.0-1.0-1.19","610ad9de7928e140edf063f8","6662009ae78f21dd82fcd179","66620b4fe762e741abb9e750","null","","null","","","","","","","","./tasks/HMM-beads/Images/BlackBeadChoice.png","","","","","","","","","",""
"image-keyboard-response","73","284116","0.0-3.0-4.0-1.0-2.19","610ad9de7928e140edf063f8","6662009ae78f21dd82fcd179","66620b4fe762e741abb9e750","null","","null","","","","","","","","./tasks/HMM-beads/Images/BlackBeadChoiceCorrect.png","","","","","","","","","",""
"image-keyboard-response","74","284772","0.0-3.0-4.0-1.0-0.20","610ad9de7928e140edf063f8","6662009ae78f21dd82fcd179","66620b4fe762e741abb9e750","655","","f","","","","","","","","./tasks/HMM-beads/Images/NewTrialBC.png","practice","0","20","0","0","0","0","true","",""
"image-keyboard-response","75","285082","0.0-3.0-4.0-1.0-1.20","610ad9de7928e140edf063f8","6662009ae78f21dd82fcd179","66620b4fe762e741abb9e750","null","","null","","","","","","","","./tasks/HMM-beads/Images/BlackBeadChoice.png","","","","","","","","","",""
"image-keyboard-response","76","285599","0.0-3.0-4.0-1.0-2.20","610ad9de7928e140edf063f8","6662009ae78f21dd82fcd179","66620b4fe762e741abb9e750","null","","null","","","","","","","","./tasks/HMM-beads/Images/BlackBeadChoiceCorrect.png","","","","","","","","","",""
"image-keyboard-response","77","286212","0.0-3.0-4.0-1.0-0.21","610ad9de7928e140edf063f8","6662009ae78f21dd82fcd179","66620b4fe762e741abb9e750","612","","f","","","","","","","","./tasks/HMM-beads/Images/NewTrialBC.png","practice","0","21","0","1","0","0","false","",""
"image-keyboard-response","78","286519","0.0-3.0-4.0-1.0-1.21","610ad9de7928e140edf063f8","6662009ae78f21dd82fcd179","66620b4fe762e741abb9e750","null","","null","","","","","","","","./tasks/HMM-beads/Images/BlackBeadChoice.png","","","","","","","","","",""
"image-keyboard-response","79","287032","0.0-3.0-4.0-1.0-2.21","610ad9de7928e140edf063f8","6662009ae78f21dd82fcd179","66620b4fe762e741abb9e750","null","","null","","","","","","","","./tasks/HMM-beads/Images/BlackBeadChoiceWrong.png","","","","","","","","","",""
"image-keyboard-response","80","287644","0.0-3.0-4.0-1.0-0.22","610ad9de7928e140edf063f8","6662009ae78f21dd82fcd179","66620b4fe762e741abb9e750","612","","f","","","","","","","","./tasks/HMM-beads/Images/NewTrialWC.png","practice","0","22","1","1","1","0","false","",""
"image-keyboard-response","81","287955","0.0-3.0-4.0-1.0-1.22","610ad9de7928e140edf063f8","6662009ae78f21dd82fcd179","66620b4fe762e741abb9e750","null","","null","","","","","","","","./tasks/HMM-beads/Images/BlackBeadChoice.png","","","","","","","","","",""
"image-keyboard-response","82","288464","0.0-3.0-4.0-1.0-2.22","610ad9de7928e140edf063f8","6662009ae78f21dd82fcd179","66620b4fe762e741abb9e750","null","","null","","","","","","","","./tasks/HMM-beads/Images/BlackBeadChoiceWrong.png","","","","","","","","","",""
"image-keyboard-response","83","289084","0.0-3.0-4.0-1.0-0.23","610ad9de7928e140edf063f8","6662009ae78f21dd82fcd179","66620b4fe762e741abb9e750","619","","f","","","","","","","","./tasks/HMM-beads/Images/NewTrialWC.png","practice","0","23","1","0","1","0","true","",""
"image-keyboard-response","84","289387","0.0-3.0-4.0-1.0-1.23","610ad9de7928e140edf063f8","6662009ae78f21dd82fcd179","66620b4fe762e741abb9e750","null","","null","","","","","","","","./tasks/HMM-beads/Images/BlackBeadChoice.png","","","","","","","","","",""
"image-keyboard-response","85","289898","0.0-3.0-4.0-1.0-2.23","610ad9de7928e140edf063f8","6662009ae78f21dd82fcd179","66620b4fe762e741abb9e750","null","","null","","","","","","","","./tasks/HMM-beads/Images/BlackBeadChoiceCorrect.png","","","","","","","","","",""
"image-keyboard-response","86","290859","0.0-3.0-4.0-1.0-0.24","610ad9de7928e140edf063f8","6662009ae78f21dd82fcd179","66620b4fe762e741abb9e750","960","","f","","","","","","","","./tasks/HMM-beads/Images/NewTrialBC.png","practice","0","24","1","1","0","0","false","",""
"image-keyboard-response","87","291169","0.0-3.0-4.0-1.0-1.24","610ad9de7928e140edf063f8","6662009ae78f21dd82fcd179","66620b4fe762e741abb9e750","null","","null","","","","","","","","./tasks/HMM-beads/Images/BlackBeadChoice.png","","","","","","","","","",""
"image-keyboard-response","88","291682","0.0-3.0-4.0-1.0-2.24","610ad9de7928e140edf063f8","6662009ae78f21dd82fcd179","66620b4fe762e741abb9e750","null","","null","","","","","","","","./tasks/HMM-beads/Images/BlackBeadChoiceWrong.png","","","","","","","","","",""
"image-keyboard-response","89","292724","0.0-3.0-4.0-1.0-0.25","610ad9de7928e140edf063f8","6662009ae78f21dd82fcd179","66620b4fe762e741abb9e750","1041","","f","","","","","","","","./tasks/HMM-beads/Images/NewTrialWC.png","practice","0","25","1","1","1","0","false","",""
"image-keyboard-response","90","293028","0.0-3.0-4.0-1.0-1.25","610ad9de7928e140edf063f8","6662009ae78f21dd82fcd179","66620b4fe762e741abb9e750","null","","null","","","","","","","","./tasks/HMM-beads/Images/BlackBeadChoice.png","","","","","","","","","",""
"image-keyboard-response","91","293531","0.0-3.0-4.0-1.0-2.25","610ad9de7928e140edf063f8","6662009ae78f21dd82fcd179","66620b4fe762e741abb9e750","null","","null","","","","","","","","./tasks/HMM-beads/Images/BlackBeadChoiceWrong.png","","","","","","","","","",""
"image-keyboard-response","92","294052","0.0-3.0-4.0-1.0-0.26","610ad9de7928e140edf063f8","6662009ae78f21dd82fcd179","66620b4fe762e741abb9e750","520","","f","","","","","","","","./tasks/HMM-beads/Images/NewTrialWC.png","practice","0","26","1","1","1","0","false","",""
"image-keyboard-response","93","294361","0.0-3.0-4.0-1.0-1.26","610ad9de7928e140edf063f8","6662009ae78f21dd82fcd179","66620b4fe762e741abb9e750","null","","null","","","","","","","","./tasks/HMM-beads/Images/BlackBeadChoice.png","","","","","","","","","",""
"image-keyboard-response","94","294865","0.0-3.0-4.0-1.0-2.26","610ad9de7928e140edf063f8","6662009ae78f21dd82fcd179","66620b4fe762e741abb9e750","null","","null","","","","","","","","./tasks/HMM-beads/Images/BlackBeadChoiceWrong.png","","","","","","","","","",""
"image-keyboard-response","95","295835","0.0-3.0-4.0-1.0-0.27","610ad9de7928e140edf063f8","6662009ae78f21dd82fcd179","66620b4fe762e741abb9e750","969","","f","","","","","","","","./tasks/HMM-beads/Images/NewTrialWC.png","practice","0","27","1","1","1","0","false","",""
"image-keyboard-response","96","296142","0.0-3.0-4.0-1.0-1.27","610ad9de7928e140edf063f8","6662009ae78f21dd82fcd179","66620b4fe762e741abb9e750","null","","null","","","","","","","","./tasks/HMM-beads/Images/BlackBeadChoice.png","","","","","","","","","",""
"image-keyboard-response","97","296656","0.0-3.0-4.0-1.0-2.27","610ad9de7928e140edf063f8","6662009ae78f21dd82fcd179","66620b4fe762e741abb9e750","null","","null","","","","","","","","./tasks/HMM-beads/Images/BlackBeadChoiceWrong.png","","","","","","","","","",""
"image-keyboard-response","98","297044","0.0-3.0-4.0-1.0-0.28","610ad9de7928e140edf063f8","6662009ae78f21dd82fcd179","66620b4fe762e741abb9e750","386","","j","","","","","","","","./tasks/HMM-beads/Images/NewTrialWC.png","practice","0","28","1","0","1","1","false","",""
"image-keyboard-response","99","297356","0.0-3.0-4.0-1.0-1.28","610ad9de7928e140edf063f8","6662009ae78f21dd82fcd179","66620b4fe762e741abb9e750","null","","null","","","","","","","","./tasks/HMM-beads/Images/WhiteBeadChoice.png","","","","","","","","","",""
"image-keyboard-response","100","297858","0.0-3.0-4.0-1.0-2.28","610ad9de7928e140edf063f8","6662009ae78f21dd82fcd179","66620b4fe762e741abb9e750","null","","null","","","","","","","","./tasks/HMM-beads/Images/WhiteBeadChoiceWrong.png","","","","","","","","","",""
"image-keyboard-response","101","298676","0.0-3.0-4.0-1.0-0.29","610ad9de7928e140edf063f8","6662009ae78f21dd82fcd179","66620b4fe762e741abb9e750","817","","j","","","","","","","","./tasks/HMM-beads/Images/NewTrialBC.png","practice","0","29","1","1","0","1","true","",""
"image-keyboard-response","102","298982","0.0-3.0-4.0-1.0-1.29","610ad9de7928e140edf063f8","6662009ae78f21dd82fcd179","66620b4fe762e741abb9e750","null","","null","","","","","","","","./tasks/HMM-beads/Images/WhiteBeadChoice.png","","","","","","","","","",""
"image-keyboard-response","103","299496","0.0-3.0-4.0-1.0-2.29","610ad9de7928e140edf063f8","6662009ae78f21dd82fcd179","66620b4fe762e741abb9e750","null","","null","","","","","","","","./tasks/HMM-beads/Images/WhiteBeadChoiceCorrect.png","","","","","","","","","",""
"image-keyboard-response","104","300348","0.0-3.0-4.0-1.0-0.30","610ad9de7928e140edf063f8","6662009ae78f21dd82fcd179","66620b4fe762e741abb9e750","850","","j","","","","","","","","./tasks/HMM-beads/Images/NewTrialWC.png","practice","0","30","1","0","1","1","false","",""
"image-keyboard-response","105","300671","0.0-3.0-4.0-1.0-1.30","610ad9de7928e140edf063f8","6662009ae78f21dd82fcd179","66620b4fe762e741abb9e750","null","","null","","","","","","","","./tasks/HMM-beads/Images/WhiteBeadChoice.png","","","","","","","","","",""
"image-keyboard-response","106","301186","0.0-3.0-4.0-1.0-2.30","610ad9de7928e140edf063f8","6662009ae78f21dd82fcd179","66620b4fe762e741abb9e750","null","","null","","","","","","","","./tasks/HMM-beads/Images/WhiteBeadChoiceWrong.png","","","","","","","","","",""
"image-keyboard-response","107","302180","0.0-3.0-4.0-1.0-0.31","610ad9de7928e140edf063f8","6662009ae78f21dd82fcd179","66620b4fe762e741abb9e750","993","","j","","","","","","","","./tasks/HMM-beads/Images/NewTrialBC.png","practice","0","31","1","1","0","1","true","",""
"image-keyboard-response","108","302483","0.0-3.0-4.0-1.0-1.31","610ad9de7928e140edf063f8","6662009ae78f21dd82fcd179","66620b4fe762e741abb9e750","null","","null","","","","","","","","./tasks/HMM-beads/Images/WhiteBeadChoice.png","","","","","","","","","",""
"image-keyboard-response","109","302984","0.0-3.0-4.0-1.0-2.31","610ad9de7928e140edf063f8","6662009ae78f21dd82fcd179","66620b4fe762e741abb9e750","null","","null","","","","","","","","./tasks/HMM-beads/Images/WhiteBeadChoiceCorrect.png","","","","","","","","","",""
"image-keyboard-response","110","304955","0.0-3.0-4.0-1.0-0.32","610ad9de7928e140edf063f8","6662009ae78f21dd82fcd179","66620b4fe762e741abb9e750","1970","","f","","","","","","","","./tasks/HMM-beads/Images/NewTrialWC.png","practice","0","32","1","1","1","0","false","",""
"image-keyboard-response","111","305270","0.0-3.0-4.0-1.0-1.32","610ad9de7928e140edf063f8","6662009ae78f21dd82fcd179","66620b4fe762e741abb9e750","null","","null","","","","","","","","./tasks/HMM-beads/Images/BlackBeadChoice.png","","","","","","","","","",""
"image-keyboard-response","112","305779","0.0-3.0-4.0-1.0-2.32","610ad9de7928e140edf063f8","6662009ae78f21dd82fcd179","66620b4fe762e741abb9e750","null","","null","","","","","","","","./tasks/HMM-beads/Images/BlackBeadChoiceWrong.png","","","","","","","","","",""
"image-keyboard-response","113","306196","0.0-3.0-4.0-1.0-0.33","610ad9de7928e140edf063f8","6662009ae78f21dd82fcd179","66620b4fe762e741abb9e750","415","","j","","","","","","","","./tasks/HMM-beads/Images/NewTrialWC.png","practice","0","33","1","1","1","1","true","",""
"image-keyboard-response","114","306510","0.0-3.0-4.0-1.0-1.33","610ad9de7928e140edf063f8","6662009ae78f21dd82fcd179","66620b4fe762e741abb9e750","null","","null","","","","","","","","./tasks/HMM-beads/Images/WhiteBeadChoice.png","","","","","","","","","",""
"image-keyboard-response","115","307012","0.0-3.0-4.0-1.0-2.33","610ad9de7928e140edf063f8","6662009ae78f21dd82fcd179","66620b4fe762e741abb9e750","null","","null","","","","","","","","./tasks/HMM-beads/Images/WhiteBeadChoiceCorrect.png","","","","","","","","","",""
"image-keyboard-response","116","307485","0.0-3.0-4.0-1.0-0.34","610ad9de7928e140edf063f8","6662009ae78f21dd82fcd179","66620b4fe762e741abb9e750","472","","f","","","","","","","","./tasks/HMM-beads/Images/NewTrialWC.png","practice","0","34","1","1","1","0","false","",""
"image-keyboard-response","117","307791","0.0-3.0-4.0-1.0-1.34","610ad9de7928e140edf063f8","6662009ae78f21dd82fcd179","66620b4fe762e741abb9e750","null","","null","","","","","","","","./tasks/HMM-beads/Images/BlackBeadChoice.png","","","","","","","","","",""
"image-keyboard-response","118","308305","0.0-3.0-4.0-1.0-2.34","610ad9de7928e140edf063f8","6662009ae78f21dd82fcd179","66620b4fe762e741abb9e750","null","","null","","","","","","","","./tasks/HMM-beads/Images/BlackBeadChoiceWrong.png","","","","","","","","","",""
"image-keyboard-response","119","308707","0.0-3.0-4.0-1.0-0.35","610ad9de7928e140edf063f8","6662009ae78f21dd82fcd179","66620b4fe762e741abb9e750","402","","j","","","","","","","","./tasks/HMM-beads/Images/NewTrialWC.png","practice","0","35","1","1","1","1","true","",""
"image-keyboard-response","120","309016","0.0-3.0-4.0-1.0-1.35","610ad9de7928e140edf063f8","6662009ae78f21dd82fcd179","66620b4fe762e741abb9e750","null","","null","","","","","","","","./tasks/HMM-beads/Images/WhiteBeadChoice.png","","","","","","","","","",""
"image-keyboard-response","121","309531","0.0-3.0-4.0-1.0-2.35","610ad9de7928e140edf063f8","6662009ae78f21dd82fcd179","66620b4fe762e741abb9e750","null","","null","","","","","","","","./tasks/HMM-beads/Images/WhiteBeadChoiceCorrect.png","","","","","","","","","",""
"image-keyboard-response","122","309940","0.0-3.0-4.0-1.0-0.36","610ad9de7928e140edf063f8","6662009ae78f21dd82fcd179","66620b4fe762e741abb9e750","407","","j","","","","","","","","./tasks/HMM-beads/Images/NewTrialWC.png","practice","0","36","1","0","1","1","false","",""
"image-keyboard-response","123","310249","0.0-3.0-4.0-1.0-1.36","610ad9de7928e140edf063f8","6662009ae78f21dd82fcd179","66620b4fe762e741abb9e750","null","","null","","","","","","","","./tasks/HMM-beads/Images/WhiteBeadChoice.png","","","","","","","","","",""
"image-keyboard-response","124","310764","0.0-3.0-4.0-1.0-2.36","610ad9de7928e140edf063f8","6662009ae78f21dd82fcd179","66620b4fe762e741abb9e750","null","","null","","","","","","","","./tasks/HMM-beads/Images/WhiteBeadChoiceWrong.png","","","","","","","","","",""
"image-keyboard-response","125","311364","0.0-3.0-4.0-1.0-0.37","610ad9de7928e140edf063f8","6662009ae78f21dd82fcd179","66620b4fe762e741abb9e750","599","","j","","","","","","","","./tasks/HMM-beads/Images/NewTrialBC.png","practice","0","37","1","1","0","1","true","",""
"image-keyboard-response","126","311674","0.0-3.0-4.0-1.0-1.37","610ad9de7928e140edf063f8","6662009ae78f21dd82fcd179","66620b4fe762e741abb9e750","null","","null","","","","","","","","./tasks/HMM-beads/Images/WhiteBeadChoice.png","","","","","","","","","",""
"image-keyboard-response","127","312188","0.0-3.0-4.0-1.0-2.37","610ad9de7928e140edf063f8","6662009ae78f21dd82fcd179","66620b4fe762e741abb9e750","null","","null","","","","","","","","./tasks/HMM-beads/Images/WhiteBeadChoiceCorrect.png","","","","","","","","","",""
"image-keyboard-response","128","312883","0.0-3.0-4.0-1.0-0.38","610ad9de7928e140edf063f8","6662009ae78f21dd82fcd179","66620b4fe762e741abb9e750","695","","f","","","","","","","","./tasks/HMM-beads/Images/NewTrialWC.png","practice","0","38","1","1","1","0","false","",""
"image-keyboard-response","129","313186","0.0-3.0-4.0-1.0-1.38","610ad9de7928e140edf063f8","6662009ae78f21dd82fcd179","66620b4fe762e741abb9e750","null","","null","","","","","","","","./tasks/HMM-beads/Images/BlackBeadChoice.png","","","","","","","","","",""
"image-keyboard-response","130","313702","0.0-3.0-4.0-1.0-2.38","610ad9de7928e140edf063f8","6662009ae78f21dd82fcd179","66620b4fe762e741abb9e750","null","","null","","","","","","","","./tasks/HMM-beads/Images/BlackBeadChoiceWrong.png","","","","","","","","","",""
"image-keyboard-response","131","314108","0.0-3.0-4.0-1.0-0.39","610ad9de7928e140edf063f8","6662009ae78f21dd82fcd179","66620b4fe762e741abb9e750","404","","j","","","","","","","","./tasks/HMM-beads/Images/NewTrialWC.png","practice","0","39","1","1","1","1","true","",""
"image-keyboard-response","132","314414","0.0-3.0-4.0-1.0-1.39","610ad9de7928e140edf063f8","6662009ae78f21dd82fcd179","66620b4fe762e741abb9e750","null","","null","","","","","","","","./tasks/HMM-beads/Images/WhiteBeadChoice.png","","","","","","","","","",""
"image-keyboard-response","133","314928","0.0-3.0-4.0-1.0-2.39","610ad9de7928e140edf063f8","6662009ae78f21dd82fcd179","66620b4fe762e741abb9e750","null","","null","","","","","","","","./tasks/HMM-beads/Images/WhiteBeadChoiceCorrect.png","","","","","","","","","",""
"html-keyboard-response","134","318269","0.0-3.0-4.0-2.0","610ad9de7928e140edf063f8","6662009ae78f21dd82fcd179","66620b4fe762e741abb9e750","3339",""," ","","","","","","","","","","","","","","","","","",""
"instructions","135","329587","0.0-3.0-5.0","610ad9de7928e140edf063f8","6662009ae78f21dd82fcd179","66620b4fe762e741abb9e750","11317","","","","[{""page_index"":0,""viewing_time"":6557},{""page_index"":1,""viewing_time"":4760}]","","","","","","","","","","","","","","","",""
"html-keyboard-response","136","334540","0.0-3.0-6.0-0.0","610ad9de7928e140edf063f8","6662009ae78f21dd82fcd179","66620b4fe762e741abb9e750","4951",""," ","","","","","","","","<div align=center>In this block, there will be a <b>1% chance</b> that the jar on the next trial will be different from the jar on the current trial.<br><br></div>","","","","","","","","","",""
"image-keyboard-response","137","336180","0.0-3.0-6.0-1.0-0.0","610ad9de7928e140edf063f8","6662009ae78f21dd82fcd179","66620b4fe762e741abb9e750","1639","","j","","","","","","","","./tasks/HMM-beads/Images/NoChoice.png","lowH","1","0","1","0","9","1","false","",""
"image-keyboard-response","138","336491","0.0-3.0-6.0-1.0-1.0","610ad9de7928e140edf063f8","6662009ae78f21dd82fcd179","66620b4fe762e741abb9e750","null","","null","","","","","","","","./tasks/HMM-beads/Images/WhiteBeadChoice.png","","","","","","","","","",""
"image-keyboard-response","139","337005","0.0-3.0-6.0-1.0-2.0","610ad9de7928e140edf063f8","6662009ae78f21dd82fcd179","66620b4fe762e741abb9e750","null","","null","","","","","","","","./tasks/HMM-beads/Images/WhiteBeadChoiceWrong.png","","","","","","","","","",""
"image-keyboard-response","140","337532","0.0-3.0-6.0-1.0-0.1","610ad9de7928e140edf063f8","6662009ae78f21dd82fcd179","66620b4fe762e741abb9e750","526","","f","","","","","","","","./tasks/HMM-beads/Images/NewTrialBC.png","lowH","1","1","1","1","0","0","false","",""
"image-keyboard-response","141","337833","0.0-3.0-6.0-1.0-1.1","610ad9de7928e140edf063f8","6662009ae78f21dd82fcd179","66620b4fe762e741abb9e750","null","","null","","","","","","","","./tasks/HMM-beads/Images/BlackBeadChoice.png","","","","","","","","","",""
"image-keyboard-response","142","338349","0.0-3.0-6.0-1.0-2.1","610ad9de7928e140edf063f8","6662009ae78f21dd82fcd179","66620b4fe762e741abb9e750","null","","null","","","","","","","","./tasks/HMM-beads/Images/BlackBeadChoiceWrong.png","","","","","","","","","",""
"image-keyboard-response","143","339676","0.0-3.0-6.0-1.0-0.2","610ad9de7928e140edf063f8","6662009ae78f21dd82fcd179","66620b4fe762e741abb9e750","1325","","f","","","","","","","","./tasks/HMM-beads/Images/NewTrialWC.png","lowH","1","2","1","1","1","0","false","",""
"image-keyboard-response","144","339985","0.0-3.0-6.0-1.0-1.2","610ad9de7928e140edf063f8","6662009ae78f21dd82fcd179","66620b4fe762e741abb9e750","null","","null","","","","","","","","./tasks/HMM-beads/Images/BlackBeadChoice.png","","","","","","","","","",""
"image-keyboard-response","145","340499","0.0-3.0-6.0-1.0-2.2","610ad9de7928e140edf063f8","6662009ae78f21dd82fcd179","66620b4fe762e741abb9e750","null","","null","","","","","","","","./tasks/HMM-beads/Images/BlackBeadChoiceWrong.png","","","","","","","","","",""
"image-keyboard-response","146","342379","0.0-3.0-6.0-1.0-0.3","610ad9de7928e140edf063f8","6662009ae78f21dd82fcd179","66620b4fe762e741abb9e750","1879","","f","","","","","","","","./tasks/HMM-beads/Images/NewTrialWC.png","lowH","1","3","1","1","1","0","false","",""
"image-keyboard-response","147","342701","0.0-3.0-6.0-1.0-1.3","610ad9de7928e140edf063f8","6662009ae78f21dd82fcd179","66620b4fe762e741abb9e750","null","","null","","","","","","","","./tasks/HMM-beads/Images/BlackBeadChoice.png","","","","","","","","","",""
"image-keyboard-response","148","343209","0.0-3.0-6.0-1.0-2.3","610ad9de7928e140edf063f8","6662009ae78f21dd82fcd179","66620b4fe762e741abb9e750","null","","null","","","","","","","","./tasks/HMM-beads/Images/BlackBeadChoiceWrong.png","","","","","","","","","",""
"image-keyboard-response","149","344595","0.0-3.0-6.0-1.0-0.4","610ad9de7928e140edf063f8","6662009ae78f21dd82fcd179","66620b4fe762e741abb9e750","1385","","j","","","","","","","","./tasks/HMM-beads/Images/NewTrialWC.png","lowH","1","4","1","1","1","1","true","",""
"image-keyboard-response","150","344904","0.0-3.0-6.0-1.0-1.4","610ad9de7928e140edf063f8","6662009ae78f21dd82fcd179","66620b4fe762e741abb9e750","null","","null","","","","","","","","./tasks/HMM-beads/Images/WhiteBeadChoice.png","","","","","","","","","",""
"image-keyboard-response","151","345411","0.0-3.0-6.0-1.0-2.4","610ad9de7928e140edf063f8","6662009ae78f21dd82fcd179","66620b4fe762e741abb9e750","null","","null","","","","","","","","./tasks/HMM-beads/Images/WhiteBeadChoiceCorrect.png","","","","","","","","","",""
"image-keyboard-response","152","346140","0.0-3.0-6.0-1.0-0.5","610ad9de7928e140edf063f8","6662009ae78f21dd82fcd179","66620b4fe762e741abb9e750","729","","j","","","","","","","","./tasks/HMM-beads/Images/NewTrialWC.png","lowH","1","5","1","1","1","1","true","",""
"image-keyboard-response","153","346449","0.0-3.0-6.0-1.0-1.5","610ad9de7928e140edf063f8","6662009ae78f21dd82fcd179","66620b4fe762e741abb9e750","null","","null","","","","","","","","./tasks/HMM-beads/Images/WhiteBeadChoice.png","","","","","","","","","",""
"image-keyboard-response","154","346952","0.0-3.0-6.0-1.0-2.5","610ad9de7928e140edf063f8","6662009ae78f21dd82fcd179","66620b4fe762e741abb9e750","null","","null","","","","","","","","./tasks/HMM-beads/Images/WhiteBeadChoiceCorrect.png","","","","","","","","","",""
"image-keyboard-response","155","348147","0.0-3.0-6.0-1.0-0.6","610ad9de7928e140edf063f8","6662009ae78f21dd82fcd179","66620b4fe762e741abb9e750","1194","","j","","","","","","","","./tasks/HMM-beads/Images/NewTrialWC.png","lowH","1","6","1","0","1","1","false","",""
"image-keyboard-response","156","348449","0.0-3.0-6.0-1.0-1.6","610ad9de7928e140edf063f8","6662009ae78f21dd82fcd179","66620b4fe762e741abb9e750","null","","null","","","","","","","","./tasks/HMM-beads/Images/WhiteBeadChoice.png","","","","","","","","","",""
"image-keyboard-response","157","348951","0.0-3.0-6.0-1.0-2.6","610ad9de7928e140edf063f8","6662009ae78f21dd82fcd179","66620b4fe762e741abb9e750","null","","null","","","","","","","","./tasks/HMM-beads/Images/WhiteBeadChoiceWrong.png","","","","","","","","","",""
"image-keyboard-response","158","349524","0.0-3.0-6.0-1.0-0.7","610ad9de7928e140edf063f8","6662009ae78f21dd82fcd179","66620b4fe762e741abb9e750","573","","j","","","","","","","","./tasks/HMM-beads/Images/NewTrialBC.png","lowH","1","7","1","1","0","1","true","",""
"image-keyboard-response","159","349829","0.0-3.0-6.0-1.0-1.7","610ad9de7928e140edf063f8","6662009ae78f21dd82fcd179","66620b4fe762e741abb9e750","null","","null","","","","","","","","./tasks/HMM-beads/Images/WhiteBeadChoice.png","","","","","","","","","",""
"image-keyboard-response","160","350344","0.0-3.0-6.0-1.0-2.7","610ad9de7928e140edf063f8","6662009ae78f21dd82fcd179","66620b4fe762e741abb9e750","null","","null","","","","","","","","./tasks/HMM-beads/Images/WhiteBeadChoiceCorrect.png","","","","","","","","","",""
"image-keyboard-response","161","350956","0.0-3.0-6.0-1.0-0.8","610ad9de7928e140edf063f8","6662009ae78f21dd82fcd179","66620b4fe762e741abb9e750","612","","j","","","","","","","","./tasks/HMM-beads/Images/NewTrialWC.png","lowH","1","8","1","1","1","1","true","",""
"image-keyboard-response","162","351264","0.0-3.0-6.0-1.0-1.8","610ad9de7928e140edf063f8","6662009ae78f21dd82fcd179","66620b4fe762e741abb9e750","null","","null","","","","","","","","./tasks/HMM-beads/Images/WhiteBeadChoice.png","","","","","","","","","",""
"image-keyboard-response","163","351777","0.0-3.0-6.0-1.0-2.8","610ad9de7928e140edf063f8","6662009ae78f21dd82fcd179","66620b4fe762e741abb9e750","null","","null","","","","","","","","./tasks/HMM-beads/Images/WhiteBeadChoiceCorrect.png","","","","","","","","","",""
"image-keyboard-response","164","352260","0.0-3.0-6.0-1.0-0.9","610ad9de7928e140edf063f8","6662009ae78f21dd82fcd179","66620b4fe762e741abb9e750","482","","j","","","","","","","","./tasks/HMM-beads/Images/NewTrialWC.png","lowH","1","9","1","1","1","1","true","",""
"image-keyboard-response","165","352576","0.0-3.0-6.0-1.0-1.9","610ad9de7928e140edf063f8","6662009ae78f21dd82fcd179","66620b4fe762e741abb9e750","null","","null","","","","","","","","./tasks/HMM-beads/Images/WhiteBeadChoice.png","","","","","","","","","",""
"image-keyboard-response","166","353082","0.0-3.0-6.0-1.0-2.9","610ad9de7928e140edf063f8","6662009ae78f21dd82fcd179","66620b4fe762e741abb9e750","null","","null","","","","","","","","./tasks/HMM-beads/Images/WhiteBeadChoiceCorrect.png","","","","","","","","","",""
"image-keyboard-response","167","353458","0.0-3.0-6.0-1.0-0.10","610ad9de7928e140edf063f8","6662009ae78f21dd82fcd179","66620b4fe762e741abb9e750","375","","j","","","","","","","","./tasks/HMM-beads/Images/NewTrialWC.png","lowH","1","10","1","1","1","1","true","",""
"image-keyboard-response","168","353765","0.0-3.0-6.0-1.0-1.10","610ad9de7928e140edf063f8","6662009ae78f21dd82fcd179","66620b4fe762e741abb9e750","null","","null","","","","","","","","./tasks/HMM-beads/Images/WhiteBeadChoice.png","","","","","","","","","",""
"image-keyboard-response","169","354278","0.0-3.0-6.0-1.0-2.10","610ad9de7928e140edf063f8","6662009ae78f21dd82fcd179","66620b4fe762e741abb9e750","null","","null","","","","","","","","./tasks/HMM-beads/Images/WhiteBeadChoiceCorrect.png","","","","","","","","","",""
"image-keyboard-response","170","354891","0.0-3.0-6.0-1.0-0.11","610ad9de7928e140edf063f8","6662009ae78f21dd82fcd179","66620b4fe762e741abb9e750","613","","j","","","","","","","","./tasks/HMM-beads/Images/NewTrialWC.png","lowH","1","11","1","1","1","1","true","",""
"image-keyboard-response","171","355197","0.0-3.0-6.0-1.0-1.11","610ad9de7928e140edf063f8","6662009ae78f21dd82fcd179","66620b4fe762e741abb9e750","null","","null","","","","","","","","./tasks/HMM-beads/Images/WhiteBeadChoice.png","","","","","","","","","",""
"image-keyboard-response","172","355708","0.0-3.0-6.0-1.0-2.11","610ad9de7928e140edf063f8","6662009ae78f21dd82fcd179","66620b4fe762e741abb9e750","null","","null","","","","","","","","./tasks/HMM-beads/Images/WhiteBeadChoiceCorrect.png","","","","","","","","","",""
"image-keyboard-response","173","356124","0.0-3.0-6.0-1.0-0.12","610ad9de7928e140edf063f8","6662009ae78f21dd82fcd179","66620b4fe762e741abb9e750","415","","f","","","","","","","","./tasks/HMM-beads/Images/NewTrialWC.png","lowH","1","12","1","1","1","0","false","",""
"image-keyboard-response","174","356437","0.0-3.0-6.0-1.0-1.12","610ad9de7928e140edf063f8","6662009ae78f21dd82fcd179","66620b4fe762e741abb9e750","null","","null","","","","","","","","./tasks/HMM-beads/Images/BlackBeadChoice.png","","","","","","","","","",""
"image-keyboard-response","175","356938","0.0-3.0-6.0-1.0-2.12","610ad9de7928e140edf063f8","6662009ae78f21dd82fcd179","66620b4fe762e741abb9e750","null","","null","","","","","","","","./tasks/HMM-beads/Images/BlackBeadChoiceWrong.png","","","","","","","","","",""
"image-keyboard-response","176","357012","0.0-3.0-6.0-1.0-0.13","610ad9de7928e140edf063f8","6662009ae78f21dd82fcd179","66620b4fe762e741abb9e750","73","","j","","","","","","","","./tasks/HMM-beads/Images/NewTrialWC.png","lowH","1","13","1","0","1","1","false","",""
"image-keyboard-response","177","357315","0.0-3.0-6.0-1.0-1.13","610ad9de7928e140edf063f8","6662009ae78f21dd82fcd179","66620b4fe762e741abb9e750","null","","null","","","","","","","","./tasks/HMM-beads/Images/WhiteBeadChoice.png","","","","","","","","","",""
"image-keyboard-response","178","357827","0.0-3.0-6.0-1.0-2.13","610ad9de7928e140edf063f8","6662009ae78f21dd82fcd179","66620b4fe762e741abb9e750","null","","null","","","","","","","","./tasks/HMM-beads/Images/WhiteBeadChoiceWrong.png","","","","","","","","","",""
"image-keyboard-response","179","358331","0.0-3.0-6.0-1.0-0.14","610ad9de7928e140edf063f8","6662009ae78f21dd82fcd179","66620b4fe762e741abb9e750","504","","j","","","","","","","","./tasks/HMM-beads/Images/NewTrialBC.png","lowH","1","14","1","0","0","1","false","",""
"image-keyboard-response","180","358638","0.0-3.0-6.0-1.0-1.14","610ad9de7928e140edf063f8","6662009ae78f21dd82fcd179","66620b4fe762e741abb9e750","null","","null","","","","","","","","./tasks/HMM-beads/Images/WhiteBeadChoice.png","","","","","","","","","",""
"image-keyboard-response","181","359150","0.0-3.0-6.0-1.0-2.14","610ad9de7928e140edf063f8","6662009ae78f21dd82fcd179","66620b4fe762e741abb9e750","null","","null","","","","","","","","./tasks/HMM-beads/Images/WhiteBeadChoiceWrong.png","","","","","","","","","",""
"image-keyboard-response","182","359564","0.0-3.0-6.0-1.0-0.15","610ad9de7928e140edf063f8","6662009ae78f21dd82fcd179","66620b4fe762e741abb9e750","412","","j","","","","","","","","./tasks/HMM-beads/Images/NewTrialBC.png","lowH","1","15","1","1","0","1","true","",""
"image-keyboard-response","183","359879","0.0-3.0-6.0-1.0-1.15","610ad9de7928e140edf063f8","6662009ae78f21dd82fcd179","66620b4fe762e741abb9e750","null","","null","","","","","","","","./tasks/HMM-beads/Images/WhiteBeadChoice.png","","","","","","","","","",""
"image-keyboard-response","184","360393","0.0-3.0-6.0-1.0-2.15","610ad9de7928e140edf063f8","6662009ae78f21dd82fcd179","66620b4fe762e741abb9e750","null","","null","","","","","","","","./tasks/HMM-beads/Images/WhiteBeadChoiceCorrect.png","","","","","","","","","",""
"image-keyboard-response","185","360876","0.0-3.0-6.0-1.0-0.16","610ad9de7928e140edf063f8","6662009ae78f21dd82fcd179","66620b4fe762e741abb9e750","482","","j","","","","","","","","./tasks/HMM-beads/Images/NewTrialWC.png","lowH","1","16","1","1","1","1","true","",""
"image-keyboard-response","186","361190","0.0-3.0-6.0-1.0-1.16","610ad9de7928e140edf063f8","6662009ae78f21dd82fcd179","66620b4fe762e741abb9e750","null","","null","","","","","","","","./tasks/HMM-beads/Images/WhiteBeadChoice.png","","","","","","","","","",""
"image-keyboard-response","187","361704","0.0-3.0-6.0-1.0-2.16","610ad9de7928e140edf063f8","6662009ae78f21dd82fcd179","66620b4fe762e741abb9e750","null","","null","","","","","","","","./tasks/HMM-beads/Images/WhiteBeadChoiceCorrect.png","","","","","","","","","",""
"image-keyboard-response","188","362292","0.0-3.0-6.0-1.0-0.17","610ad9de7928e140edf063f8","6662009ae78f21dd82fcd179","66620b4fe762e741abb9e750","588","","j","","","","","","","","./tasks/HMM-beads/Images/NewTrialWC.png","lowH","1","17","1","1","1","1","true","",""
"image-keyboard-response","189","362603","0.0-3.0-6.0-1.0-1.17","610ad9de7928e140edf063f8","6662009ae78f21dd82fcd179","66620b4fe762e741abb9e750","null","","null","","","","","","","","./tasks/HMM-beads/Images/WhiteBeadChoice.png","","","","","","","","","",""
"image-keyboard-response","190","363112","0.0-3.0-6.0-1.0-2.17","610ad9de7928e140edf063f8","6662009ae78f21dd82fcd179","66620b4fe762e741abb9e750","null","","null","","","","","","","","./tasks/HMM-beads/Images/WhiteBeadChoiceCorrect.png","","","","","","","","","",""
"image-keyboard-response","191","363539","0.0-3.0-6.0-1.0-0.18","610ad9de7928e140edf063f8","6662009ae78f21dd82fcd179","66620b4fe762e741abb9e750","426","","j","","","","","","","","./tasks/HMM-beads/Images/NewTrialWC.png","lowH","1","18","1","1","1","1","true","",""
"image-keyboard-response","192","363849","0.0-3.0-6.0-1.0-1.18","610ad9de7928e140edf063f8","6662009ae78f21dd82fcd179","66620b4fe762e741abb9e750","null","","null","","","","","","","","./tasks/HMM-beads/Images/WhiteBeadChoice.png","","","","","","","","","",""
"image-keyboard-response","193","364364","0.0-3.0-6.0-1.0-2.18","610ad9de7928e140edf063f8","6662009ae78f21dd82fcd179","66620b4fe762e741abb9e750","null","","null","","","","","","","","./tasks/HMM-beads/Images/WhiteBeadChoiceCorrect.png","","","","","","","","","",""
"image-keyboard-response","194","364548","0.0-3.0-6.0-1.0-0.19","610ad9de7928e140edf063f8","6662009ae78f21dd82fcd179","66620b4fe762e741abb9e750","183","","j","","","","","","","","./tasks/HMM-beads/Images/NewTrialWC.png","lowH","1","19","1","1","1","1","true","",""
"image-keyboard-response","195","364864","0.0-3.0-6.0-1.0-1.19","610ad9de7928e140edf063f8","6662009ae78f21dd82fcd179","66620b4fe762e741abb9e750","null","","null","","","","","","","","./tasks/HMM-beads/Images/WhiteBeadChoice.png","","","","","","","","","",""
"image-keyboard-response","196","365371","0.0-3.0-6.0-1.0-2.19","610ad9de7928e140edf063f8","6662009ae78f21dd82fcd179","66620b4fe762e741abb9e750","null","","null","","","","","","","","./tasks/HMM-beads/Images/WhiteBeadChoiceCorrect.png","","","","","","","","","",""
"image-keyboard-response","197","365724","0.0-3.0-6.0-1.0-0.20","610ad9de7928e140edf063f8","6662009ae78f21dd82fcd179","66620b4fe762e741abb9e750","351","","j","","","","","","","","./tasks/HMM-beads/Images/NewTrialWC.png","lowH","1","20","1","1","1","1","true","",""
"image-keyboard-response","198","366026","0.0-3.0-6.0-1.0-1.20","610ad9de7928e140edf063f8","6662009ae78f21dd82fcd179","66620b4fe762e741abb9e750","null","","null","","","","","","","","./tasks/HMM-beads/Images/WhiteBeadChoice.png","","","","","","","","","",""
"image-keyboard-response","199","366545","0.0-3.0-6.0-1.0-2.20","610ad9de7928e140edf063f8","6662009ae78f21dd82fcd179","66620b4fe762e741abb9e750","null","","null","","","","","","","","./tasks/HMM-beads/Images/WhiteBeadChoiceCorrect.png","","","","","","","","","",""
"image-keyboard-response","200","366851","0.0-3.0-6.0-1.0-0.21","610ad9de7928e140edf063f8","6662009ae78f21dd82fcd179","66620b4fe762e741abb9e750","306","","j","","","","","","","","./tasks/HMM-beads/Images/NewTrialWC.png","lowH","1","21","1","1","1","1","true","",""
"image-keyboard-response","201","367166","0.0-3.0-6.0-1.0-1.21","610ad9de7928e140edf063f8","6662009ae78f21dd82fcd179","66620b4fe762e741abb9e750","null","","null","","","","","","","","./tasks/HMM-beads/Images/WhiteBeadChoice.png","","","","","","","","","",""
"image-keyboard-response","202","367670","0.0-3.0-6.0-1.0-2.21","610ad9de7928e140edf063f8","6662009ae78f21dd82fcd179","66620b4fe762e741abb9e750","null","","null","","","","","","","","./tasks/HMM-beads/Images/WhiteBeadChoiceCorrect.png","","","","","","","","","",""
"image-keyboard-response","203","367932","0.0-3.0-6.0-1.0-0.22","610ad9de7928e140edf063f8","6662009ae78f21dd82fcd179","66620b4fe762e741abb9e750","262","","j","","","","","","","","./tasks/HMM-beads/Images/NewTrialWC.png","lowH","1","22","1","1","1","1","true","",""
"image-keyboard-response","204","368242","0.0-3.0-6.0-1.0-1.22","610ad9de7928e140edf063f8","6662009ae78f21dd82fcd179","66620b4fe762e741abb9e750","null","","null","","","","","","","","./tasks/HMM-beads/Images/WhiteBeadChoice.png","","","","","","","","","",""
"image-keyboard-response","205","368757","0.0-3.0-6.0-1.0-2.22","610ad9de7928e140edf063f8","6662009ae78f21dd82fcd179","66620b4fe762e741abb9e750","null","","null","","","","","","","","./tasks/HMM-beads/Images/WhiteBeadChoiceCorrect.png","","","","","","","","","",""
"image-keyboard-response","206","369098","0.0-3.0-6.0-1.0-0.23","610ad9de7928e140edf063f8","6662009ae78f21dd82fcd179","66620b4fe762e741abb9e750","340","","j","","","","","","","","./tasks/HMM-beads/Images/NewTrialWC.png","lowH","1","23","1","1","1","1","true","",""
"image-keyboard-response","207","369407","0.0-3.0-6.0-1.0-1.23","610ad9de7928e140edf063f8","6662009ae78f21dd82fcd179","66620b4fe762e741abb9e750","null","","null","","","","","","","","./tasks/HMM-beads/Images/WhiteBeadChoice.png","","","","","","","","","",""
"image-keyboard-response","208","369915","0.0-3.0-6.0-1.0-2.23","610ad9de7928e140edf063f8","6662009ae78f21dd82fcd179","66620b4fe762e741abb9e750","null","","null","","","","","","","","./tasks/HMM-beads/Images/WhiteBeadChoiceCorrect.png","","","","","","","","","",""
"image-keyboard-response","209","370523","0.0-3.0-6.0-1.0-0.24","610ad9de7928e140edf063f8","6662009ae78f21dd82fcd179","66620b4fe762e741abb9e750","607","","j","","","","","","","","./tasks/HMM-beads/Images/NewTrialWC.png","lowH","1","24","1","0","1","1","false","",""
"image-keyboard-response","210","370839","0.0-3.0-6.0-1.0-1.24","610ad9de7928e140edf063f8","6662009ae78f21dd82fcd179","66620b4fe762e741abb9e750","null","","null","","","","","","","","./tasks/HMM-beads/Images/WhiteBeadChoice.png","","","","","","","","","",""
"image-keyboard-response","211","371353","0.0-3.0-6.0-1.0-2.24","610ad9de7928e140edf063f8","6662009ae78f21dd82fcd179","66620b4fe762e741abb9e750","null","","null","","","","","","","","./tasks/HMM-beads/Images/WhiteBeadChoiceWrong.png","","","","","","","","","",""
"image-keyboard-response","212","371900","0.0-3.0-6.0-1.0-0.25","610ad9de7928e140edf063f8","6662009ae78f21dd82fcd179","66620b4fe762e741abb9e750","547","","j","","","","","","","","./tasks/HMM-beads/Images/NewTrialBC.png","lowH","1","25","1","1","0","1","true","",""
"image-keyboard-response","213","372216","0.0-3.0-6.0-1.0-1.25","610ad9de7928e140edf063f8","6662009ae78f21dd82fcd179","66620b4fe762e741abb9e750","null","","null","","","","","","","","./tasks/HMM-beads/Images/WhiteBeadChoice.png","","","","","","","","","",""
"image-keyboard-response","214","372732","0.0-3.0-6.0-1.0-2.25","610ad9de7928e140edf063f8","6662009ae78f21dd82fcd179","66620b4fe762e741abb9e750","null","","null","","","","","","","","./tasks/HMM-beads/Images/WhiteBeadChoiceCorrect.png","","","","","","","","","",""
"image-keyboard-response","215","372900","0.0-3.0-6.0-1.0-0.26","610ad9de7928e140edf063f8","6662009ae78f21dd82fcd179","66620b4fe762e741abb9e750","168","","j","","","","","","","","./tasks/HMM-beads/Images/NewTrialWC.png","lowH","1","26","1","0","1","1","false","",""
"image-keyboard-response","216","373215","0.0-3.0-6.0-1.0-1.26","610ad9de7928e140edf063f8","6662009ae78f21dd82fcd179","66620b4fe762e741abb9e750","null","","null","","","","","","","","./tasks/HMM-beads/Images/WhiteBeadChoice.png","","","","","","","","","",""
"image-keyboard-response","217","373731","0.0-3.0-6.0-1.0-2.26","610ad9de7928e140edf063f8","6662009ae78f21dd82fcd179","66620b4fe762e741abb9e750","null","","null","","","","","","","","./tasks/HMM-beads/Images/WhiteBeadChoiceWrong.png","","","","","","","","","",""
"image-keyboard-response","218","374124","0.0-3.0-6.0-1.0-0.27","610ad9de7928e140edf063f8","6662009ae78f21dd82fcd179","66620b4fe762e741abb9e750","392","","j","","","","","","","","./tasks/HMM-beads/Images/NewTrialBC.png","lowH","1","27","1","1","0","1","true","",""
"image-keyboard-response","219","374427","0.0-3.0-6.0-1.0-1.27","610ad9de7928e140edf063f8","6662009ae78f21dd82fcd179","66620b4fe762e741abb9e750","null","","null","","","","","","","","./tasks/HMM-beads/Images/WhiteBeadChoice.png","","","","","","","","","",""
"image-keyboard-response","220","374940","0.0-3.0-6.0-1.0-2.27","610ad9de7928e140edf063f8","6662009ae78f21dd82fcd179","66620b4fe762e741abb9e750","null","","null","","","","","","","","./tasks/HMM-beads/Images/WhiteBeadChoiceCorrect.png","","","","","","","","","",""
"image-keyboard-response","221","375156","0.0-3.0-6.0-1.0-0.28","610ad9de7928e140edf063f8","6662009ae78f21dd82fcd179","66620b4fe762e741abb9e750","215","","j","","","","","","","","./tasks/HMM-beads/Images/NewTrialWC.png","lowH","1","28","1","1","1","1","true","",""
"image-keyboard-response","222","375469","0.0-3.0-6.0-1.0-1.28","610ad9de7928e140edf063f8","6662009ae78f21dd82fcd179","66620b4fe762e741abb9e750","null","","null","","","","","","","","./tasks/HMM-beads/Images/WhiteBeadChoice.png","","","","","","","","","",""
"image-keyboard-response","223","375974","0.0-3.0-6.0-1.0-2.28","610ad9de7928e140edf063f8","6662009ae78f21dd82fcd179","66620b4fe762e741abb9e750","null","","null","","","","","","","","./tasks/HMM-beads/Images/WhiteBeadChoiceCorrect.png","","","","","","","","","",""
"image-keyboard-response","224","376148","0.0-3.0-6.0-1.0-0.29","610ad9de7928e140edf063f8","6662009ae78f21dd82fcd179","66620b4fe762e741abb9e750","172","","j","","","","","","","","./tasks/HMM-beads/Images/NewTrialWC.png","lowH","1","29","1","1","1","1","true","",""
"image-keyboard-response","225","376472","0.0-3.0-6.0-1.0-1.29","610ad9de7928e140edf063f8","6662009ae78f21dd82fcd179","66620b4fe762e741abb9e750","null","","null","","","","","","","","./tasks/HMM-beads/Images/WhiteBeadChoice.png","","","","","","","","","",""
"image-keyboard-response","226","376987","0.0-3.0-6.0-1.0-2.29","610ad9de7928e140edf063f8","6662009ae78f21dd82fcd179","66620b4fe762e741abb9e750","null","","null","","","","","","","","./tasks/HMM-beads/Images/WhiteBeadChoiceCorrect.png","","","","","","","","","",""
"image-keyboard-response","227","377291","0.0-3.0-6.0-1.0-0.30","610ad9de7928e140edf063f8","6662009ae78f21dd82fcd179","66620b4fe762e741abb9e750","304","","j","","","","","","","","./tasks/HMM-beads/Images/NewTrialWC.png","lowH","1","30","1","1","1","1","true","",""
"image-keyboard-response","228","377595","0.0-3.0-6.0-1.0-1.30","610ad9de7928e140edf063f8","6662009ae78f21dd82fcd179","66620b4fe762e741abb9e750","null","","null","","","","","","","","./tasks/HMM-beads/Images/WhiteBeadChoice.png","","","","","","","","","",""
"image-keyboard-response","229","378097","0.0-3.0-6.0-1.0-2.30","610ad9de7928e140edf063f8","6662009ae78f21dd82fcd179","66620b4fe762e741abb9e750","null","","null","","","","","","","","./tasks/HMM-beads/Images/WhiteBeadChoiceCorrect.png","","","","","","","","","",""
"image-keyboard-response","230","378435","0.0-3.0-6.0-1.0-0.31","610ad9de7928e140edf063f8","6662009ae78f21dd82fcd179","66620b4fe762e741abb9e750","337","","j","","","","","","","","./tasks/HMM-beads/Images/NewTrialWC.png","lowH","1","31","1","1","1","1","true","",""
"image-keyboard-response","231","378738","0.0-3.0-6.0-1.0-1.31","610ad9de7928e140edf063f8","6662009ae78f21dd82fcd179","66620b4fe762e741abb9e750","null","","null","","","","","","","","./tasks/HMM-beads/Images/WhiteBeadChoice.png","","","","","","","","","",""
"image-keyboard-response","232","379254","0.0-3.0-6.0-1.0-2.31","610ad9de7928e140edf063f8","6662009ae78f21dd82fcd179","66620b4fe762e741abb9e750","null","","null","","","","","","","","./tasks/HMM-beads/Images/WhiteBeadChoiceCorrect.png","","","","","","","","","",""
"image-keyboard-response","233","379444","0.0-3.0-6.0-1.0-0.32","610ad9de7928e140edf063f8","6662009ae78f21dd82fcd179","66620b4fe762e741abb9e750","189","","j","","","","","","","","./tasks/HMM-beads/Images/NewTrialWC.png","lowH","1","32","1","1","1","1","true","",""
"image-keyboard-response","234","379754","0.0-3.0-6.0-1.0-1.32","610ad9de7928e140edf063f8","6662009ae78f21dd82fcd179","66620b4fe762e741abb9e750","null","","null","","","","","","","","./tasks/HMM-beads/Images/WhiteBeadChoice.png","","","","","","","","","",""
"image-keyboard-response","235","380266","0.0-3.0-6.0-1.0-2.32","610ad9de7928e140edf063f8","6662009ae78f21dd82fcd179","66620b4fe762e741abb9e750","null","","null","","","","","","","","./tasks/HMM-beads/Images/WhiteBeadChoiceCorrect.png","","","","","","","","","",""
"image-keyboard-response","236","380499","0.0-3.0-6.0-1.0-0.33","610ad9de7928e140edf063f8","6662009ae78f21dd82fcd179","66620b4fe762e741abb9e750","231","","j","","","","","","","","./tasks/HMM-beads/Images/NewTrialWC.png","lowH","1","33","1","1","1","1","true","",""
"image-keyboard-response","237","380814","0.0-3.0-6.0-1.0-1.33","610ad9de7928e140edf063f8","6662009ae78f21dd82fcd179","66620b4fe762e741abb9e750","null","","null","","","","","","","","./tasks/HMM-beads/Images/WhiteBeadChoice.png","","","","","","","","","",""
"image-keyboard-response","238","381330","0.0-3.0-6.0-1.0-2.33","610ad9de7928e140edf063f8","6662009ae78f21dd82fcd179","66620b4fe762e741abb9e750","null","","null","","","","","","","","./tasks/HMM-beads/Images/WhiteBeadChoiceCorrect.png","","","","","","","","","",""
"image-keyboard-response","239","382252","0.0-3.0-6.0-1.0-0.34","610ad9de7928e140edf063f8","6662009ae78f21dd82fcd179","66620b4fe762e741abb9e750","921","","j","","","","","","","","./tasks/HMM-beads/Images/NewTrialWC.png","lowH","1","34","1","1","1","1","true","",""
"image-keyboard-response","240","382560","0.0-3.0-6.0-1.0-1.34","610ad9de7928e140edf063f8","6662009ae78f21dd82fcd179","66620b4fe762e741abb9e750","null","","null","","","","","","","","./tasks/HMM-beads/Images/WhiteBeadChoice.png","","","","","","","","","",""
"image-keyboard-response","241","383064","0.0-3.0-6.0-1.0-2.34","610ad9de7928e140edf063f8","6662009ae78f21dd82fcd179","66620b4fe762e741abb9e750","null","","null","","","","","","","","./tasks/HMM-beads/Images/WhiteBeadChoiceCorrect.png","","","","","","","","","",""
"image-keyboard-response","242","383429","0.0-3.0-6.0-1.0-0.35","610ad9de7928e140edf063f8","6662009ae78f21dd82fcd179","66620b4fe762e741abb9e750","364","","f","","","","","","","","./tasks/HMM-beads/Images/NewTrialWC.png","lowH","1","35","1","1","1","0","false","",""
"image-keyboard-response","243","383730","0.0-3.0-6.0-1.0-1.35","610ad9de7928e140edf063f8","6662009ae78f21dd82fcd179","66620b4fe762e741abb9e750","null","","null","","","","","","","","./tasks/HMM-beads/Images/BlackBeadChoice.png","","","","","","","","","",""
"image-keyboard-response","244","384244","0.0-3.0-6.0-1.0-2.35","610ad9de7928e140edf063f8","6662009ae78f21dd82fcd179","66620b4fe762e741abb9e750","null","","null","","","","","","","","./tasks/HMM-beads/Images/BlackBeadChoiceWrong.png","","","","","","","","","",""
"image-keyboard-response","245","384748","0.0-3.0-6.0-1.0-0.36","610ad9de7928e140edf063f8","6662009ae78f21dd82fcd179","66620b4fe762e741abb9e750","503","","f","","","","","","","","./tasks/HMM-beads/Images/NewTrialWC.png","lowH","1","36","1","1","1","0","false","",""
"image-keyboard-response","246","385055","0.0-3.0-6.0-1.0-1.36","610ad9de7928e140edf063f8","6662009ae78f21dd82fcd179","66620b4fe762e741abb9e750","null","","null","","","","","","","","./tasks/HMM-beads/Images/BlackBeadChoice.png","","","","","","","","","",""
"image-keyboard-response","247","385557","0.0-3.0-6.0-1.0-2.36","610ad9de7928e140edf063f8","6662009ae78f21dd82fcd179","66620b4fe762e741abb9e750","null","","null","","","","","","","","./tasks/HMM-beads/Images/BlackBeadChoiceWrong.png","","","","","","","","","",""
"image-keyboard-response","248","385924","0.0-3.0-6.0-1.0-0.37","610ad9de7928e140edf063f8","6662009ae78f21dd82fcd179","66620b4fe762e741abb9e750","366","","j","","","","","","","","./tasks/HMM-beads/Images/NewTrialWC.png","lowH","1","37","1","1","1","1","true","",""
"image-keyboard-response","249","386232","0.0-3.0-6.0-1.0-1.37","610ad9de7928e140edf063f8","6662009ae78f21dd82fcd179","66620b4fe762e741abb9e750","null","","null","","","","","","","","./tasks/HMM-beads/Images/WhiteBeadChoice.png","","","","","","","","","",""
"image-keyboard-response","250","386745","0.0-3.0-6.0-1.0-2.37","610ad9de7928e140edf063f8","6662009ae78f21dd82fcd179","66620b4fe762e741abb9e750","null","","null","","","","","","","","./tasks/HMM-beads/Images/WhiteBeadChoiceCorrect.png","","","","","","","","","",""
"image-keyboard-response","251","387259","0.0-3.0-6.0-1.0-0.38","610ad9de7928e140edf063f8","6662009ae78f21dd82fcd179","66620b4fe762e741abb9e750","513","","j","","","","","","","","./tasks/HMM-beads/Images/NewTrialWC.png","lowH","1","38","1","1","1","1","true","",""
"image-keyboard-response","252","387572","0.0-3.0-6.0-1.0-1.38","610ad9de7928e140edf063f8","6662009ae78f21dd82fcd179","66620b4fe762e741abb9e750","null","","null","","","","","","","","./tasks/HMM-beads/Images/WhiteBeadChoice.png","","","","","","","","","",""
"image-keyboard-response","253","388085","0.0-3.0-6.0-1.0-2.38","610ad9de7928e140edf063f8","6662009ae78f21dd82fcd179","66620b4fe762e741abb9e750","null","","null","","","","","","","","./tasks/HMM-beads/Images/WhiteBeadChoiceCorrect.png","","","","","","","","","",""
"image-keyboard-response","254","388268","0.0-3.0-6.0-1.0-0.39","610ad9de7928e140edf063f8","6662009ae78f21dd82fcd179","66620b4fe762e741abb9e750","182","","j","","","","","","","","./tasks/HMM-beads/Images/NewTrialWC.png","lowH","1","39","1","1","1","1","true","",""
"image-keyboard-response","255","388584","0.0-3.0-6.0-1.0-1.39","610ad9de7928e140edf063f8","6662009ae78f21dd82fcd179","66620b4fe762e741abb9e750","null","","null","","","","","","","","./tasks/HMM-beads/Images/WhiteBeadChoice.png","","","","","","","","","",""
"image-keyboard-response","256","389087","0.0-3.0-6.0-1.0-2.39","610ad9de7928e140edf063f8","6662009ae78f21dd82fcd179","66620b4fe762e741abb9e750","null","","null","","","","","","","","./tasks/HMM-beads/Images/WhiteBeadChoiceCorrect.png","","","","","","","","","",""
"image-keyboard-response","257","389508","0.0-3.0-6.0-1.0-0.40","610ad9de7928e140edf063f8","6662009ae78f21dd82fcd179","66620b4fe762e741abb9e750","419","","j","","","","","","","","./tasks/HMM-beads/Images/NewTrialWC.png","lowH","1","40","1","1","1","1","true","",""
"image-keyboard-response","258","389824","0.0-3.0-6.0-1.0-1.40","610ad9de7928e140edf063f8","6662009ae78f21dd82fcd179","66620b4fe762e741abb9e750","null","","null","","","","","","","","./tasks/HMM-beads/Images/WhiteBeadChoice.png","","","","","","","","","",""
"image-keyboard-response","259","390337","0.0-3.0-6.0-1.0-2.40","610ad9de7928e140edf063f8","6662009ae78f21dd82fcd179","66620b4fe762e741abb9e750","null","","null","","","","","","","","./tasks/HMM-beads/Images/WhiteBeadChoiceCorrect.png","","","","","","","","","",""
"image-keyboard-response","260","390651","0.0-3.0-6.0-1.0-0.41","610ad9de7928e140edf063f8","6662009ae78f21dd82fcd179","66620b4fe762e741abb9e750","314","","j","","","","","","","","./tasks/HMM-beads/Images/NewTrialWC.png","lowH","1","41","1","1","1","1","true","",""
"image-keyboard-response","261","390957","0.0-3.0-6.0-1.0-1.41","610ad9de7928e140edf063f8","6662009ae78f21dd82fcd179","66620b4fe762e741abb9e750","null","","null","","","","","","","","./tasks/HMM-beads/Images/WhiteBeadChoice.png","","","","","","","","","",""
"image-keyboard-response","262","391470","0.0-3.0-6.0-1.0-2.41","610ad9de7928e140edf063f8","6662009ae78f21dd82fcd179","66620b4fe762e741abb9e750","null","","null","","","","","","","","./tasks/HMM-beads/Images/WhiteBeadChoiceCorrect.png","","","","","","","","","",""
"image-keyboard-response","263","391795","0.0-3.0-6.0-1.0-0.42","610ad9de7928e140edf063f8","6662009ae78f21dd82fcd179","66620b4fe762e741abb9e750","324","","j","","","","","","","","./tasks/HMM-beads/Images/NewTrialWC.png","lowH","1","42","1","1","1","1","true","",""
"image-keyboard-response","264","392109","0.0-3.0-6.0-1.0-1.42","610ad9de7928e140edf063f8","6662009ae78f21dd82fcd179","66620b4fe762e741abb9e750","null","","null","","","","","","","","./tasks/HMM-beads/Images/WhiteBeadChoice.png","","","","","","","","","",""
"image-keyboard-response","265","392624","0.0-3.0-6.0-1.0-2.42","610ad9de7928e140edf063f8","6662009ae78f21dd82fcd179","66620b4fe762e741abb9e750","null","","null","","","","","","","","./tasks/HMM-beads/Images/WhiteBeadChoiceCorrect.png","","","","","","","","","",""
"image-keyboard-response","266","393100","0.0-3.0-6.0-1.0-0.43","610ad9de7928e140edf063f8","6662009ae78f21dd82fcd179","66620b4fe762e741abb9e750","475","","j","","","","","","","","./tasks/HMM-beads/Images/NewTrialWC.png","lowH","1","43","1","1","1","1","true","",""
"image-keyboard-response","267","393405","0.0-3.0-6.0-1.0-1.43","610ad9de7928e140edf063f8","6662009ae78f21dd82fcd179","66620b4fe762e741abb9e750","null","","null","","","","","","","","./tasks/HMM-beads/Images/WhiteBeadChoice.png","","","","","","","","","",""
"image-keyboard-response","268","393919","0.0-3.0-6.0-1.0-2.43","610ad9de7928e140edf063f8","6662009ae78f21dd82fcd179","66620b4fe762e741abb9e750","null","","null","","","","","","","","./tasks/HMM-beads/Images/WhiteBeadChoiceCorrect.png","","","","","","","","","",""
"image-keyboard-response","269","394405","0.0-3.0-6.0-1.0-0.44","610ad9de7928e140edf063f8","6662009ae78f21dd82fcd179","66620b4fe762e741abb9e750","485","","j","","","","","","","","./tasks/HMM-beads/Images/NewTrialWC.png","lowH","1","44","1","1","1","1","true","",""
"image-keyboard-response","270","394720","0.0-3.0-6.0-1.0-1.44","610ad9de7928e140edf063f8","6662009ae78f21dd82fcd179","66620b4fe762e741abb9e750","null","","null","","","","","","","","./tasks/HMM-beads/Images/WhiteBeadChoice.png","","","","","","","","","",""
"image-keyboard-response","271","395236","0.0-3.0-6.0-1.0-2.44","610ad9de7928e140edf063f8","6662009ae78f21dd82fcd179","66620b4fe762e741abb9e750","null","","null","","","","","","","","./tasks/HMM-beads/Images/WhiteBeadChoiceCorrect.png","","","","","","","","","",""
"image-keyboard-response","272","395667","0.0-3.0-6.0-1.0-0.45","610ad9de7928e140edf063f8","6662009ae78f21dd82fcd179","66620b4fe762e741abb9e750","431","","j","","","","","","","","./tasks/HMM-beads/Images/NewTrialWC.png","lowH","1","45","1","1","1","1","true","",""
"image-keyboard-response","273","395974","0.0-3.0-6.0-1.0-1.45","610ad9de7928e140edf063f8","6662009ae78f21dd82fcd179","66620b4fe762e741abb9e750","null","","null","","","","","","","","./tasks/HMM-beads/Images/WhiteBeadChoice.png","","","","","","","","","",""
"image-keyboard-response","274","396490","0.0-3.0-6.0-1.0-2.45","610ad9de7928e140edf063f8","6662009ae78f21dd82fcd179","66620b4fe762e741abb9e750","null","","null","","","","","","","","./tasks/HMM-beads/Images/WhiteBeadChoiceCorrect.png","","","","","","","","","",""
"image-keyboard-response","275","396844","0.0-3.0-6.0-1.0-0.46","610ad9de7928e140edf063f8","6662009ae78f21dd82fcd179","66620b4fe762e741abb9e750","353","","j","","","","","","","","./tasks/HMM-beads/Images/NewTrialWC.png","lowH","1","46","1","1","1","1","true","",""
"image-keyboard-response","276","397148","0.0-3.0-6.0-1.0-1.46","610ad9de7928e140edf063f8","6662009ae78f21dd82fcd179","66620b4fe762e741abb9e750","null","","null","","","","","","","","./tasks/HMM-beads/Images/WhiteBeadChoice.png","","","","","","","","","",""
"image-keyboard-response","277","397665","0.0-3.0-6.0-1.0-2.46","610ad9de7928e140edf063f8","6662009ae78f21dd82fcd179","66620b4fe762e741abb9e750","null","","null","","","","","","","","./tasks/HMM-beads/Images/WhiteBeadChoiceCorrect.png","","","","","","","","","",""
"image-keyboard-response","278","398133","0.0-3.0-6.0-1.0-0.47","610ad9de7928e140edf063f8","6662009ae78f21dd82fcd179","66620b4fe762e741abb9e750","467","","j","","","","","","","","./tasks/HMM-beads/Images/NewTrialWC.png","lowH","1","47","1","0","1","1","false","",""
"image-keyboard-response","279","398449","0.0-3.0-6.0-1.0-1.47","610ad9de7928e140edf063f8","6662009ae78f21dd82fcd179","66620b4fe762e741abb9e750","null","","null","","","","","","","","./tasks/HMM-beads/Images/WhiteBeadChoice.png","","","","","","","","","",""
"image-keyboard-response","280","398965","0.0-3.0-6.0-1.0-2.47","610ad9de7928e140edf063f8","6662009ae78f21dd82fcd179","66620b4fe762e741abb9e750","null","","null","","","","","","","","./tasks/HMM-beads/Images/WhiteBeadChoiceWrong.png","","","","","","","","","",""
"image-keyboard-response","281","399516","0.0-3.0-6.0-1.0-0.48","610ad9de7928e140edf063f8","6662009ae78f21dd82fcd179","66620b4fe762e741abb9e750","550","","f","","","","","","","","./tasks/HMM-beads/Images/NewTrialBC.png","lowH","1","48","1","0","0","0","true","",""
"image-keyboard-response","282","399831","0.0-3.0-6.0-1.0-1.48","610ad9de7928e140edf063f8","6662009ae78f21dd82fcd179","66620b4fe762e741abb9e750","null","","null","","","","","","","","./tasks/HMM-beads/Images/BlackBeadChoice.png","","","","","","","","","",""
"image-keyboard-response","283","400337","0.0-3.0-6.0-1.0-2.48","610ad9de7928e140edf063f8","6662009ae78f21dd82fcd179","66620b4fe762e741abb9e750","null","","null","","","","","","","","./tasks/HMM-beads/Images/BlackBeadChoiceCorrect.png","","","","","","","","","",""
"image-keyboard-response","284","400940","0.0-3.0-6.0-1.0-0.49","610ad9de7928e140edf063f8","6662009ae78f21dd82fcd179","66620b4fe762e741abb9e750","602","","f","","","","","","","","./tasks/HMM-beads/Images/NewTrialBC.png","lowH","1","49","1","0","0","0","true","",""
"image-keyboard-response","285","401254","0.0-3.0-6.0-1.0-1.49","610ad9de7928e140edf063f8","6662009ae78f21dd82fcd179","66620b4fe762e741abb9e750","null","","null","","","","","","","","./tasks/HMM-beads/Images/BlackBeadChoice.png","","","","","","","","","",""
"image-keyboard-response","286","401766","0.0-3.0-6.0-1.0-2.49","610ad9de7928e140edf063f8","6662009ae78f21dd82fcd179","66620b4fe762e741abb9e750","null","","null","","","","","","","","./tasks/HMM-beads/Images/BlackBeadChoiceCorrect.png","","","","","","","","","",""
"image-keyboard-response","287","402140","0.0-3.0-6.0-1.0-0.50","610ad9de7928e140edf063f8","6662009ae78f21dd82fcd179","66620b4fe762e741abb9e750","372","","f","","","","","","","","./tasks/HMM-beads/Images/NewTrialBC.png","lowH","1","50","1","1","0","0","false","",""
"image-keyboard-response","288","402453","0.0-3.0-6.0-1.0-1.50","610ad9de7928e140edf063f8","6662009ae78f21dd82fcd179","66620b4fe762e741abb9e750","null","","null","","","","","","","","./tasks/HMM-beads/Images/BlackBeadChoice.png","","","","","","","","","",""
"image-keyboard-response","289","402960","0.0-3.0-6.0-1.0-2.50","610ad9de7928e140edf063f8","6662009ae78f21dd82fcd179","66620b4fe762e741abb9e750","null","","null","","","","","","","","./tasks/HMM-beads/Images/BlackBeadChoiceWrong.png","","","","","","","","","",""
"image-keyboard-response","290","403420","0.0-3.0-6.0-1.0-0.51","610ad9de7928e140edf063f8","6662009ae78f21dd82fcd179","66620b4fe762e741abb9e750","459","","f","","","","","","","","./tasks/HMM-beads/Images/NewTrialWC.png","lowH","1","51","1","1","1","0","false","",""
"image-keyboard-response","291","403722","0.0-3.0-6.0-1.0-1.51","610ad9de7928e140edf063f8","6662009ae78f21dd82fcd179","66620b4fe762e741abb9e750","null","","null","","","","","","","","./tasks/HMM-beads/Images/BlackBeadChoice.png","","","","","","","","","",""
"image-keyboard-response","292","404235","0.0-3.0-6.0-1.0-2.51","610ad9de7928e140edf063f8","6662009ae78f21dd82fcd179","66620b4fe762e741abb9e750","null","","null","","","","","","","","./tasks/HMM-beads/Images/BlackBeadChoiceWrong.png","","","","","","","","","",""
"image-keyboard-response","293","404860","0.0-3.0-6.0-1.0-0.52","610ad9de7928e140edf063f8","6662009ae78f21dd82fcd179","66620b4fe762e741abb9e750","624","","j","","","","","","","","./tasks/HMM-beads/Images/NewTrialWC.png","lowH","1","52","1","1","1","1","true","",""
"image-keyboard-response","294","405171","0.0-3.0-6.0-1.0-1.52","610ad9de7928e140edf063f8","6662009ae78f21dd82fcd179","66620b4fe762e741abb9e750","null","","null","","","","","","","","./tasks/HMM-beads/Images/WhiteBeadChoice.png","","","","","","","","","",""
"image-keyboard-response","295","405685","0.0-3.0-6.0-1.0-2.52","610ad9de7928e140edf063f8","6662009ae78f21dd82fcd179","66620b4fe762e741abb9e750","null","","null","","","","","","","","./tasks/HMM-beads/Images/WhiteBeadChoiceCorrect.png","","","","","","","","","",""
"image-keyboard-response","296","406060","0.0-3.0-6.0-1.0-0.53","610ad9de7928e140edf063f8","6662009ae78f21dd82fcd179","66620b4fe762e741abb9e750","374","","j","","","","","","","","./tasks/HMM-beads/Images/NewTrialWC.png","lowH","1","53","1","1","1","1","true","",""
"image-keyboard-response","297","406363","0.0-3.0-6.0-1.0-1.53","610ad9de7928e140edf063f8","6662009ae78f21dd82fcd179","66620b4fe762e741abb9e750","null","","null","","","","","","","","./tasks/HMM-beads/Images/WhiteBeadChoice.png","","","","","","","","","",""
"image-keyboard-response","298","406879","0.0-3.0-6.0-1.0-2.53","610ad9de7928e140edf063f8","6662009ae78f21dd82fcd179","66620b4fe762e741abb9e750","null","","null","","","","","","","","./tasks/HMM-beads/Images/WhiteBeadChoiceCorrect.png","","","","","","","","","",""
"image-keyboard-response","299","407228","0.0-3.0-6.0-1.0-0.54","610ad9de7928e140edf063f8","6662009ae78f21dd82fcd179","66620b4fe762e741abb9e750","348","","j","","","","","","","","./tasks/HMM-beads/Images/NewTrialWC.png","lowH","1","54","1","1","1","1","true","",""
"image-keyboard-response","300","407543","0.0-3.0-6.0-1.0-1.54","610ad9de7928e140edf063f8","6662009ae78f21dd82fcd179","66620b4fe762e741abb9e750","null","","null","","","","","","","","./tasks/HMM-beads/Images/WhiteBeadChoice.png","","","","","","","","","",""
"image-keyboard-response","301","408059","0.0-3.0-6.0-1.0-2.54","610ad9de7928e140edf063f8","6662009ae78f21dd82fcd179","66620b4fe762e741abb9e750","null","","null","","","","","","","","./tasks/HMM-beads/Images/WhiteBeadChoiceCorrect.png","","","","","","","","","",""
"image-keyboard-response","302","408412","0.0-3.0-6.0-1.0-0.55","610ad9de7928e140edf063f8","6662009ae78f21dd82fcd179","66620b4fe762e741abb9e750","351","","j","","","","","","","","./tasks/HMM-beads/Images/NewTrialWC.png","lowH","1","55","1","1","1","1","true","",""
"image-keyboard-response","303","408733","0.0-3.0-6.0-1.0-1.55","610ad9de7928e140edf063f8","6662009ae78f21dd82fcd179","66620b4fe762e741abb9e750","null","","null","","","","","","","","./tasks/HMM-beads/Images/WhiteBeadChoice.png","","","","","","","","","",""
"image-keyboard-response","304","409235","0.0-3.0-6.0-1.0-2.55","610ad9de7928e140edf063f8","6662009ae78f21dd82fcd179","66620b4fe762e741abb9e750","null","","null","","","","","","","","./tasks/HMM-beads/Images/WhiteBeadChoiceCorrect.png","","","","","","","","","",""
"image-keyboard-response","305","409589","0.0-3.0-6.0-1.0-0.56","610ad9de7928e140edf063f8","6662009ae78f21dd82fcd179","66620b4fe762e741abb9e750","353","","j","","","","","","","","./tasks/HMM-beads/Images/NewTrialWC.png","lowH","1","56","1","1","1","1","true","",""
"image-keyboard-response","306","409892","0.0-3.0-6.0-1.0-1.56","610ad9de7928e140edf063f8","6662009ae78f21dd82fcd179","66620b4fe762e741abb9e750","null","","null","","","","","","","","./tasks/HMM-beads/Images/WhiteBeadChoice.png","","","","","","","","","",""
"image-keyboard-response","307","410394","0.0-3.0-6.0-1.0-2.56","610ad9de7928e140edf063f8","6662009ae78f21dd82fcd179","66620b4fe762e741abb9e750","null","","null","","","","","","","","./tasks/HMM-beads/Images/WhiteBeadChoiceCorrect.png","","","","","","","","","",""
"image-keyboard-response","308","410755","0.0-3.0-6.0-1.0-0.57","610ad9de7928e140edf063f8","6662009ae78f21dd82fcd179","66620b4fe762e741abb9e750","359","","j","","","","","","","","./tasks/HMM-beads/Images/NewTrialWC.png","lowH","1","57","1","1","1","1","true","",""
"image-keyboard-response","309","411069","0.0-3.0-6.0-1.0-1.57","610ad9de7928e140edf063f8","6662009ae78f21dd82fcd179","66620b4fe762e741abb9e750","null","","null","","","","","","","","./tasks/HMM-beads/Images/WhiteBeadChoice.png","","","","","","","","","",""
"image-keyboard-response","310","411571","0.0-3.0-6.0-1.0-2.57","610ad9de7928e140edf063f8","6662009ae78f21dd82fcd179","66620b4fe762e741abb9e750","null","","null","","","","","","","","./tasks/HMM-beads/Images/WhiteBeadChoiceCorrect.png","","","","","","","","","",""
"image-keyboard-response","311","411675","0.0-3.0-6.0-1.0-0.58","610ad9de7928e140edf063f8","6662009ae78f21dd82fcd179","66620b4fe762e741abb9e750","104","","j","","","","","","","","./tasks/HMM-beads/Images/NewTrialWC.png","lowH","1","58","1","1","1","1","true","",""
"image-keyboard-response","312","411980","0.0-3.0-6.0-1.0-1.58","610ad9de7928e140edf063f8","6662009ae78f21dd82fcd179","66620b4fe762e741abb9e750","null","","null","","","","","","","","./tasks/HMM-beads/Images/WhiteBeadChoice.png","","","","","","","","","",""
"image-keyboard-response","313","412495","0.0-3.0-6.0-1.0-2.58","610ad9de7928e140edf063f8","6662009ae78f21dd82fcd179","66620b4fe762e741abb9e750","null","","null","","","","","","","","./tasks/HMM-beads/Images/WhiteBeadChoiceCorrect.png","","","","","","","","","",""
"image-keyboard-response","314","412732","0.0-3.0-6.0-1.0-0.59","610ad9de7928e140edf063f8","6662009ae78f21dd82fcd179","66620b4fe762e741abb9e750","236","","j","","","","","","","","./tasks/HMM-beads/Images/NewTrialWC.png","lowH","1","59","1","0","1","1","false","",""
"image-keyboard-response","315","413041","0.0-3.0-6.0-1.0-1.59","610ad9de7928e140edf063f8","6662009ae78f21dd82fcd179","66620b4fe762e741abb9e750","null","","null","","","","","","","","./tasks/HMM-beads/Images/WhiteBeadChoice.png","","","","","","","","","",""
"image-keyboard-response","316","413551","0.0-3.0-6.0-1.0-2.59","610ad9de7928e140edf063f8","6662009ae78f21dd82fcd179","66620b4fe762e741abb9e750","null","","null","","","","","","","","./tasks/HMM-beads/Images/WhiteBeadChoiceWrong.png","","","","","","","","","",""
"image-keyboard-response","317","414461","0.0-3.0-6.0-1.0-0.60","610ad9de7928e140edf063f8","6662009ae78f21dd82fcd179","66620b4fe762e741abb9e750","909","","j","","","","","","","","./tasks/HMM-beads/Images/NewTrialBC.png","lowH","1","60","1","1","0","1","true","",""
"image-keyboard-response","318","414767","0.0-3.0-6.0-1.0-1.60","610ad9de7928e140edf063f8","6662009ae78f21dd82fcd179","66620b4fe762e741abb9e750","null","","null","","","","","","","","./tasks/HMM-beads/Images/WhiteBeadChoice.png","","","","","","","","","",""
"image-keyboard-response","319","415272","0.0-3.0-6.0-1.0-2.60","610ad9de7928e140edf063f8","6662009ae78f21dd82fcd179","66620b4fe762e741abb9e750","null","","null","","","","","","","","./tasks/HMM-beads/Images/WhiteBeadChoiceCorrect.png","","","","","","","","","",""
"image-keyboard-response","320","415692","0.0-3.0-6.0-1.0-0.61","610ad9de7928e140edf063f8","6662009ae78f21dd82fcd179","66620b4fe762e741abb9e750","420","","j","","","","","","","","./tasks/HMM-beads/Images/NewTrialWC.png","lowH","1","61","1","1","1","1","true","",""
"image-keyboard-response","321","416002","0.0-3.0-6.0-1.0-1.61","610ad9de7928e140edf063f8","6662009ae78f21dd82fcd179","66620b4fe762e741abb9e750","null","","null","","","","","","","","./tasks/HMM-beads/Images/WhiteBeadChoice.png","","","","","","","","","",""
"image-keyboard-response","322","416514","0.0-3.0-6.0-1.0-2.61","610ad9de7928e140edf063f8","6662009ae78f21dd82fcd179","66620b4fe762e741abb9e750","null","","null","","","","","","","","./tasks/HMM-beads/Images/WhiteBeadChoiceCorrect.png","","","","","","","","","",""
"image-keyboard-response","323","416812","0.0-3.0-6.0-1.0-0.62","610ad9de7928e140edf063f8","6662009ae78f21dd82fcd179","66620b4fe762e741abb9e750","296","","j","","","","","","","","./tasks/HMM-beads/Images/NewTrialWC.png","lowH","1","62","1","0","1","1","false","",""
"image-keyboard-response","324","417123","0.0-3.0-6.0-1.0-1.62","610ad9de7928e140edf063f8","6662009ae78f21dd82fcd179","66620b4fe762e741abb9e750","null","","null","","","","","","","","./tasks/HMM-beads/Images/WhiteBeadChoice.png","","","","","","","","","",""
"image-keyboard-response","325","417625","0.0-3.0-6.0-1.0-2.62","610ad9de7928e140edf063f8","6662009ae78f21dd82fcd179","66620b4fe762e741abb9e750","null","","null","","","","","","","","./tasks/HMM-beads/Images/WhiteBeadChoiceWrong.png","","","","","","","","","",""
"image-keyboard-response","326","418140","0.0-3.0-6.0-1.0-0.63","610ad9de7928e140edf063f8","6662009ae78f21dd82fcd179","66620b4fe762e741abb9e750","513","","j","","","","","","","","./tasks/HMM-beads/Images/NewTrialBC.png","lowH","1","63","1","1","0","1","true","",""
"image-keyboard-response","327","418449","0.0-3.0-6.0-1.0-1.63","610ad9de7928e140edf063f8","6662009ae78f21dd82fcd179","66620b4fe762e741abb9e750","null","","null","","","","","","","","./tasks/HMM-beads/Images/WhiteBeadChoice.png","","","","","","","","","",""
"image-keyboard-response","328","418963","0.0-3.0-6.0-1.0-2.63","610ad9de7928e140edf063f8","6662009ae78f21dd82fcd179","66620b4fe762e741abb9e750","null","","null","","","","","","","","./tasks/HMM-beads/Images/WhiteBeadChoiceCorrect.png","","","","","","","","","",""
"image-keyboard-response","329","419268","0.0-3.0-6.0-1.0-0.64","610ad9de7928e140edf063f8","6662009ae78f21dd82fcd179","66620b4fe762e741abb9e750","304","","j","","","","","","","","./tasks/HMM-beads/Images/NewTrialWC.png","lowH","1","64","1","1","1","1","true","",""
"image-keyboard-response","330","419577","0.0-3.0-6.0-1.0-1.64","610ad9de7928e140edf063f8","6662009ae78f21dd82fcd179","66620b4fe762e741abb9e750","null","","null","","","","","","","","./tasks/HMM-beads/Images/WhiteBeadChoice.png","","","","","","","","","",""
"image-keyboard-response","331","420092","0.0-3.0-6.0-1.0-2.64","610ad9de7928e140edf063f8","6662009ae78f21dd82fcd179","66620b4fe762e741abb9e750","null","","null","","","","","","","","./tasks/HMM-beads/Images/WhiteBeadChoiceCorrect.png","","","","","","","","","",""
"image-keyboard-response","332","420356","0.0-3.0-6.0-1.0-0.65","610ad9de7928e140edf063f8","6662009ae78f21dd82fcd179","66620b4fe762e741abb9e750","263","","j","","","","","","","","./tasks/HMM-beads/Images/NewTrialWC.png","lowH","1","65","1","1","1","1","true","",""
"image-keyboard-response","333","420670","0.0-3.0-6.0-1.0-1.65","610ad9de7928e140edf063f8","6662009ae78f21dd82fcd179","66620b4fe762e741abb9e750","null","","null","","","","","","","","./tasks/HMM-beads/Images/WhiteBeadChoice.png","","","","","","","","","",""
"image-keyboard-response","334","421183","0.0-3.0-6.0-1.0-2.65","610ad9de7928e140edf063f8","6662009ae78f21dd82fcd179","66620b4fe762e741abb9e750","null","","null","","","","","","","","./tasks/HMM-beads/Images/WhiteBeadChoiceCorrect.png","","","","","","","","","",""
"image-keyboard-response","335","421508","0.0-3.0-6.0-1.0-0.66","610ad9de7928e140edf063f8","6662009ae78f21dd82fcd179","66620b4fe762e741abb9e750","324","","j","","","","","","","","./tasks/HMM-beads/Images/NewTrialWC.png","lowH","1","66","1","1","1","1","true","",""
"image-keyboard-response","336","421822","0.0-3.0-6.0-1.0-1.66","610ad9de7928e140edf063f8","6662009ae78f21dd82fcd179","66620b4fe762e741abb9e750","null","","null","","","","","","","","./tasks/HMM-beads/Images/WhiteBeadChoice.png","","","","","","","","","",""
"image-keyboard-response","337","422337","0.0-3.0-6.0-1.0-2.66","610ad9de7928e140edf063f8","6662009ae78f21dd82fcd179","66620b4fe762e741abb9e750","null","","null","","","","","","","","./tasks/HMM-beads/Images/WhiteBeadChoiceCorrect.png","","","","","","","","","",""
"image-keyboard-response","338","422948","0.0-3.0-6.0-1.0-0.67","610ad9de7928e140edf063f8","6662009ae78f21dd82fcd179","66620b4fe762e741abb9e750","610","","f","","","","","","","","./tasks/HMM-beads/Images/NewTrialWC.png","lowH","1","67","1","0","1","0","true","",""
"image-keyboard-response","339","423254","0.0-3.0-6.0-1.0-1.67","610ad9de7928e140edf063f8","6662009ae78f21dd82fcd179","66620b4fe762e741abb9e750","null","","null","","","","","","","","./tasks/HMM-beads/Images/BlackBeadChoice.png","","","","","","","","","",""
"image-keyboard-response","340","423763","0.0-3.0-6.0-1.0-2.67","610ad9de7928e140edf063f8","6662009ae78f21dd82fcd179","66620b4fe762e741abb9e750","null","","null","","","","","","","","./tasks/HMM-beads/Images/BlackBeadChoiceCorrect.png","","","","","","","","","",""
"image-keyboard-response","341","424628","0.0-3.0-6.0-1.0-0.68","610ad9de7928e140edf063f8","6662009ae78f21dd82fcd179","66620b4fe762e741abb9e750","865","","j","","","","","","","","./tasks/HMM-beads/Images/NewTrialBC.png","lowH","1","68","1","1","0","1","true","",""
"image-keyboard-response","342","424936","0.0-3.0-6.0-1.0-1.68","610ad9de7928e140edf063f8","6662009ae78f21dd82fcd179","66620b4fe762e741abb9e750","null","","null","","","","","","","","./tasks/HMM-beads/Images/WhiteBeadChoice.png","","","","","","","","","",""
"image-keyboard-response","343","425450","0.0-3.0-6.0-1.0-2.68","610ad9de7928e140edf063f8","6662009ae78f21dd82fcd179","66620b4fe762e741abb9e750","null","","null","","","","","","","","./tasks/HMM-beads/Images/WhiteBeadChoiceCorrect.png","","","","","","","","","",""
"image-keyboard-response","344","425460","0.0-3.0-6.0-1.0-0.69","610ad9de7928e140edf063f8","6662009ae78f21dd82fcd179","66620b4fe762e741abb9e750","9","","j","","","","","","","","./tasks/HMM-beads/Images/NewTrialWC.png","lowH","1","69","0","1","1","1","true","",""
"image-keyboard-response","345","425763","0.0-3.0-6.0-1.0-1.69","610ad9de7928e140edf063f8","6662009ae78f21dd82fcd179","66620b4fe762e741abb9e750","null","","null","","","","","","","","./tasks/HMM-beads/Images/WhiteBeadChoice.png","","","","","","","","","",""
"image-keyboard-response","346","426266","0.0-3.0-6.0-1.0-2.69","610ad9de7928e140edf063f8","6662009ae78f21dd82fcd179","66620b4fe762e741abb9e750","null","","null","","","","","","","","./tasks/HMM-beads/Images/WhiteBeadChoiceCorrect.png","","","","","","","","","",""
"image-keyboard-response","347","426436","0.0-3.0-6.0-1.0-0.70","610ad9de7928e140edf063f8","6662009ae78f21dd82fcd179","66620b4fe762e741abb9e750","169","","j","","","","","","","","./tasks/HMM-beads/Images/NewTrialWC.png","lowH","1","70","0","1","1","1","true","",""
"image-keyboard-response","348","426748","0.0-3.0-6.0-1.0-1.70","610ad9de7928e140edf063f8","6662009ae78f21dd82fcd179","66620b4fe762e741abb9e750","null","","null","","","","","","","","./tasks/HMM-beads/Images/WhiteBeadChoice.png","","","","","","","","","",""
"image-keyboard-response","349","427264","0.0-3.0-6.0-1.0-2.70","610ad9de7928e140edf063f8","6662009ae78f21dd82fcd179","66620b4fe762e741abb9e750","null","","null","","","","","","","","./tasks/HMM-beads/Images/WhiteBeadChoiceCorrect.png","","","","","","","","","",""
"image-keyboard-response","350","427540","0.0-3.0-6.0-1.0-0.71","610ad9de7928e140edf063f8","6662009ae78f21dd82fcd179","66620b4fe762e741abb9e750","275","","j","","","","","","","","./tasks/HMM-beads/Images/NewTrialWC.png","lowH","1","71","0","0","1","1","false","",""
"image-keyboard-response","351","427845","0.0-3.0-6.0-1.0-1.71","610ad9de7928e140edf063f8","6662009ae78f21dd82fcd179","66620b4fe762e741abb9e750","null","","null","","","","","","","","./tasks/HMM-beads/Images/WhiteBeadChoice.png","","","","","","","","","",""
"image-keyboard-response","352","428359","0.0-3.0-6.0-1.0-2.71","610ad9de7928e140edf063f8","6662009ae78f21dd82fcd179","66620b4fe762e741abb9e750","null","","null","","","","","","","","./tasks/HMM-beads/Images/WhiteBeadChoiceWrong.png","","","","","","","","","",""
"image-keyboard-response","353","428812","0.0-3.0-6.0-1.0-0.72","610ad9de7928e140edf063f8","6662009ae78f21dd82fcd179","66620b4fe762e741abb9e750","452","","j","","","","","","","","./tasks/HMM-beads/Images/NewTrialBC.png","lowH","1","72","0","0","0","1","false","",""
"image-keyboard-response","354","429123","0.0-3.0-6.0-1.0-1.72","610ad9de7928e140edf063f8","6662009ae78f21dd82fcd179","66620b4fe762e741abb9e750","null","","null","","","","","","","","./tasks/HMM-beads/Images/WhiteBeadChoice.png","","","","","","","","","",""
"image-keyboard-response","355","429639","0.0-3.0-6.0-1.0-2.72","610ad9de7928e140edf063f8","6662009ae78f21dd82fcd179","66620b4fe762e741abb9e750","null","","null","","","","","","","","./tasks/HMM-beads/Images/WhiteBeadChoiceWrong.png","","","","","","","","","",""
"image-keyboard-response","356","430195","0.0-3.0-6.0-1.0-0.73","610ad9de7928e140edf063f8","6662009ae78f21dd82fcd179","66620b4fe762e741abb9e750","556","","f","","","","","","","","./tasks/HMM-beads/Images/NewTrialBC.png","lowH","1","73","0","1","0","0","false","",""
"image-keyboard-response","357","430510","0.0-3.0-6.0-1.0-1.73","610ad9de7928e140edf063f8","6662009ae78f21dd82fcd179","66620b4fe762e741abb9e750","null","","null","","","","","","","","./tasks/HMM-beads/Images/BlackBeadChoice.png","","","","","","","","","",""
"image-keyboard-response","358","431024","0.0-3.0-6.0-1.0-2.73","610ad9de7928e140edf063f8","6662009ae78f21dd82fcd179","66620b4fe762e741abb9e750","null","","null","","","","","","","","./tasks/HMM-beads/Images/BlackBeadChoiceWrong.png","","","","","","","","","",""
"image-keyboard-response","359","431548","0.0-3.0-6.0-1.0-0.74","610ad9de7928e140edf063f8","6662009ae78f21dd82fcd179","66620b4fe762e741abb9e750","524","","j","","","","","","","","./tasks/HMM-beads/Images/NewTrialWC.png","lowH","1","74","0","0","1","1","false","",""
"image-keyboard-response","360","431851","0.0-3.0-6.0-1.0-1.74","610ad9de7928e140edf063f8","6662009ae78f21dd82fcd179","66620b4fe762e741abb9e750","null","","null","","","","","","","","./tasks/HMM-beads/Images/WhiteBeadChoice.png","","","","","","","","","",""
"image-keyboard-response","361","432367","0.0-3.0-6.0-1.0-2.74","610ad9de7928e140edf063f8","6662009ae78f21dd82fcd179","66620b4fe762e741abb9e750","null","","null","","","","","","","","./tasks/HMM-beads/Images/WhiteBeadChoiceWrong.png","","","","","","","","","",""
"image-keyboard-response","362","433132","0.0-3.0-6.0-1.0-0.75","610ad9de7928e140edf063f8","6662009ae78f21dd82fcd179","66620b4fe762e741abb9e750","764","","f","","","","","","","","./tasks/HMM-beads/Images/NewTrialBC.png","lowH","1","75","0","1","0","0","false","",""
"image-keyboard-response","363","433437","0.0-3.0-6.0-1.0-1.75","610ad9de7928e140edf063f8","6662009ae78f21dd82fcd179","66620b4fe762e741abb9e750","null","","null","","","","","","","","./tasks/HMM-beads/Images/BlackBeadChoice.png","","","","","","","","","",""
"image-keyboard-response","364","433951","0.0-3.0-6.0-1.0-2.75","610ad9de7928e140edf063f8","6662009ae78f21dd82fcd179","66620b4fe762e741abb9e750","null","","null","","","","","","","","./tasks/HMM-beads/Images/BlackBeadChoiceWrong.png","","","","","","","","","",""
"image-keyboard-response","365","434380","0.0-3.0-6.0-1.0-0.76","610ad9de7928e140edf063f8","6662009ae78f21dd82fcd179","66620b4fe762e741abb9e750","428","","f","","","","","","","","./tasks/HMM-beads/Images/NewTrialWC.png","lowH","1","76","0","1","1","0","false","",""
"image-keyboard-response","366","434692","0.0-3.0-6.0-1.0-1.76","610ad9de7928e140edf063f8","6662009ae78f21dd82fcd179","66620b4fe762e741abb9e750","null","","null","","","","","","","","./tasks/HMM-beads/Images/BlackBeadChoice.png","","","","","","","","","",""
"image-keyboard-response","367","435206","0.0-3.0-6.0-1.0-2.76","610ad9de7928e140edf063f8","6662009ae78f21dd82fcd179","66620b4fe762e741abb9e750","null","","null","","","","","","","","./tasks/HMM-beads/Images/BlackBeadChoiceWrong.png","","","","","","","","","",""
"image-keyboard-response","368","435515","0.0-3.0-6.0-1.0-0.77","610ad9de7928e140edf063f8","6662009ae78f21dd82fcd179","66620b4fe762e741abb9e750","308","","j","","","","","","","","./tasks/HMM-beads/Images/NewTrialWC.png","lowH","1","77","0","0","1","1","false","",""
"image-keyboard-response","369","435829","0.0-3.0-6.0-1.0-1.77","610ad9de7928e140edf063f8","6662009ae78f21dd82fcd179","66620b4fe762e741abb9e750","null","","null","","","","","","","","./tasks/HMM-beads/Images/WhiteBeadChoice.png","","","","","","","","","",""
"image-keyboard-response","370","436330","0.0-3.0-6.0-1.0-2.77","610ad9de7928e140edf063f8","6662009ae78f21dd82fcd179","66620b4fe762e741abb9e750","null","","null","","","","","","","","./tasks/HMM-beads/Images/WhiteBeadChoiceWrong.png","","","","","","","","","",""
"image-keyboard-response","371","436789","0.0-3.0-6.0-1.0-0.78","610ad9de7928e140edf063f8","6662009ae78f21dd82fcd179","66620b4fe762e741abb9e750","458","","j","","","","","","","","./tasks/HMM-beads/Images/NewTrialBC.png","lowH","1","78","0","0","0","1","false","",""
"image-keyboard-response","372","437105","0.0-3.0-6.0-1.0-1.78","610ad9de7928e140edf063f8","6662009ae78f21dd82fcd179","66620b4fe762e741abb9e750","null","","null","","","","","","","","./tasks/HMM-beads/Images/WhiteBeadChoice.png","","","","","","","","","",""
"image-keyboard-response","373","437619","0.0-3.0-6.0-1.0-2.78","610ad9de7928e140edf063f8","6662009ae78f21dd82fcd179","66620b4fe762e741abb9e750","null","","null","","","","","","","","./tasks/HMM-beads/Images/WhiteBeadChoiceWrong.png","","","","","","","","","",""
