"trial_type","trial_index","time_elapsed","internal_node_id","subject_id","study_id","session_id","rt","url","response","question_order","view_history","success","timeout","failed_images","failed_audio","failed_video","stimulus","block","block_rep","trial_number","jar","bead","previous_bead","choice","correct","lowH_score","total_bonus"
"pavlovia","0","1279","0.0-0.0","62d2aee15e1dc6709bdcace0","6662009ae78f21dd82fcd179","6662095dd37f5e964b55de74","","","","","","","","","","","","","","","","","","","","",""
"external-html","1","21877","0.0-1.0-0.0","62d2aee15e1dc6709bdcace0","6662009ae78f21dd82fcd179","6662095dd37f5e964b55de74","20458","new_consent.html","","","","","","","","","","","","","","","","","","",""
"survey-multi-choice","2","29728","0.0-1.0-1.0","62d2aee15e1dc6709bdcace0","6662009ae78f21dd82fcd179","6662095dd37f5e964b55de74","7848","","{""Q0"":""Female"",""Q1"":""White""}","[0,1]","","","","","","","","","","","","","","","","",""
"survey-text","3","34213","0.0-1.0-2.0","62d2aee15e1dc6709bdcace0","6662009ae78f21dd82fcd179","6662095dd37f5e964b55de74","4476","","{""Q0"":""55""}","","","","","","","","","","","","","","","","","",""
"instructions","4","38437","0.0-2.0","62d2aee15e1dc6709bdcace0","6662009ae78f21dd82fcd179","6662095dd37f5e964b55de74","4109","","","","[{""page_index"":0,""viewing_time"":4108}]","","","","","","","","","","","","","","","",""
"preload","5","39617","0.0-3.0-0.0","62d2aee15e1dc6709bdcace0","6662009ae78f21dd82fcd179","6662095dd37f5e964b55de74","","","","","","true","false","[]","[]","[]","","","","","","","","","","",""
"instructions","6","149823","0.0-3.0-1.0","62d2aee15e1dc6709bdcace0","6662009ae78f21dd82fcd179","6662095dd37f5e964b55de74","110198","","","","[{""page_index"":0,""viewing_time"":13980},{""page_index"":1,""viewing_time"":7910},{""page_index"":2,""viewing_time"":4046},{""page_index"":3,""viewing_time"":1544},{""page_index"":4,""viewing_time"":18816},{""page_index"":5,""viewing_time"":30216},{""page_index"":6,""viewing_time"":7078},{""page_index"":7,""viewing_time"":6204},{""page_index"":8,""viewing_time"":3557},{""page_index"":9,""viewing_time"":7913},{""page_index"":10,""viewing_time"":7120},{""page_index"":11,""viewing_time"":1814}]","","","","","","","","","","","","","","","",""
"html-button-response","7","152822","0.0-3.0-2.0-0.0-0.0","62d2aee15e1dc6709bdcace0","6662009ae78f21dd82fcd179","6662095dd37f5e964b55de74","2997","","1","","","","","","","","<div align=center>Your goal is to predict…?<br><br></div>","","","","","","","","","",""
"html-button-response","8","156861","0.0-3.0-2.0-1.0-0.0","62d2aee15e1dc6709bdcace0","6662009ae78f21dd82fcd179","6662095dd37f5e964b55de74","2234","","2","","","","","","","","<div align=center>In the jar with mostly white beads, there are ___% white beads and ___% black beads?<br><br></div>","","","","","","","","","",""
"html-button-response","9","161323","0.0-3.0-2.0-2.0-0.0","62d2aee15e1dc6709bdcace0","6662009ae78f21dd82fcd179","6662095dd37f5e964b55de74","2997","","1","","","","","","","","<div align=center>When there is a 1% probability that the jars will switch, the next bead will most likely be drawn from the…<br><br></div>","","","","","","","","","",""
"html-button-response","10","163897","0.0-3.0-2.0-2.1-0.1","62d2aee15e1dc6709bdcace0","6662009ae78f21dd82fcd179","6662095dd37f5e964b55de74","540","","0","","","","","","","","<div align=center>When there is a 1% probability that the jars will switch, the next bead will most likely be drawn from the…<br><br></div>","","","","","","","","","",""
"html-button-response","11","166437","0.0-3.0-2.0-3.0-0.0","62d2aee15e1dc6709bdcace0","6662009ae78f21dd82fcd179","6662095dd37f5e964b55de74","1454","","1","","","","","","","","<div align=center>When there is a 99% probability that the jars will switch, the next bead will most likely be drawn from the…<br><br></div>","","","","","","","","","",""
"instructions","12","172225","0.0-3.0-3.0","62d2aee15e1dc6709bdcace0","6662009ae78f21dd82fcd179","6662095dd37f5e964b55de74","4669","","","","[{""page_index"":0,""viewing_time"":4669}]","","","","","","","","","","","","","","","",""
"html-keyboard-response","13","178345","0.0-3.0-4.0-0.0","62d2aee15e1dc6709bdcace0","6662009ae78f21dd82fcd179","6662095dd37f5e964b55de74","6119",""," ","","","","","","","","<div align=center>In this practice block, there will be a <b>1% chance</b> that the jar on the next trial will be different from the jar on the current trial.<br><br></div>","","","","","","","","","",""
"image-keyboard-response","14","182313","0.0-3.0-4.0-1.0-0.0","62d2aee15e1dc6709bdcace0","6662009ae78f21dd82fcd179","6662095dd37f5e964b55de74","3962","","f","","","","","","","","./tasks/HMM-beads/Images/NoChoice.png","practice","0","0","0","0","9","0","true","",""
"image-keyboard-response","15","182629","0.0-3.0-4.0-1.0-1.0","62d2aee15e1dc6709bdcace0","6662009ae78f21dd82fcd179","6662095dd37f5e964b55de74","null","","null","","","","","","","","./tasks/HMM-beads/Images/BlackBeadChoice.png","","","","","","","","","",""
"image-keyboard-response","16","183151","0.0-3.0-4.0-1.0-2.0","62d2aee15e1dc6709bdcace0","6662009ae78f21dd82fcd179","6662095dd37f5e964b55de74","null","","null","","","","","","","","./tasks/HMM-beads/Images/BlackBeadChoiceCorrect.png","","","","","","","","","",""
"image-keyboard-response","17","184735","0.0-3.0-4.0-1.0-0.1","62d2aee15e1dc6709bdcace0","6662009ae78f21dd82fcd179","6662095dd37f5e964b55de74","1582","","j","","","","","","","","./tasks/HMM-beads/Images/NewTrialBC.png","practice","0","1","0","0","0","1","false","",""
"image-keyboard-response","18","185046","0.0-3.0-4.0-1.0-1.1","62d2aee15e1dc6709bdcace0","6662009ae78f21dd82fcd179","6662095dd37f5e964b55de74","null","","null","","","","","","","","./tasks/HMM-beads/Images/WhiteBeadChoice.png","","","","","","","","","",""
"image-keyboard-response","19","185567","0.0-3.0-4.0-1.0-2.1","62d2aee15e1dc6709bdcace0","6662009ae78f21dd82fcd179","6662095dd37f5e964b55de74","null","","null","","","","","","","","./tasks/HMM-beads/Images/WhiteBeadChoiceWrong.png","","","","","","","","","",""
"image-keyboard-response","20","186164","0.0-3.0-4.0-1.0-0.2","62d2aee15e1dc6709bdcace0","6662009ae78f21dd82fcd179","6662095dd37f5e964b55de74","596","","j","","","","","","","","./tasks/HMM-beads/Images/NewTrialBC.png","practice","0","2","0","1","0","1","true","",""
"image-keyboard-response","21","186471","0.0-3.0-4.0-1.0-1.2","62d2aee15e1dc6709bdcace0","6662009ae78f21dd82fcd179","6662095dd37f5e964b55de74","null","","null","","","","","","","","./tasks/HMM-beads/Images/WhiteBeadChoice.png","","","","","","","","","",""
"image-keyboard-response","22","186991","0.0-3.0-4.0-1.0-2.2","62d2aee15e1dc6709bdcace0","6662009ae78f21dd82fcd179","6662095dd37f5e964b55de74","null","","null","","","","","","","","./tasks/HMM-beads/Images/WhiteBeadChoiceCorrect.png","","","","","","","","","",""
"image-keyboard-response","23","187535","0.0-3.0-4.0-1.0-0.3","62d2aee15e1dc6709bdcace0","6662009ae78f21dd82fcd179","6662095dd37f5e964b55de74","542","","j","","","","","","","","./tasks/HMM-beads/Images/NewTrialWC.png","practice","0","3","0","0","1","1","false","",""
"image-keyboard-response","24","187841","0.0-3.0-4.0-1.0-1.3","62d2aee15e1dc6709bdcace0","6662009ae78f21dd82fcd179","6662095dd37f5e964b55de74","null","","null","","","","","","","","./tasks/HMM-beads/Images/WhiteBeadChoice.png","","","","","","","","","",""
"image-keyboard-response","25","188351","0.0-3.0-4.0-1.0-2.3","62d2aee15e1dc6709bdcace0","6662009ae78f21dd82fcd179","6662095dd37f5e964b55de74","null","","null","","","","","","","","./tasks/HMM-beads/Images/WhiteBeadChoiceWrong.png","","","","","","","","","",""
"image-keyboard-response","26","189067","0.0-3.0-4.0-1.0-0.4","62d2aee15e1dc6709bdcace0","6662009ae78f21dd82fcd179","6662095dd37f5e964b55de74","707","","f","","","","","","","","./tasks/HMM-beads/Images/NewTrialBC.png","practice","0","4","0","0","0","0","true","",""
"image-keyboard-response","27","189371","0.0-3.0-4.0-1.0-1.4","62d2aee15e1dc6709bdcace0","6662009ae78f21dd82fcd179","6662095dd37f5e964b55de74","null","","null","","","","","","","","./tasks/HMM-beads/Images/BlackBeadChoice.png","","","","","","","","","",""
"image-keyboard-response","28","189891","0.0-3.0-4.0-1.0-2.4","62d2aee15e1dc6709bdcace0","6662009ae78f21dd82fcd179","6662095dd37f5e964b55de74","null","","null","","","","","","","","./tasks/HMM-beads/Images/BlackBeadChoiceCorrect.png","","","","","","","","","",""
"image-keyboard-response","29","190620","0.0-3.0-4.0-1.0-0.5","62d2aee15e1dc6709bdcace0","6662009ae78f21dd82fcd179","6662095dd37f5e964b55de74","727","","j","","","","","","","","./tasks/HMM-beads/Images/NewTrialBC.png","practice","0","5","0","1","0","1","true","",""
"image-keyboard-response","30","190926","0.0-3.0-4.0-1.0-1.5","62d2aee15e1dc6709bdcace0","6662009ae78f21dd82fcd179","6662095dd37f5e964b55de74","null","","null","","","","","","","","./tasks/HMM-beads/Images/WhiteBeadChoice.png","","","","","","","","","",""
"image-keyboard-response","31","191431","0.0-3.0-4.0-1.0-2.5","62d2aee15e1dc6709bdcace0","6662009ae78f21dd82fcd179","6662095dd37f5e964b55de74","null","","null","","","","","","","","./tasks/HMM-beads/Images/WhiteBeadChoiceCorrect.png","","","","","","","","","",""
"image-keyboard-response","32","192087","0.0-3.0-4.0-1.0-0.6","62d2aee15e1dc6709bdcace0","6662009ae78f21dd82fcd179","6662095dd37f5e964b55de74","654","","j","","","","","","","","./tasks/HMM-beads/Images/NewTrialWC.png","practice","0","6","0","0","1","1","false","",""
"image-keyboard-response","33","192401","0.0-3.0-4.0-1.0-1.6","62d2aee15e1dc6709bdcace0","6662009ae78f21dd82fcd179","6662095dd37f5e964b55de74","null","","null","","","","","","","","./tasks/HMM-beads/Images/WhiteBeadChoice.png","","","","","","","","","",""
"image-keyboard-response","34","192911","0.0-3.0-4.0-1.0-2.6","62d2aee15e1dc6709bdcace0","6662009ae78f21dd82fcd179","6662095dd37f5e964b55de74","null","","null","","","","","","","","./tasks/HMM-beads/Images/WhiteBeadChoiceWrong.png","","","","","","","","","",""
"image-keyboard-response","35","193562","0.0-3.0-4.0-1.0-0.7","62d2aee15e1dc6709bdcace0","6662009ae78f21dd82fcd179","6662095dd37f5e964b55de74","648","","j","","","","","","","","./tasks/HMM-beads/Images/NewTrialBC.png","practice","0","7","0","0","0","1","false","",""
"image-keyboard-response","36","193876","0.0-3.0-4.0-1.0-1.7","62d2aee15e1dc6709bdcace0","6662009ae78f21dd82fcd179","6662095dd37f5e964b55de74","null","","null","","","","","","","","./tasks/HMM-beads/Images/WhiteBeadChoice.png","","","","","","","","","",""
"image-keyboard-response","37","194391","0.0-3.0-4.0-1.0-2.7","62d2aee15e1dc6709bdcace0","6662009ae78f21dd82fcd179","6662095dd37f5e964b55de74","null","","null","","","","","","","","./tasks/HMM-beads/Images/WhiteBeadChoiceWrong.png","","","","","","","","","",""
"image-keyboard-response","38","194927","0.0-3.0-4.0-1.0-0.8","62d2aee15e1dc6709bdcace0","6662009ae78f21dd82fcd179","6662095dd37f5e964b55de74","535","","f","","","","","","","","./tasks/HMM-beads/Images/NewTrialBC.png","practice","0","8","0","0","0","0","true","",""
"image-keyboard-response","39","195241","0.0-3.0-4.0-1.0-1.8","62d2aee15e1dc6709bdcace0","6662009ae78f21dd82fcd179","6662095dd37f5e964b55de74","null","","null","","","","","","","","./tasks/HMM-beads/Images/BlackBeadChoice.png","","","","","","","","","",""
"image-keyboard-response","40","195746","0.0-3.0-4.0-1.0-2.8","62d2aee15e1dc6709bdcace0","6662009ae78f21dd82fcd179","6662095dd37f5e964b55de74","null","","null","","","","","","","","./tasks/HMM-beads/Images/BlackBeadChoiceCorrect.png","","","","","","","","","",""
"image-keyboard-response","41","196305","0.0-3.0-4.0-1.0-0.9","62d2aee15e1dc6709bdcace0","6662009ae78f21dd82fcd179","6662095dd37f5e964b55de74","557","","f","","","","","","","","./tasks/HMM-beads/Images/NewTrialBC.png","practice","0","9","0","1","0","0","false","",""
"image-keyboard-response","42","196611","0.0-3.0-4.0-1.0-1.9","62d2aee15e1dc6709bdcace0","6662009ae78f21dd82fcd179","6662095dd37f5e964b55de74","null","","null","","","","","","","","./tasks/HMM-beads/Images/BlackBeadChoice.png","","","","","","","","","",""
"image-keyboard-response","43","197121","0.0-3.0-4.0-1.0-2.9","62d2aee15e1dc6709bdcace0","6662009ae78f21dd82fcd179","6662095dd37f5e964b55de74","null","","null","","","","","","","","./tasks/HMM-beads/Images/BlackBeadChoiceWrong.png","","","","","","","","","",""
"image-keyboard-response","44","197575","0.0-3.0-4.0-1.0-0.10","62d2aee15e1dc6709bdcace0","6662009ae78f21dd82fcd179","6662095dd37f5e964b55de74","452","","j","","","","","","","","./tasks/HMM-beads/Images/NewTrialWC.png","practice","0","10","0","0","1","1","false","",""
"image-keyboard-response","45","197891","0.0-3.0-4.0-1.0-1.10","62d2aee15e1dc6709bdcace0","6662009ae78f21dd82fcd179","6662095dd37f5e964b55de74","null","","null","","","","","","","","./tasks/HMM-beads/Images/WhiteBeadChoice.png","","","","","","","","","",""
"image-keyboard-response","46","198411","0.0-3.0-4.0-1.0-2.10","62d2aee15e1dc6709bdcace0","6662009ae78f21dd82fcd179","6662095dd37f5e964b55de74","null","","null","","","","","","","","./tasks/HMM-beads/Images/WhiteBeadChoiceWrong.png","","","","","","","","","",""
"image-keyboard-response","47","199345","0.0-3.0-4.0-1.0-0.11","62d2aee15e1dc6709bdcace0","6662009ae78f21dd82fcd179","6662095dd37f5e964b55de74","932","","f","","","","","","","","./tasks/HMM-beads/Images/NewTrialBC.png","practice","0","11","0","1","0","0","false","",""
"image-keyboard-response","48","199661","0.0-3.0-4.0-1.0-1.11","62d2aee15e1dc6709bdcace0","6662009ae78f21dd82fcd179","6662095dd37f5e964b55de74","null","","null","","","","","","","","./tasks/HMM-beads/Images/BlackBeadChoice.png","","","","","","","","","",""
"image-keyboard-response","49","200181","0.0-3.0-4.0-1.0-2.11","62d2aee15e1dc6709bdcace0","6662009ae78f21dd82fcd179","6662095dd37f5e964b55de74","null","","null","","","","","","","","./tasks/HMM-beads/Images/BlackBeadChoiceWrong.png","","","","","","","","","",""
"image-keyboard-response","50","200711","0.0-3.0-4.0-1.0-0.12","62d2aee15e1dc6709bdcace0","6662009ae78f21dd82fcd179","6662095dd37f5e964b55de74","528","","j","","","","","","","","./tasks/HMM-beads/Images/NewTrialWC.png","practice","0","12","0","0","1","1","false","",""
"image-keyboard-response","51","201021","0.0-3.0-4.0-1.0-1.12","62d2aee15e1dc6709bdcace0","6662009ae78f21dd82fcd179","6662095dd37f5e964b55de74","null","","null","","","","","","","","./tasks/HMM-beads/Images/WhiteBeadChoice.png","","","","","","","","","",""
"image-keyboard-response","52","201531","0.0-3.0-4.0-1.0-2.12","62d2aee15e1dc6709bdcace0","6662009ae78f21dd82fcd179","6662095dd37f5e964b55de74","null","","null","","","","","","","","./tasks/HMM-beads/Images/WhiteBeadChoiceWrong.png","","","","","","","","","",""
"image-keyboard-response","53","201924","0.0-3.0-4.0-1.0-0.13","62d2aee15e1dc6709bdcace0","6662009ae78f21dd82fcd179","6662095dd37f5e964b55de74","391","","f","","","","","","","","./tasks/HMM-beads/Images/NewTrialBC.png","practice","0","13","0","0","0","0","true","",""
"image-keyboard-response","54","202231","0.0-3.0-4.0-1.0-1.13","62d2aee15e1dc6709bdcace0","6662009ae78f21dd82fcd179","6662095dd37f5e964b55de74","null","","null","","","","","","","","./tasks/HMM-beads/Images/BlackBeadChoice.png","","","","","","","","","",""
"image-keyboard-response","55","202747","0.0-3.0-4.0-1.0-2.13","62d2aee15e1dc6709bdcace0","6662009ae78f21dd82fcd179","6662095dd37f5e964b55de74","null","","null","","","","","","","","./tasks/HMM-beads/Images/BlackBeadChoiceCorrect.png","","","","","","","","","",""
"image-keyboard-response","56","203277","0.0-3.0-4.0-1.0-0.14","62d2aee15e1dc6709bdcace0","6662009ae78f21dd82fcd179","6662095dd37f5e964b55de74","528","","f","","","","","","","","./tasks/HMM-beads/Images/NewTrialBC.png","practice","0","14","0","0","0","0","true","",""
"image-keyboard-response","57","203591","0.0-3.0-4.0-1.0-1.14","62d2aee15e1dc6709bdcace0","6662009ae78f21dd82fcd179","6662095dd37f5e964b55de74","null","","null","","","","","","","","./tasks/HMM-beads/Images/BlackBeadChoice.png","","","","","","","","","",""
"image-keyboard-response","58","204112","0.0-3.0-4.0-1.0-2.14","62d2aee15e1dc6709bdcace0","6662009ae78f21dd82fcd179","6662095dd37f5e964b55de74","null","","null","","","","","","","","./tasks/HMM-beads/Images/BlackBeadChoiceCorrect.png","","","","","","","","","",""
"image-keyboard-response","59","204534","0.0-3.0-4.0-1.0-0.15","62d2aee15e1dc6709bdcace0","6662009ae78f21dd82fcd179","6662095dd37f5e964b55de74","421","","j","","","","","","","","./tasks/HMM-beads/Images/NewTrialBC.png","practice","0","15","0","0","0","1","false","",""
"image-keyboard-response","60","204851","0.0-3.0-4.0-1.0-1.15","62d2aee15e1dc6709bdcace0","6662009ae78f21dd82fcd179","6662095dd37f5e964b55de74","null","","null","","","","","","","","./tasks/HMM-beads/Images/WhiteBeadChoice.png","","","","","","","","","",""
"image-keyboard-response","61","205371","0.0-3.0-4.0-1.0-2.15","62d2aee15e1dc6709bdcace0","6662009ae78f21dd82fcd179","6662095dd37f5e964b55de74","null","","null","","","","","","","","./tasks/HMM-beads/Images/WhiteBeadChoiceWrong.png","","","","","","","","","",""
"image-keyboard-response","62","206390","0.0-3.0-4.0-1.0-0.16","62d2aee15e1dc6709bdcace0","6662009ae78f21dd82fcd179","6662095dd37f5e964b55de74","1017","","j","","","","","","","","./tasks/HMM-beads/Images/NewTrialBC.png","practice","0","16","0","0","0","1","false","",""
"image-keyboard-response","63","206710","0.0-3.0-4.0-1.0-1.16","62d2aee15e1dc6709bdcace0","6662009ae78f21dd82fcd179","6662095dd37f5e964b55de74","null","","null","","","","","","","","./tasks/HMM-beads/Images/WhiteBeadChoice.png","","","","","","","","","",""
"image-keyboard-response","64","207231","0.0-3.0-4.0-1.0-2.16","62d2aee15e1dc6709bdcace0","6662009ae78f21dd82fcd179","6662095dd37f5e964b55de74","null","","null","","","","","","","","./tasks/HMM-beads/Images/WhiteBeadChoiceWrong.png","","","","","","","","","",""
"image-keyboard-response","65","207852","0.0-3.0-4.0-1.0-0.17","62d2aee15e1dc6709bdcace0","6662009ae78f21dd82fcd179","6662095dd37f5e964b55de74","610","","f","","","","","","","","./tasks/HMM-beads/Images/NewTrialBC.png","practice","0","17","0","0","0","0","true","",""
"image-keyboard-response","66","208171","0.0-3.0-4.0-1.0-1.17","62d2aee15e1dc6709bdcace0","6662009ae78f21dd82fcd179","6662095dd37f5e964b55de74","null","","null","","","","","","","","./tasks/HMM-beads/Images/BlackBeadChoice.png","","","","","","","","","",""
"image-keyboard-response","67","208686","0.0-3.0-4.0-1.0-2.17","62d2aee15e1dc6709bdcace0","6662009ae78f21dd82fcd179","6662095dd37f5e964b55de74","null","","null","","","","","","","","./tasks/HMM-beads/Images/BlackBeadChoiceCorrect.png","","","","","","","","","",""
"image-keyboard-response","68","209256","0.0-3.0-4.0-1.0-0.18","62d2aee15e1dc6709bdcace0","6662009ae78f21dd82fcd179","6662095dd37f5e964b55de74","569","","f","","","","","","","","./tasks/HMM-beads/Images/NewTrialBC.png","practice","0","18","0","1","0","0","false","",""
"image-keyboard-response","69","209576","0.0-3.0-4.0-1.0-1.18","62d2aee15e1dc6709bdcace0","6662009ae78f21dd82fcd179","6662095dd37f5e964b55de74","null","","null","","","","","","","","./tasks/HMM-beads/Images/BlackBeadChoice.png","","","","","","","","","",""
"image-keyboard-response","70","210086","0.0-3.0-4.0-1.0-2.18","62d2aee15e1dc6709bdcace0","6662009ae78f21dd82fcd179","6662095dd37f5e964b55de74","null","","null","","","","","","","","./tasks/HMM-beads/Images/BlackBeadChoiceWrong.png","","","","","","","","","",""
"image-keyboard-response","71","211258","0.0-3.0-4.0-1.0-0.19","62d2aee15e1dc6709bdcace0","6662009ae78f21dd82fcd179","6662095dd37f5e964b55de74","1170","","j","","","","","","","","./tasks/HMM-beads/Images/NewTrialWC.png","practice","0","19","0","0","1","1","false","",""
"image-keyboard-response","72","211561","0.0-3.0-4.0-1.0-1.19","62d2aee15e1dc6709bdcace0","6662009ae78f21dd82fcd179","6662095dd37f5e964b55de74","null","","null","","","","","","","","./tasks/HMM-beads/Images/WhiteBeadChoice.png","","","","","","","","","",""
"image-keyboard-response","73","212076","0.0-3.0-4.0-1.0-2.19","62d2aee15e1dc6709bdcace0","6662009ae78f21dd82fcd179","6662095dd37f5e964b55de74","null","","null","","","","","","","","./tasks/HMM-beads/Images/WhiteBeadChoiceWrong.png","","","","","","","","","",""
"image-keyboard-response","74","212624","0.0-3.0-4.0-1.0-0.20","62d2aee15e1dc6709bdcace0","6662009ae78f21dd82fcd179","6662095dd37f5e964b55de74","546","","f","","","","","","","","./tasks/HMM-beads/Images/NewTrialBC.png","practice","0","20","0","0","0","0","true","",""
"image-keyboard-response","75","212946","0.0-3.0-4.0-1.0-1.20","62d2aee15e1dc6709bdcace0","6662009ae78f21dd82fcd179","6662095dd37f5e964b55de74","null","","null","","","","","","","","./tasks/HMM-beads/Images/BlackBeadChoice.png","","","","","","","","","",""
"image-keyboard-response","76","213452","0.0-3.0-4.0-1.0-2.20","62d2aee15e1dc6709bdcace0","6662009ae78f21dd82fcd179","6662095dd37f5e964b55de74","null","","null","","","","","","","","./tasks/HMM-beads/Images/BlackBeadChoiceCorrect.png","","","","","","","","","",""
"image-keyboard-response","77","213838","0.0-3.0-4.0-1.0-0.21","62d2aee15e1dc6709bdcace0","6662009ae78f21dd82fcd179","6662095dd37f5e964b55de74","385","","j","","","","","","","","./tasks/HMM-beads/Images/NewTrialBC.png","practice","0","21","0","1","0","1","true","",""
"image-keyboard-response","78","214151","0.0-3.0-4.0-1.0-1.21","62d2aee15e1dc6709bdcace0","6662009ae78f21dd82fcd179","6662095dd37f5e964b55de74","null","","null","","","","","","","","./tasks/HMM-beads/Images/WhiteBeadChoice.png","","","","","","","","","",""
"image-keyboard-response","79","214671","0.0-3.0-4.0-1.0-2.21","62d2aee15e1dc6709bdcace0","6662009ae78f21dd82fcd179","6662095dd37f5e964b55de74","null","","null","","","","","","","","./tasks/HMM-beads/Images/WhiteBeadChoiceCorrect.png","","","","","","","","","",""
"image-keyboard-response","80","216954","0.0-3.0-4.0-1.0-0.22","62d2aee15e1dc6709bdcace0","6662009ae78f21dd82fcd179","6662095dd37f5e964b55de74","2281","","f","","","","","","","","./tasks/HMM-beads/Images/NewTrialWC.png","practice","0","22","1","1","1","0","false","",""
"image-keyboard-response","81","217261","0.0-3.0-4.0-1.0-1.22","62d2aee15e1dc6709bdcace0","6662009ae78f21dd82fcd179","6662095dd37f5e964b55de74","null","","null","","","","","","","","./tasks/HMM-beads/Images/BlackBeadChoice.png","","","","","","","","","",""
"image-keyboard-response","82","217772","0.0-3.0-4.0-1.0-2.22","62d2aee15e1dc6709bdcace0","6662009ae78f21dd82fcd179","6662095dd37f5e964b55de74","null","","null","","","","","","","","./tasks/HMM-beads/Images/BlackBeadChoiceWrong.png","","","","","","","","","",""
"image-keyboard-response","83","218150","0.0-3.0-4.0-1.0-0.23","62d2aee15e1dc6709bdcace0","6662009ae78f21dd82fcd179","6662095dd37f5e964b55de74","377","","f","","","","","","","","./tasks/HMM-beads/Images/NewTrialWC.png","practice","0","23","1","0","1","0","true","",""
"image-keyboard-response","84","218456","0.0-3.0-4.0-1.0-1.23","62d2aee15e1dc6709bdcace0","6662009ae78f21dd82fcd179","6662095dd37f5e964b55de74","null","","null","","","","","","","","./tasks/HMM-beads/Images/BlackBeadChoice.png","","","","","","","","","",""
"image-keyboard-response","85","218961","0.0-3.0-4.0-1.0-2.23","62d2aee15e1dc6709bdcace0","6662009ae78f21dd82fcd179","6662095dd37f5e964b55de74","null","","null","","","","","","","","./tasks/HMM-beads/Images/BlackBeadChoiceCorrect.png","","","","","","","","","",""
"image-keyboard-response","86","219504","0.0-3.0-4.0-1.0-0.24","62d2aee15e1dc6709bdcace0","6662009ae78f21dd82fcd179","6662095dd37f5e964b55de74","541","","f","","","","","","","","./tasks/HMM-beads/Images/NewTrialBC.png","practice","0","24","1","1","0","0","false","",""
"image-keyboard-response","87","219816","0.0-3.0-4.0-1.0-1.24","62d2aee15e1dc6709bdcace0","6662009ae78f21dd82fcd179","6662095dd37f5e964b55de74","null","","null","","","","","","","","./tasks/HMM-beads/Images/BlackBeadChoice.png","","","","","","","","","",""
"image-keyboard-response","88","220331","0.0-3.0-4.0-1.0-2.24","62d2aee15e1dc6709bdcace0","6662009ae78f21dd82fcd179","6662095dd37f5e964b55de74","null","","null","","","","","","","","./tasks/HMM-beads/Images/BlackBeadChoiceWrong.png","","","","","","","","","",""
"image-keyboard-response","89","220503","0.0-3.0-4.0-1.0-0.25","62d2aee15e1dc6709bdcace0","6662009ae78f21dd82fcd179","6662095dd37f5e964b55de74","171","","j","","","","","","","","./tasks/HMM-beads/Images/NewTrialWC.png","practice","0","25","1","1","1","1","true","",""
"image-keyboard-response","90","220821","0.0-3.0-4.0-1.0-1.25","62d2aee15e1dc6709bdcace0","6662009ae78f21dd82fcd179","6662095dd37f5e964b55de74","null","","null","","","","","","","","./tasks/HMM-beads/Images/WhiteBeadChoice.png","","","","","","","","","",""
"image-keyboard-response","91","221336","0.0-3.0-4.0-1.0-2.25","62d2aee15e1dc6709bdcace0","6662009ae78f21dd82fcd179","6662095dd37f5e964b55de74","null","","null","","","","","","","","./tasks/HMM-beads/Images/WhiteBeadChoiceCorrect.png","","","","","","","","","",""
"image-keyboard-response","92","221796","0.0-3.0-4.0-1.0-0.26","62d2aee15e1dc6709bdcace0","6662009ae78f21dd82fcd179","6662095dd37f5e964b55de74","458","","f","","","","","","","","./tasks/HMM-beads/Images/NewTrialWC.png","practice","0","26","1","1","1","0","false","",""
"image-keyboard-response","93","222101","0.0-3.0-4.0-1.0-1.26","62d2aee15e1dc6709bdcace0","6662009ae78f21dd82fcd179","6662095dd37f5e964b55de74","null","","null","","","","","","","","./tasks/HMM-beads/Images/BlackBeadChoice.png","","","","","","","","","",""
"image-keyboard-response","94","222611","0.0-3.0-4.0-1.0-2.26","62d2aee15e1dc6709bdcace0","6662009ae78f21dd82fcd179","6662095dd37f5e964b55de74","null","","null","","","","","","","","./tasks/HMM-beads/Images/BlackBeadChoiceWrong.png","","","","","","","","","",""
"image-keyboard-response","95","223014","0.0-3.0-4.0-1.0-0.27","62d2aee15e1dc6709bdcace0","6662009ae78f21dd82fcd179","6662095dd37f5e964b55de74","402","","j","","","","","","","","./tasks/HMM-beads/Images/NewTrialWC.png","practice","0","27","1","1","1","1","true","",""
"image-keyboard-response","96","223331","0.0-3.0-4.0-1.0-1.27","62d2aee15e1dc6709bdcace0","6662009ae78f21dd82fcd179","6662095dd37f5e964b55de74","null","","null","","","","","","","","./tasks/HMM-beads/Images/WhiteBeadChoice.png","","","","","","","","","",""
"image-keyboard-response","97","223845","0.0-3.0-4.0-1.0-2.27","62d2aee15e1dc6709bdcace0","6662009ae78f21dd82fcd179","6662095dd37f5e964b55de74","null","","null","","","","","","","","./tasks/HMM-beads/Images/WhiteBeadChoiceCorrect.png","","","","","","","","","",""
"image-keyboard-response","98","224347","0.0-3.0-4.0-1.0-0.28","62d2aee15e1dc6709bdcace0","6662009ae78f21dd82fcd179","6662095dd37f5e964b55de74","500","","j","","","","","","","","./tasks/HMM-beads/Images/NewTrialWC.png","practice","0","28","1","0","1","1","false","",""
"image-keyboard-response","99","224666","0.0-3.0-4.0-1.0-1.28","62d2aee15e1dc6709bdcace0","6662009ae78f21dd82fcd179","6662095dd37f5e964b55de74","null","","null","","","","","","","","./tasks/HMM-beads/Images/WhiteBeadChoice.png","","","","","","","","","",""
"image-keyboard-response","100","225181","0.0-3.0-4.0-1.0-2.28","62d2aee15e1dc6709bdcace0","6662009ae78f21dd82fcd179","6662095dd37f5e964b55de74","null","","null","","","","","","","","./tasks/HMM-beads/Images/WhiteBeadChoiceWrong.png","","","","","","","","","",""
"image-keyboard-response","101","225724","0.0-3.0-4.0-1.0-0.29","62d2aee15e1dc6709bdcace0","6662009ae78f21dd82fcd179","6662095dd37f5e964b55de74","542","","j","","","","","","","","./tasks/HMM-beads/Images/NewTrialBC.png","practice","0","29","1","1","0","1","true","",""
"image-keyboard-response","102","226030","0.0-3.0-4.0-1.0-1.29","62d2aee15e1dc6709bdcace0","6662009ae78f21dd82fcd179","6662095dd37f5e964b55de74","null","","null","","","","","","","","./tasks/HMM-beads/Images/WhiteBeadChoice.png","","","","","","","","","",""
"image-keyboard-response","103","226551","0.0-3.0-4.0-1.0-2.29","62d2aee15e1dc6709bdcace0","6662009ae78f21dd82fcd179","6662095dd37f5e964b55de74","null","","null","","","","","","","","./tasks/HMM-beads/Images/WhiteBeadChoiceCorrect.png","","","","","","","","","",""
"image-keyboard-response","104","227064","0.0-3.0-4.0-1.0-0.30","62d2aee15e1dc6709bdcace0","6662009ae78f21dd82fcd179","6662095dd37f5e964b55de74","505","","j","","","","","","","","./tasks/HMM-beads/Images/NewTrialWC.png","practice","0","30","1","0","1","1","false","",""
"image-keyboard-response","105","227381","0.0-3.0-4.0-1.0-1.30","62d2aee15e1dc6709bdcace0","6662009ae78f21dd82fcd179","6662095dd37f5e964b55de74","null","","null","","","","","","","","./tasks/HMM-beads/Images/WhiteBeadChoice.png","","","","","","","","","",""
"image-keyboard-response","106","227896","0.0-3.0-4.0-1.0-2.30","62d2aee15e1dc6709bdcace0","6662009ae78f21dd82fcd179","6662095dd37f5e964b55de74","null","","null","","","","","","","","./tasks/HMM-beads/Images/WhiteBeadChoiceWrong.png","","","","","","","","","",""
"image-keyboard-response","107","228288","0.0-3.0-4.0-1.0-0.31","62d2aee15e1dc6709bdcace0","6662009ae78f21dd82fcd179","6662095dd37f5e964b55de74","391","","f","","","","","","","","./tasks/HMM-beads/Images/NewTrialBC.png","practice","0","31","1","1","0","0","false","",""
"image-keyboard-response","108","228596","0.0-3.0-4.0-1.0-1.31","62d2aee15e1dc6709bdcace0","6662009ae78f21dd82fcd179","6662095dd37f5e964b55de74","null","","null","","","","","","","","./tasks/HMM-beads/Images/BlackBeadChoice.png","","","","","","","","","",""
"image-keyboard-response","109","229106","0.0-3.0-4.0-1.0-2.31","62d2aee15e1dc6709bdcace0","6662009ae78f21dd82fcd179","6662095dd37f5e964b55de74","null","","null","","","","","","","","./tasks/HMM-beads/Images/BlackBeadChoiceWrong.png","","","","","","","","","",""
"image-keyboard-response","110","229609","0.0-3.0-4.0-1.0-0.32","62d2aee15e1dc6709bdcace0","6662009ae78f21dd82fcd179","6662095dd37f5e964b55de74","502","","f","","","","","","","","./tasks/HMM-beads/Images/NewTrialWC.png","practice","0","32","1","1","1","0","false","",""
"image-keyboard-response","111","229916","0.0-3.0-4.0-1.0-1.32","62d2aee15e1dc6709bdcace0","6662009ae78f21dd82fcd179","6662095dd37f5e964b55de74","null","","null","","","","","","","","./tasks/HMM-beads/Images/BlackBeadChoice.png","","","","","","","","","",""
"image-keyboard-response","112","230421","0.0-3.0-4.0-1.0-2.32","62d2aee15e1dc6709bdcace0","6662009ae78f21dd82fcd179","6662095dd37f5e964b55de74","null","","null","","","","","","","","./tasks/HMM-beads/Images/BlackBeadChoiceWrong.png","","","","","","","","","",""
"image-keyboard-response","113","230590","0.0-3.0-4.0-1.0-0.33","62d2aee15e1dc6709bdcace0","6662009ae78f21dd82fcd179","6662095dd37f5e964b55de74","168","","j","","","","","","","","./tasks/HMM-beads/Images/NewTrialWC.png","practice","0","33","1","1","1","1","true","",""
"image-keyboard-response","114","230906","0.0-3.0-4.0-1.0-1.33","62d2aee15e1dc6709bdcace0","6662009ae78f21dd82fcd179","6662095dd37f5e964b55de74","null","","null","","","","","","","","./tasks/HMM-beads/Images/WhiteBeadChoice.png","","","","","","","","","",""
"image-keyboard-response","115","231411","0.0-3.0-4.0-1.0-2.33","62d2aee15e1dc6709bdcace0","6662009ae78f21dd82fcd179","6662095dd37f5e964b55de74","null","","null","","","","","","","","./tasks/HMM-beads/Images/WhiteBeadChoiceCorrect.png","","","","","","","","","",""
"image-keyboard-response","116","231666","0.0-3.0-4.0-1.0-0.34","62d2aee15e1dc6709bdcace0","6662009ae78f21dd82fcd179","6662095dd37f5e964b55de74","253","","f","","","","","","","","./tasks/HMM-beads/Images/NewTrialWC.png","practice","0","34","1","1","1","0","false","",""
"image-keyboard-response","117","231981","0.0-3.0-4.0-1.0-1.34","62d2aee15e1dc6709bdcace0","6662009ae78f21dd82fcd179","6662095dd37f5e964b55de74","null","","null","","","","","","","","./tasks/HMM-beads/Images/BlackBeadChoice.png","","","","","","","","","",""
"image-keyboard-response","118","232486","0.0-3.0-4.0-1.0-2.34","62d2aee15e1dc6709bdcace0","6662009ae78f21dd82fcd179","6662095dd37f5e964b55de74","null","","null","","","","","","","","./tasks/HMM-beads/Images/BlackBeadChoiceWrong.png","","","","","","","","","",""
"image-keyboard-response","119","232842","0.0-3.0-4.0-1.0-0.35","62d2aee15e1dc6709bdcace0","6662009ae78f21dd82fcd179","6662095dd37f5e964b55de74","354","","f","","","","","","","","./tasks/HMM-beads/Images/NewTrialWC.png","practice","0","35","1","1","1","0","false","",""
"image-keyboard-response","120","233151","0.0-3.0-4.0-1.0-1.35","62d2aee15e1dc6709bdcace0","6662009ae78f21dd82fcd179","6662095dd37f5e964b55de74","null","","null","","","","","","","","./tasks/HMM-beads/Images/BlackBeadChoice.png","","","","","","","","","",""
"image-keyboard-response","121","233662","0.0-3.0-4.0-1.0-2.35","62d2aee15e1dc6709bdcace0","6662009ae78f21dd82fcd179","6662095dd37f5e964b55de74","null","","null","","","","","","","","./tasks/HMM-beads/Images/BlackBeadChoiceWrong.png","","","","","","","","","",""
"image-keyboard-response","122","233771","0.0-3.0-4.0-1.0-0.36","62d2aee15e1dc6709bdcace0","6662009ae78f21dd82fcd179","6662095dd37f5e964b55de74","108","","j","","","","","","","","./tasks/HMM-beads/Images/NewTrialWC.png","practice","0","36","1","0","1","1","false","",""
"image-keyboard-response","123","234081","0.0-3.0-4.0-1.0-1.36","62d2aee15e1dc6709bdcace0","6662009ae78f21dd82fcd179","6662095dd37f5e964b55de74","null","","null","","","","","","","","./tasks/HMM-beads/Images/WhiteBeadChoice.png","","","","","","","","","",""
"image-keyboard-response","124","234601","0.0-3.0-4.0-1.0-2.36","62d2aee15e1dc6709bdcace0","6662009ae78f21dd82fcd179","6662095dd37f5e964b55de74","null","","null","","","","","","","","./tasks/HMM-beads/Images/WhiteBeadChoiceWrong.png","","","","","","","","","",""
"image-keyboard-response","125","235098","0.0-3.0-4.0-1.0-0.37","62d2aee15e1dc6709bdcace0","6662009ae78f21dd82fcd179","6662095dd37f5e964b55de74","496","","j","","","","","","","","./tasks/HMM-beads/Images/NewTrialBC.png","practice","0","37","1","1","0","1","true","",""
"image-keyboard-response","126","235400","0.0-3.0-4.0-1.0-1.37","62d2aee15e1dc6709bdcace0","6662009ae78f21dd82fcd179","6662095dd37f5e964b55de74","null","","null","","","","","","","","./tasks/HMM-beads/Images/WhiteBeadChoice.png","","","","","","","","","",""
"image-keyboard-response","127","235921","0.0-3.0-4.0-1.0-2.37","62d2aee15e1dc6709bdcace0","6662009ae78f21dd82fcd179","6662095dd37f5e964b55de74","null","","null","","","","","","","","./tasks/HMM-beads/Images/WhiteBeadChoiceCorrect.png","","","","","","","","","",""
"image-keyboard-response","128","236426","0.0-3.0-4.0-1.0-0.38","62d2aee15e1dc6709bdcace0","6662009ae78f21dd82fcd179","6662095dd37f5e964b55de74","503","","j","","","","","","","","./tasks/HMM-beads/Images/NewTrialWC.png","practice","0","38","1","1","1","1","true","",""
"image-keyboard-response","129","236736","0.0-3.0-4.0-1.0-1.38","62d2aee15e1dc6709bdcace0","6662009ae78f21dd82fcd179","6662095dd37f5e964b55de74","null","","null","","","","","","","","./tasks/HMM-beads/Images/WhiteBeadChoice.png","","","","","","","","","",""
"image-keyboard-response","130","237261","0.0-3.0-4.0-1.0-2.38","62d2aee15e1dc6709bdcace0","6662009ae78f21dd82fcd179","6662095dd37f5e964b55de74","null","","null","","","","","","","","./tasks/HMM-beads/Images/WhiteBeadChoiceCorrect.png","","","","","","","","","",""
"image-keyboard-response","131","237655","0.0-3.0-4.0-1.0-0.39","62d2aee15e1dc6709bdcace0","6662009ae78f21dd82fcd179","6662095dd37f5e964b55de74","392","","j","","","","","","","","./tasks/HMM-beads/Images/NewTrialWC.png","practice","0","39","1","1","1","1","true","",""
"image-keyboard-response","132","237971","0.0-3.0-4.0-1.0-1.39","62d2aee15e1dc6709bdcace0","6662009ae78f21dd82fcd179","6662095dd37f5e964b55de74","null","","null","","","","","","","","./tasks/HMM-beads/Images/WhiteBeadChoice.png","","","","","","","","","",""
"image-keyboard-response","133","238491","0.0-3.0-4.0-1.0-2.39","62d2aee15e1dc6709bdcace0","6662009ae78f21dd82fcd179","6662095dd37f5e964b55de74","null","","null","","","","","","","","./tasks/HMM-beads/Images/WhiteBeadChoiceCorrect.png","","","","","","","","","",""
"html-keyboard-response","134","243077","0.0-3.0-4.0-2.0","62d2aee15e1dc6709bdcace0","6662009ae78f21dd82fcd179","6662095dd37f5e964b55de74","4584",""," ","","","","","","","","","","","","","","","","","",""
"instructions","135","262686","0.0-3.0-5.0","62d2aee15e1dc6709bdcace0","6662009ae78f21dd82fcd179","6662095dd37f5e964b55de74","19605","","","","[{""page_index"":0,""viewing_time"":10282},{""page_index"":1,""viewing_time"":9322}]","","","","","","","","","","","","","","","",""
"html-keyboard-response","136","265964","0.0-3.0-6.0-0.0","62d2aee15e1dc6709bdcace0","6662009ae78f21dd82fcd179","6662095dd37f5e964b55de74","3277",""," ","","","","","","","","<div align=center>In this block, there will be a <b>1% chance</b> that the jar on the next trial will be different from the jar on the current trial.<br><br></div>","","","","","","","","","",""
"image-keyboard-response","137","266714","0.0-3.0-6.0-1.0-0.0","62d2aee15e1dc6709bdcace0","6662009ae78f21dd82fcd179","6662095dd37f5e964b55de74","748","","j","","","","","","","","./tasks/HMM-beads/Images/NoChoice.png","lowH","1","0","1","0","9","1","false","",""
"image-keyboard-response","138","267030","0.0-3.0-6.0-1.0-1.0","62d2aee15e1dc6709bdcace0","6662009ae78f21dd82fcd179","6662095dd37f5e964b55de74","null","","null","","","","","","","","./tasks/HMM-beads/Images/WhiteBeadChoice.png","","","","","","","","","",""
"image-keyboard-response","139","267545","0.0-3.0-6.0-1.0-2.0","62d2aee15e1dc6709bdcace0","6662009ae78f21dd82fcd179","6662095dd37f5e964b55de74","null","","null","","","","","","","","./tasks/HMM-beads/Images/WhiteBeadChoiceWrong.png","","","","","","","","","",""
"image-keyboard-response","140","267575","0.0-3.0-6.0-1.0-0.1","62d2aee15e1dc6709bdcace0","6662009ae78f21dd82fcd179","6662095dd37f5e964b55de74","29","","f","","","","","","","","./tasks/HMM-beads/Images/NewTrialBC.png","lowH","1","1","1","1","0","0","false","",""
"image-keyboard-response","141","267889","0.0-3.0-6.0-1.0-1.1","62d2aee15e1dc6709bdcace0","6662009ae78f21dd82fcd179","6662095dd37f5e964b55de74","null","","null","","","","","","","","./tasks/HMM-beads/Images/BlackBeadChoice.png","","","","","","","","","",""
"image-keyboard-response","142","268399","0.0-3.0-6.0-1.0-2.1","62d2aee15e1dc6709bdcace0","6662009ae78f21dd82fcd179","6662095dd37f5e964b55de74","null","","null","","","","","","","","./tasks/HMM-beads/Images/BlackBeadChoiceWrong.png","","","","","","","","","",""
"image-keyboard-response","143","268567","0.0-3.0-6.0-1.0-0.2","62d2aee15e1dc6709bdcace0","6662009ae78f21dd82fcd179","6662095dd37f5e964b55de74","166","","j","","","","","","","","./tasks/HMM-beads/Images/NewTrialWC.png","lowH","1","2","1","1","1","1","true","",""
"image-keyboard-response","144","268869","0.0-3.0-6.0-1.0-1.2","62d2aee15e1dc6709bdcace0","6662009ae78f21dd82fcd179","6662095dd37f5e964b55de74","null","","null","","","","","","","","./tasks/HMM-beads/Images/WhiteBeadChoice.png","","","","","","","","","",""
"image-keyboard-response","145","269395","0.0-3.0-6.0-1.0-2.2","62d2aee15e1dc6709bdcace0","6662009ae78f21dd82fcd179","6662095dd37f5e964b55de74","null","","null","","","","","","","","./tasks/HMM-beads/Images/WhiteBeadChoiceCorrect.png","","","","","","","","","",""
"image-keyboard-response","146","270114","0.0-3.0-6.0-1.0-0.3","62d2aee15e1dc6709bdcace0","6662009ae78f21dd82fcd179","6662095dd37f5e964b55de74","717","","j","","","","","","","","./tasks/HMM-beads/Images/NewTrialWC.png","lowH","1","3","1","1","1","1","true","",""
"image-keyboard-response","147","270420","0.0-3.0-6.0-1.0-1.3","62d2aee15e1dc6709bdcace0","6662009ae78f21dd82fcd179","6662095dd37f5e964b55de74","null","","null","","","","","","","","./tasks/HMM-beads/Images/WhiteBeadChoice.png","","","","","","","","","",""
"image-keyboard-response","148","270939","0.0-3.0-6.0-1.0-2.3","62d2aee15e1dc6709bdcace0","6662009ae78f21dd82fcd179","6662095dd37f5e964b55de74","null","","null","","","","","","","","./tasks/HMM-beads/Images/WhiteBeadChoiceCorrect.png","","","","","","","","","",""
"image-keyboard-response","149","270990","0.0-3.0-6.0-1.0-0.4","62d2aee15e1dc6709bdcace0","6662009ae78f21dd82fcd179","6662095dd37f5e964b55de74","50","","j","","","","","","","","./tasks/HMM-beads/Images/NewTrialWC.png","lowH","1","4","1","1","1","1","true","",""
"image-keyboard-response","150","271309","0.0-3.0-6.0-1.0-1.4","62d2aee15e1dc6709bdcace0","6662009ae78f21dd82fcd179","6662095dd37f5e964b55de74","null","","null","","","","","","","","./tasks/HMM-beads/Images/WhiteBeadChoice.png","","","","","","","","","",""
"image-keyboard-response","151","271829","0.0-3.0-6.0-1.0-2.4","62d2aee15e1dc6709bdcace0","6662009ae78f21dd82fcd179","6662095dd37f5e964b55de74","null","","null","","","","","","","","./tasks/HMM-beads/Images/WhiteBeadChoiceCorrect.png","","","","","","","","","",""
"image-keyboard-response","152","272107","0.0-3.0-6.0-1.0-0.5","62d2aee15e1dc6709bdcace0","6662009ae78f21dd82fcd179","6662095dd37f5e964b55de74","277","","f","","","","","","","","./tasks/HMM-beads/Images/NewTrialWC.png","lowH","1","5","1","1","1","0","false","",""
"image-keyboard-response","153","272424","0.0-3.0-6.0-1.0-1.5","62d2aee15e1dc6709bdcace0","6662009ae78f21dd82fcd179","6662095dd37f5e964b55de74","null","","null","","","","","","","","./tasks/HMM-beads/Images/BlackBeadChoice.png","","","","","","","","","",""
"image-keyboard-response","154","272944","0.0-3.0-6.0-1.0-2.5","62d2aee15e1dc6709bdcace0","6662009ae78f21dd82fcd179","6662095dd37f5e964b55de74","null","","null","","","","","","","","./tasks/HMM-beads/Images/BlackBeadChoiceWrong.png","","","","","","","","","",""
"image-keyboard-response","155","272996","0.0-3.0-6.0-1.0-0.6","62d2aee15e1dc6709bdcace0","6662009ae78f21dd82fcd179","6662095dd37f5e964b55de74","50","","j","","","","","","","","./tasks/HMM-beads/Images/NewTrialWC.png","lowH","1","6","1","0","1","1","false","",""
"image-keyboard-response","156","273309","0.0-3.0-6.0-1.0-1.6","62d2aee15e1dc6709bdcace0","6662009ae78f21dd82fcd179","6662095dd37f5e964b55de74","null","","null","","","","","","","","./tasks/HMM-beads/Images/WhiteBeadChoice.png","","","","","","","","","",""
"image-keyboard-response","157","273819","0.0-3.0-6.0-1.0-2.6","62d2aee15e1dc6709bdcace0","6662009ae78f21dd82fcd179","6662095dd37f5e964b55de74","null","","null","","","","","","","","./tasks/HMM-beads/Images/WhiteBeadChoiceWrong.png","","","","","","","","","",""
"image-keyboard-response","158","274073","0.0-3.0-6.0-1.0-0.7","62d2aee15e1dc6709bdcace0","6662009ae78f21dd82fcd179","6662095dd37f5e964b55de74","252","","j","","","","","","","","./tasks/HMM-beads/Images/NewTrialBC.png","lowH","1","7","1","1","0","1","true","",""
"image-keyboard-response","159","274394","0.0-3.0-6.0-1.0-1.7","62d2aee15e1dc6709bdcace0","6662009ae78f21dd82fcd179","6662095dd37f5e964b55de74","null","","null","","","","","","","","./tasks/HMM-beads/Images/WhiteBeadChoice.png","","","","","","","","","",""
"image-keyboard-response","160","274904","0.0-3.0-6.0-1.0-2.7","62d2aee15e1dc6709bdcace0","6662009ae78f21dd82fcd179","6662095dd37f5e964b55de74","null","","null","","","","","","","","./tasks/HMM-beads/Images/WhiteBeadChoiceCorrect.png","","","","","","","","","",""
"image-keyboard-response","161","275313","0.0-3.0-6.0-1.0-0.8","62d2aee15e1dc6709bdcace0","6662009ae78f21dd82fcd179","6662095dd37f5e964b55de74","407","","j","","","","","","","","./tasks/HMM-beads/Images/NewTrialWC.png","lowH","1","8","1","1","1","1","true","",""
"image-keyboard-response","162","275629","0.0-3.0-6.0-1.0-1.8","62d2aee15e1dc6709bdcace0","6662009ae78f21dd82fcd179","6662095dd37f5e964b55de74","null","","null","","","","","","","","./tasks/HMM-beads/Images/WhiteBeadChoice.png","","","","","","","","","",""
"image-keyboard-response","163","276144","0.0-3.0-6.0-1.0-2.8","62d2aee15e1dc6709bdcace0","6662009ae78f21dd82fcd179","6662095dd37f5e964b55de74","null","","null","","","","","","","","./tasks/HMM-beads/Images/WhiteBeadChoiceCorrect.png","","","","","","","","","",""
"image-keyboard-response","164","276414","0.0-3.0-6.0-1.0-0.9","62d2aee15e1dc6709bdcace0","6662009ae78f21dd82fcd179","6662095dd37f5e964b55de74","268","","j","","","","","","","","./tasks/HMM-beads/Images/NewTrialWC.png","lowH","1","9","1","1","1","1","true","",""
"image-keyboard-response","165","276724","0.0-3.0-6.0-1.0-1.9","62d2aee15e1dc6709bdcace0","6662009ae78f21dd82fcd179","6662095dd37f5e964b55de74","null","","null","","","","","","","","./tasks/HMM-beads/Images/WhiteBeadChoice.png","","","","","","","","","",""
"image-keyboard-response","166","277229","0.0-3.0-6.0-1.0-2.9","62d2aee15e1dc6709bdcace0","6662009ae78f21dd82fcd179","6662095dd37f5e964b55de74","null","","null","","","","","","","","./tasks/HMM-beads/Images/WhiteBeadChoiceCorrect.png","","","","","","","","","",""
"image-keyboard-response","167","277396","0.0-3.0-6.0-1.0-0.10","62d2aee15e1dc6709bdcace0","6662009ae78f21dd82fcd179","6662095dd37f5e964b55de74","165","","f","","","","","","","","./tasks/HMM-beads/Images/NewTrialWC.png","lowH","1","10","1","1","1","0","false","",""
"image-keyboard-response","168","277710","0.0-3.0-6.0-1.0-1.10","62d2aee15e1dc6709bdcace0","6662009ae78f21dd82fcd179","6662095dd37f5e964b55de74","null","","null","","","","","","","","./tasks/HMM-beads/Images/BlackBeadChoice.png","","","","","","","","","",""
"image-keyboard-response","169","278225","0.0-3.0-6.0-1.0-2.10","62d2aee15e1dc6709bdcace0","6662009ae78f21dd82fcd179","6662095dd37f5e964b55de74","null","","null","","","","","","","","./tasks/HMM-beads/Images/BlackBeadChoiceWrong.png","","","","","","","","","",""
"image-keyboard-response","170","278812","0.0-3.0-6.0-1.0-0.11","62d2aee15e1dc6709bdcace0","6662009ae78f21dd82fcd179","6662095dd37f5e964b55de74","586","","f","","","","","","","","./tasks/HMM-beads/Images/NewTrialWC.png","lowH","1","11","1","1","1","0","false","",""
"image-keyboard-response","171","279125","0.0-3.0-6.0-1.0-1.11","62d2aee15e1dc6709bdcace0","6662009ae78f21dd82fcd179","6662095dd37f5e964b55de74","null","","null","","","","","","","","./tasks/HMM-beads/Images/BlackBeadChoice.png","","","","","","","","","",""
"image-keyboard-response","172","279645","0.0-3.0-6.0-1.0-2.11","62d2aee15e1dc6709bdcace0","6662009ae78f21dd82fcd179","6662095dd37f5e964b55de74","null","","null","","","","","","","","./tasks/HMM-beads/Images/BlackBeadChoiceWrong.png","","","","","","","","","",""
"image-keyboard-response","173","279663","0.0-3.0-6.0-1.0-0.12","62d2aee15e1dc6709bdcace0","6662009ae78f21dd82fcd179","6662095dd37f5e964b55de74","17","","j","","","","","","","","./tasks/HMM-beads/Images/NewTrialWC.png","lowH","1","12","1","1","1","1","true","",""
"image-keyboard-response","174","279965","0.0-3.0-6.0-1.0-1.12","62d2aee15e1dc6709bdcace0","6662009ae78f21dd82fcd179","6662095dd37f5e964b55de74","null","","null","","","","","","","","./tasks/HMM-beads/Images/WhiteBeadChoice.png","","","","","","","","","",""
"image-keyboard-response","175","280469","0.0-3.0-6.0-1.0-2.12","62d2aee15e1dc6709bdcace0","6662009ae78f21dd82fcd179","6662095dd37f5e964b55de74","null","","null","","","","","","","","./tasks/HMM-beads/Images/WhiteBeadChoiceCorrect.png","","","","","","","","","",""
"image-keyboard-response","176","280906","0.0-3.0-6.0-1.0-0.13","62d2aee15e1dc6709bdcace0","6662009ae78f21dd82fcd179","6662095dd37f5e964b55de74","436","","f","","","","","","","","./tasks/HMM-beads/Images/NewTrialWC.png","lowH","1","13","1","0","1","0","true","",""
"image-keyboard-response","177","281224","0.0-3.0-6.0-1.0-1.13","62d2aee15e1dc6709bdcace0","6662009ae78f21dd82fcd179","6662095dd37f5e964b55de74","null","","null","","","","","","","","./tasks/HMM-beads/Images/BlackBeadChoice.png","","","","","","","","","",""
"image-keyboard-response","178","281734","0.0-3.0-6.0-1.0-2.13","62d2aee15e1dc6709bdcace0","6662009ae78f21dd82fcd179","6662095dd37f5e964b55de74","null","","null","","","","","","","","./tasks/HMM-beads/Images/BlackBeadChoiceCorrect.png","","","","","","","","","",""
"image-keyboard-response","179","282041","0.0-3.0-6.0-1.0-0.14","62d2aee15e1dc6709bdcace0","6662009ae78f21dd82fcd179","6662095dd37f5e964b55de74","305","","f","","","","","","","","./tasks/HMM-beads/Images/NewTrialBC.png","lowH","1","14","1","0","0","0","true","",""
"image-keyboard-response","180","282349","0.0-3.0-6.0-1.0-1.14","62d2aee15e1dc6709bdcace0","6662009ae78f21dd82fcd179","6662095dd37f5e964b55de74","null","","null","","","","","","","","./tasks/HMM-beads/Images/BlackBeadChoice.png","","","","","","","","","",""
"image-keyboard-response","181","282864","0.0-3.0-6.0-1.0-2.14","62d2aee15e1dc6709bdcace0","6662009ae78f21dd82fcd179","6662095dd37f5e964b55de74","null","","null","","","","","","","","./tasks/HMM-beads/Images/BlackBeadChoiceCorrect.png","","","","","","","","","",""
"image-keyboard-response","182","283149","0.0-3.0-6.0-1.0-0.15","62d2aee15e1dc6709bdcace0","6662009ae78f21dd82fcd179","6662095dd37f5e964b55de74","283","","j","","","","","","","","./tasks/HMM-beads/Images/NewTrialBC.png","lowH","1","15","1","1","0","1","true","",""
"image-keyboard-response","183","283464","0.0-3.0-6.0-1.0-1.15","62d2aee15e1dc6709bdcace0","6662009ae78f21dd82fcd179","6662095dd37f5e964b55de74","null","","null","","","","","","","","./tasks/HMM-beads/Images/WhiteBeadChoice.png","","","","","","","","","",""
"image-keyboard-response","184","283985","0.0-3.0-6.0-1.0-2.15","62d2aee15e1dc6709bdcace0","6662009ae78f21dd82fcd179","6662095dd37f5e964b55de74","null","","null","","","","","","","","./tasks/HMM-beads/Images/WhiteBeadChoiceCorrect.png","","","","","","","","","",""
"image-keyboard-response","185","284126","0.0-3.0-6.0-1.0-0.16","62d2aee15e1dc6709bdcace0","6662009ae78f21dd82fcd179","6662095dd37f5e964b55de74","139","","j","","","","","","","","./tasks/HMM-beads/Images/NewTrialWC.png","lowH","1","16","1","1","1","1","true","",""
"image-keyboard-response","186","284445","0.0-3.0-6.0-1.0-1.16","62d2aee15e1dc6709bdcace0","6662009ae78f21dd82fcd179","6662095dd37f5e964b55de74","null","","null","","","","","","","","./tasks/HMM-beads/Images/WhiteBeadChoice.png","","","","","","","","","",""
"image-keyboard-response","187","284955","0.0-3.0-6.0-1.0-2.16","62d2aee15e1dc6709bdcace0","6662009ae78f21dd82fcd179","6662095dd37f5e964b55de74","null","","null","","","","","","","","./tasks/HMM-beads/Images/WhiteBeadChoiceCorrect.png","","","","","","","","","",""
"image-keyboard-response","188","285264","0.0-3.0-6.0-1.0-0.17","62d2aee15e1dc6709bdcace0","6662009ae78f21dd82fcd179","6662095dd37f5e964b55de74","307","","j","","","","","","","","./tasks/HMM-beads/Images/NewTrialWC.png","lowH","1","17","1","1","1","1","true","",""
"image-keyboard-response","189","285575","0.0-3.0-6.0-1.0-1.17","62d2aee15e1dc6709bdcace0","6662009ae78f21dd82fcd179","6662095dd37f5e964b55de74","null","","null","","","","","","","","./tasks/HMM-beads/Images/WhiteBeadChoice.png","","","","","","","","","",""
"image-keyboard-response","190","286095","0.0-3.0-6.0-1.0-2.17","62d2aee15e1dc6709bdcace0","6662009ae78f21dd82fcd179","6662095dd37f5e964b55de74","null","","null","","","","","","","","./tasks/HMM-beads/Images/WhiteBeadChoiceCorrect.png","","","","","","","","","",""
"image-keyboard-response","191","286357","0.0-3.0-6.0-1.0-0.18","62d2aee15e1dc6709bdcace0","6662009ae78f21dd82fcd179","6662095dd37f5e964b55de74","261","","j","","","","","","","","./tasks/HMM-beads/Images/NewTrialWC.png","lowH","1","18","1","1","1","1","true","",""
"image-keyboard-response","192","286660","0.0-3.0-6.0-1.0-1.18","62d2aee15e1dc6709bdcace0","6662009ae78f21dd82fcd179","6662095dd37f5e964b55de74","null","","null","","","","","","","","./tasks/HMM-beads/Images/WhiteBeadChoice.png","","","","","","","","","",""
"image-keyboard-response","193","287169","0.0-3.0-6.0-1.0-2.18","62d2aee15e1dc6709bdcace0","6662009ae78f21dd82fcd179","6662095dd37f5e964b55de74","null","","null","","","","","","","","./tasks/HMM-beads/Images/WhiteBeadChoiceCorrect.png","","","","","","","","","",""
"image-keyboard-response","194","287327","0.0-3.0-6.0-1.0-0.19","62d2aee15e1dc6709bdcace0","6662009ae78f21dd82fcd179","6662095dd37f5e964b55de74","157","","f","","","","","","","","./tasks/HMM-beads/Images/NewTrialWC.png","lowH","1","19","1","1","1","0","false","",""
"image-keyboard-response","195","287644","0.0-3.0-6.0-1.0-1.19","62d2aee15e1dc6709bdcace0","6662009ae78f21dd82fcd179","6662095dd37f5e964b55de74","null","","null","","","","","","","","./tasks/HMM-beads/Images/BlackBeadChoice.png","","","","","","","","","",""
"image-keyboard-response","196","288154","0.0-3.0-6.0-1.0-2.19","62d2aee15e1dc6709bdcace0","6662009ae78f21dd82fcd179","6662095dd37f5e964b55de74","null","","null","","","","","","","","./tasks/HMM-beads/Images/BlackBeadChoiceWrong.png","","","","","","","","","",""
"image-keyboard-response","197","288400","0.0-3.0-6.0-1.0-0.20","62d2aee15e1dc6709bdcace0","6662009ae78f21dd82fcd179","6662095dd37f5e964b55de74","245","","f","","","","","","","","./tasks/HMM-beads/Images/NewTrialWC.png","lowH","1","20","1","1","1","0","false","",""
"image-keyboard-response","198","288719","0.0-3.0-6.0-1.0-1.20","62d2aee15e1dc6709bdcace0","6662009ae78f21dd82fcd179","6662095dd37f5e964b55de74","null","","null","","","","","","","","./tasks/HMM-beads/Images/BlackBeadChoice.png","","","","","","","","","",""
"image-keyboard-response","199","289240","0.0-3.0-6.0-1.0-2.20","62d2aee15e1dc6709bdcace0","6662009ae78f21dd82fcd179","6662095dd37f5e964b55de74","null","","null","","","","","","","","./tasks/HMM-beads/Images/BlackBeadChoiceWrong.png","","","","","","","","","",""
"image-keyboard-response","200","290005","0.0-3.0-6.0-1.0-0.21","62d2aee15e1dc6709bdcace0","6662009ae78f21dd82fcd179","6662095dd37f5e964b55de74","764","","j","","","","","","","","./tasks/HMM-beads/Images/NewTrialWC.png","lowH","1","21","1","1","1","1","true","",""
"image-keyboard-response","201","290324","0.0-3.0-6.0-1.0-1.21","62d2aee15e1dc6709bdcace0","6662009ae78f21dd82fcd179","6662095dd37f5e964b55de74","null","","null","","","","","","","","./tasks/HMM-beads/Images/WhiteBeadChoice.png","","","","","","","","","",""
"image-keyboard-response","202","290844","0.0-3.0-6.0-1.0-2.21","62d2aee15e1dc6709bdcace0","6662009ae78f21dd82fcd179","6662095dd37f5e964b55de74","null","","null","","","","","","","","./tasks/HMM-beads/Images/WhiteBeadChoiceCorrect.png","","","","","","","","","",""
"image-keyboard-response","203","291002","0.0-3.0-6.0-1.0-0.22","62d2aee15e1dc6709bdcace0","6662009ae78f21dd82fcd179","6662095dd37f5e964b55de74","156","","j","","","","","","","","./tasks/HMM-beads/Images/NewTrialWC.png","lowH","1","22","1","1","1","1","true","",""
"image-keyboard-response","204","291325","0.0-3.0-6.0-1.0-1.22","62d2aee15e1dc6709bdcace0","6662009ae78f21dd82fcd179","6662095dd37f5e964b55de74","null","","null","","","","","","","","./tasks/HMM-beads/Images/WhiteBeadChoice.png","","","","","","","","","",""
"image-keyboard-response","205","291834","0.0-3.0-6.0-1.0-2.22","62d2aee15e1dc6709bdcace0","6662009ae78f21dd82fcd179","6662095dd37f5e964b55de74","null","","null","","","","","","","","./tasks/HMM-beads/Images/WhiteBeadChoiceCorrect.png","","","","","","","","","",""
"image-keyboard-response","206","292147","0.0-3.0-6.0-1.0-0.23","62d2aee15e1dc6709bdcace0","6662009ae78f21dd82fcd179","6662095dd37f5e964b55de74","311","","j","","","","","","","","./tasks/HMM-beads/Images/NewTrialWC.png","lowH","1","23","1","1","1","1","true","",""
"image-keyboard-response","207","292450","0.0-3.0-6.0-1.0-1.23","62d2aee15e1dc6709bdcace0","6662009ae78f21dd82fcd179","6662095dd37f5e964b55de74","null","","null","","","","","","","","./tasks/HMM-beads/Images/WhiteBeadChoice.png","","","","","","","","","",""
"image-keyboard-response","208","292955","0.0-3.0-6.0-1.0-2.23","62d2aee15e1dc6709bdcace0","6662009ae78f21dd82fcd179","6662095dd37f5e964b55de74","null","","null","","","","","","","","./tasks/HMM-beads/Images/WhiteBeadChoiceCorrect.png","","","","","","","","","",""
"image-keyboard-response","209","293160","0.0-3.0-6.0-1.0-0.24","62d2aee15e1dc6709bdcace0","6662009ae78f21dd82fcd179","6662095dd37f5e964b55de74","204","","j","","","","","","","","./tasks/HMM-beads/Images/NewTrialWC.png","lowH","1","24","1","0","1","1","false","",""
"image-keyboard-response","210","293474","0.0-3.0-6.0-1.0-1.24","62d2aee15e1dc6709bdcace0","6662009ae78f21dd82fcd179","6662095dd37f5e964b55de74","null","","null","","","","","","","","./tasks/HMM-beads/Images/WhiteBeadChoice.png","","","","","","","","","",""
"image-keyboard-response","211","293995","0.0-3.0-6.0-1.0-2.24","62d2aee15e1dc6709bdcace0","6662009ae78f21dd82fcd179","6662095dd37f5e964b55de74","null","","null","","","","","","","","./tasks/HMM-beads/Images/WhiteBeadChoiceWrong.png","","","","","","","","","",""
"image-keyboard-response","212","295715","0.0-3.0-6.0-1.0-0.25","62d2aee15e1dc6709bdcace0","6662009ae78f21dd82fcd179","6662095dd37f5e964b55de74","1719","","f","","","","","","","","./tasks/HMM-beads/Images/NewTrialBC.png","lowH","1","25","1","1","0","0","false","",""
"image-keyboard-response","213","296025","0.0-3.0-6.0-1.0-1.25","62d2aee15e1dc6709bdcace0","6662009ae78f21dd82fcd179","6662095dd37f5e964b55de74","null","","null","","","","","","","","./tasks/HMM-beads/Images/BlackBeadChoice.png","","","","","","","","","",""
"image-keyboard-response","214","296531","0.0-3.0-6.0-1.0-2.25","62d2aee15e1dc6709bdcace0","6662009ae78f21dd82fcd179","6662095dd37f5e964b55de74","null","","null","","","","","","","","./tasks/HMM-beads/Images/BlackBeadChoiceWrong.png","","","","","","","","","",""
"image-keyboard-response","215","297192","0.0-3.0-6.0-1.0-0.26","62d2aee15e1dc6709bdcace0","6662009ae78f21dd82fcd179","6662095dd37f5e964b55de74","660","","j","","","","","","","","./tasks/HMM-beads/Images/NewTrialWC.png","lowH","1","26","1","0","1","1","false","",""
"image-keyboard-response","216","297509","0.0-3.0-6.0-1.0-1.26","62d2aee15e1dc6709bdcace0","6662009ae78f21dd82fcd179","6662095dd37f5e964b55de74","null","","null","","","","","","","","./tasks/HMM-beads/Images/WhiteBeadChoice.png","","","","","","","","","",""
"image-keyboard-response","217","298025","0.0-3.0-6.0-1.0-2.26","62d2aee15e1dc6709bdcace0","6662009ae78f21dd82fcd179","6662095dd37f5e964b55de74","null","","null","","","","","","","","./tasks/HMM-beads/Images/WhiteBeadChoiceWrong.png","","","","","","","","","",""
"image-keyboard-response","218","298217","0.0-3.0-6.0-1.0-0.27","62d2aee15e1dc6709bdcace0","6662009ae78f21dd82fcd179","6662095dd37f5e964b55de74","190","","j","","","","","","","","./tasks/HMM-beads/Images/NewTrialBC.png","lowH","1","27","1","1","0","1","true","",""
"image-keyboard-response","219","298534","0.0-3.0-6.0-1.0-1.27","62d2aee15e1dc6709bdcace0","6662009ae78f21dd82fcd179","6662095dd37f5e964b55de74","null","","null","","","","","","","","./tasks/HMM-beads/Images/WhiteBeadChoice.png","","","","","","","","","",""
"image-keyboard-response","220","299054","0.0-3.0-6.0-1.0-2.27","62d2aee15e1dc6709bdcace0","6662009ae78f21dd82fcd179","6662095dd37f5e964b55de74","null","","null","","","","","","","","./tasks/HMM-beads/Images/WhiteBeadChoiceCorrect.png","","","","","","","","","",""
"image-keyboard-response","221","299279","0.0-3.0-6.0-1.0-0.28","62d2aee15e1dc6709bdcace0","6662009ae78f21dd82fcd179","6662095dd37f5e964b55de74","223","","j","","","","","","","","./tasks/HMM-beads/Images/NewTrialWC.png","lowH","1","28","1","1","1","1","true","",""
"image-keyboard-response","222","299594","0.0-3.0-6.0-1.0-1.28","62d2aee15e1dc6709bdcace0","6662009ae78f21dd82fcd179","6662095dd37f5e964b55de74","null","","null","","","","","","","","./tasks/HMM-beads/Images/WhiteBeadChoice.png","","","","","","","","","",""
"image-keyboard-response","223","300109","0.0-3.0-6.0-1.0-2.28","62d2aee15e1dc6709bdcace0","6662009ae78f21dd82fcd179","6662095dd37f5e964b55de74","null","","null","","","","","","","","./tasks/HMM-beads/Images/WhiteBeadChoiceCorrect.png","","","","","","","","","",""
"image-keyboard-response","224","300865","0.0-3.0-6.0-1.0-0.29","62d2aee15e1dc6709bdcace0","6662009ae78f21dd82fcd179","6662095dd37f5e964b55de74","754","","j","","","","","","","","./tasks/HMM-beads/Images/NewTrialWC.png","lowH","1","29","1","1","1","1","true","",""
"image-keyboard-response","225","301179","0.0-3.0-6.0-1.0-1.29","62d2aee15e1dc6709bdcace0","6662009ae78f21dd82fcd179","6662095dd37f5e964b55de74","null","","null","","","","","","","","./tasks/HMM-beads/Images/WhiteBeadChoice.png","","","","","","","","","",""
"image-keyboard-response","226","301689","0.0-3.0-6.0-1.0-2.29","62d2aee15e1dc6709bdcace0","6662009ae78f21dd82fcd179","6662095dd37f5e964b55de74","null","","null","","","","","","","","./tasks/HMM-beads/Images/WhiteBeadChoiceCorrect.png","","","","","","","","","",""
"image-keyboard-response","227","301983","0.0-3.0-6.0-1.0-0.30","62d2aee15e1dc6709bdcace0","6662009ae78f21dd82fcd179","6662095dd37f5e964b55de74","292","","f","","","","","","","","./tasks/HMM-beads/Images/NewTrialWC.png","lowH","1","30","1","1","1","0","false","",""
"image-keyboard-response","228","302304","0.0-3.0-6.0-1.0-1.30","62d2aee15e1dc6709bdcace0","6662009ae78f21dd82fcd179","6662095dd37f5e964b55de74","null","","null","","","","","","","","./tasks/HMM-beads/Images/BlackBeadChoice.png","","","","","","","","","",""
"image-keyboard-response","229","302824","0.0-3.0-6.0-1.0-2.30","62d2aee15e1dc6709bdcace0","6662009ae78f21dd82fcd179","6662095dd37f5e964b55de74","null","","null","","","","","","","","./tasks/HMM-beads/Images/BlackBeadChoiceWrong.png","","","","","","","","","",""
"image-keyboard-response","230","302913","0.0-3.0-6.0-1.0-0.31","62d2aee15e1dc6709bdcace0","6662009ae78f21dd82fcd179","6662095dd37f5e964b55de74","87","","f","","","","","","","","./tasks/HMM-beads/Images/NewTrialWC.png","lowH","1","31","1","1","1","0","false","",""
"image-keyboard-response","231","303225","0.0-3.0-6.0-1.0-1.31","62d2aee15e1dc6709bdcace0","6662009ae78f21dd82fcd179","6662095dd37f5e964b55de74","null","","null","","","","","","","","./tasks/HMM-beads/Images/BlackBeadChoice.png","","","","","","","","","",""
"image-keyboard-response","232","303729","0.0-3.0-6.0-1.0-2.31","62d2aee15e1dc6709bdcace0","6662009ae78f21dd82fcd179","6662095dd37f5e964b55de74","null","","null","","","","","","","","./tasks/HMM-beads/Images/BlackBeadChoiceWrong.png","","","","","","","","","",""
"image-keyboard-response","233","303887","0.0-3.0-6.0-1.0-0.32","62d2aee15e1dc6709bdcace0","6662009ae78f21dd82fcd179","6662095dd37f5e964b55de74","156","","f","","","","","","","","./tasks/HMM-beads/Images/NewTrialWC.png","lowH","1","32","1","1","1","0","false","",""
"image-keyboard-response","234","304190","0.0-3.0-6.0-1.0-1.32","62d2aee15e1dc6709bdcace0","6662009ae78f21dd82fcd179","6662095dd37f5e964b55de74","null","","null","","","","","","","","./tasks/HMM-beads/Images/BlackBeadChoice.png","","","","","","","","","",""
"image-keyboard-response","235","304694","0.0-3.0-6.0-1.0-2.32","62d2aee15e1dc6709bdcace0","6662009ae78f21dd82fcd179","6662095dd37f5e964b55de74","null","","null","","","","","","","","./tasks/HMM-beads/Images/BlackBeadChoiceWrong.png","","","","","","","","","",""
"image-keyboard-response","236","305422","0.0-3.0-6.0-1.0-0.33","62d2aee15e1dc6709bdcace0","6662009ae78f21dd82fcd179","6662095dd37f5e964b55de74","726","","j","","","","","","","","./tasks/HMM-beads/Images/NewTrialWC.png","lowH","1","33","1","1","1","1","true","",""
"image-keyboard-response","237","305739","0.0-3.0-6.0-1.0-1.33","62d2aee15e1dc6709bdcace0","6662009ae78f21dd82fcd179","6662095dd37f5e964b55de74","null","","null","","","","","","","","./tasks/HMM-beads/Images/WhiteBeadChoice.png","","","","","","","","","",""
"image-keyboard-response","238","306254","0.0-3.0-6.0-1.0-2.33","62d2aee15e1dc6709bdcace0","6662009ae78f21dd82fcd179","6662095dd37f5e964b55de74","null","","null","","","","","","","","./tasks/HMM-beads/Images/WhiteBeadChoiceCorrect.png","","","","","","","","","",""
"image-keyboard-response","239","306549","0.0-3.0-6.0-1.0-0.34","62d2aee15e1dc6709bdcace0","6662009ae78f21dd82fcd179","6662095dd37f5e964b55de74","293","","j","","","","","","","","./tasks/HMM-beads/Images/NewTrialWC.png","lowH","1","34","1","1","1","1","true","",""
"image-keyboard-response","240","306854","0.0-3.0-6.0-1.0-1.34","62d2aee15e1dc6709bdcace0","6662009ae78f21dd82fcd179","6662095dd37f5e964b55de74","null","","null","","","","","","","","./tasks/HMM-beads/Images/WhiteBeadChoice.png","","","","","","","","","",""
"image-keyboard-response","241","307364","0.0-3.0-6.0-1.0-2.34","62d2aee15e1dc6709bdcace0","6662009ae78f21dd82fcd179","6662095dd37f5e964b55de74","null","","null","","","","","","","","./tasks/HMM-beads/Images/WhiteBeadChoiceCorrect.png","","","","","","","","","",""
"image-keyboard-response","242","307973","0.0-3.0-6.0-1.0-0.35","62d2aee15e1dc6709bdcace0","6662009ae78f21dd82fcd179","6662095dd37f5e964b55de74","607","","f","","","","","","","","./tasks/HMM-beads/Images/NewTrialWC.png","lowH","1","35","1","1","1","0","false","",""
"image-keyboard-response","243","308285","0.0-3.0-6.0-1.0-1.35","62d2aee15e1dc6709bdcace0","6662009ae78f21dd82fcd179","6662095dd37f5e964b55de74","null","","null","","","","","","","","./tasks/HMM-beads/Images/BlackBeadChoice.png","","","","","","","","","",""
"image-keyboard-response","244","308800","0.0-3.0-6.0-1.0-2.35","62d2aee15e1dc6709bdcace0","6662009ae78f21dd82fcd179","6662095dd37f5e964b55de74","null","","null","","","","","","","","./tasks/HMM-beads/Images/BlackBeadChoiceWrong.png","","","","","","","","","",""
"image-keyboard-response","245","309303","0.0-3.0-6.0-1.0-0.36","62d2aee15e1dc6709bdcace0","6662009ae78f21dd82fcd179","6662095dd37f5e964b55de74","502","","j","","","","","","","","./tasks/HMM-beads/Images/NewTrialWC.png","lowH","1","36","1","1","1","1","true","",""
"image-keyboard-response","246","309605","0.0-3.0-6.0-1.0-1.36","62d2aee15e1dc6709bdcace0","6662009ae78f21dd82fcd179","6662095dd37f5e964b55de74","null","","null","","","","","","","","./tasks/HMM-beads/Images/WhiteBeadChoice.png","","","","","","","","","",""
"image-keyboard-response","247","310110","0.0-3.0-6.0-1.0-2.36","62d2aee15e1dc6709bdcace0","6662009ae78f21dd82fcd179","6662095dd37f5e964b55de74","null","","null","","","","","","","","./tasks/HMM-beads/Images/WhiteBeadChoiceCorrect.png","","","","","","","","","",""
"image-keyboard-response","248","310699","0.0-3.0-6.0-1.0-0.37","62d2aee15e1dc6709bdcace0","6662009ae78f21dd82fcd179","6662095dd37f5e964b55de74","588","","j","","","","","","","","./tasks/HMM-beads/Images/NewTrialWC.png","lowH","1","37","1","1","1","1","true","",""
"image-keyboard-response","249","311005","0.0-3.0-6.0-1.0-1.37","62d2aee15e1dc6709bdcace0","6662009ae78f21dd82fcd179","6662095dd37f5e964b55de74","null","","null","","","","","","","","./tasks/HMM-beads/Images/WhiteBeadChoice.png","","","","","","","","","",""
"image-keyboard-response","250","311525","0.0-3.0-6.0-1.0-2.37","62d2aee15e1dc6709bdcace0","6662009ae78f21dd82fcd179","6662095dd37f5e964b55de74","null","","null","","","","","","","","./tasks/HMM-beads/Images/WhiteBeadChoiceCorrect.png","","","","","","","","","",""
"image-keyboard-response","251","311693","0.0-3.0-6.0-1.0-0.38","62d2aee15e1dc6709bdcace0","6662009ae78f21dd82fcd179","6662095dd37f5e964b55de74","166","","j","","","","","","","","./tasks/HMM-beads/Images/NewTrialWC.png","lowH","1","38","1","1","1","1","true","",""
"image-keyboard-response","252","312005","0.0-3.0-6.0-1.0-1.38","62d2aee15e1dc6709bdcace0","6662009ae78f21dd82fcd179","6662095dd37f5e964b55de74","null","","null","","","","","","","","./tasks/HMM-beads/Images/WhiteBeadChoice.png","","","","","","","","","",""
"image-keyboard-response","253","312520","0.0-3.0-6.0-1.0-2.38","62d2aee15e1dc6709bdcace0","6662009ae78f21dd82fcd179","6662095dd37f5e964b55de74","null","","null","","","","","","","","./tasks/HMM-beads/Images/WhiteBeadChoiceCorrect.png","","","","","","","","","",""
"image-keyboard-response","254","312689","0.0-3.0-6.0-1.0-0.39","62d2aee15e1dc6709bdcace0","6662009ae78f21dd82fcd179","6662095dd37f5e964b55de74","167","","j","","","","","","","","./tasks/HMM-beads/Images/NewTrialWC.png","lowH","1","39","1","1","1","1","true","",""
"image-keyboard-response","255","313001","0.0-3.0-6.0-1.0-1.39","62d2aee15e1dc6709bdcace0","6662009ae78f21dd82fcd179","6662095dd37f5e964b55de74","null","","null","","","","","","","","./tasks/HMM-beads/Images/WhiteBeadChoice.png","","","","","","","","","",""
"image-keyboard-response","256","313505","0.0-3.0-6.0-1.0-2.39","62d2aee15e1dc6709bdcace0","6662009ae78f21dd82fcd179","6662095dd37f5e964b55de74","null","","null","","","","","","","","./tasks/HMM-beads/Images/WhiteBeadChoiceCorrect.png","","","","","","","","","",""
"image-keyboard-response","257","313658","0.0-3.0-6.0-1.0-0.40","62d2aee15e1dc6709bdcace0","6662009ae78f21dd82fcd179","6662095dd37f5e964b55de74","151","","j","","","","","","","","./tasks/HMM-beads/Images/NewTrialWC.png","lowH","1","40","1","1","1","1","true","",""
"image-keyboard-response","258","313975","0.0-3.0-6.0-1.0-1.40","62d2aee15e1dc6709bdcace0","6662009ae78f21dd82fcd179","6662095dd37f5e964b55de74","null","","null","","","","","","","","./tasks/HMM-beads/Images/WhiteBeadChoice.png","","","","","","","","","",""
"image-keyboard-response","259","314495","0.0-3.0-6.0-1.0-2.40","62d2aee15e1dc6709bdcace0","6662009ae78f21dd82fcd179","6662095dd37f5e964b55de74","null","","null","","","","","","","","./tasks/HMM-beads/Images/WhiteBeadChoiceCorrect.png","","","","","","","","","",""
"image-keyboard-response","260","314780","0.0-3.0-6.0-1.0-0.41","62d2aee15e1dc6709bdcace0","6662009ae78f21dd82fcd179","6662095dd37f5e964b55de74","283","","j","","","","","","","","./tasks/HMM-beads/Images/NewTrialWC.png","lowH","1","41","1","1","1","1","true","",""
"image-keyboard-response","261","315085","0.0-3.0-6.0-1.0-1.41","62d2aee15e1dc6709bdcace0","6662009ae78f21dd82fcd179","6662095dd37f5e964b55de74","null","","null","","","","","","","","./tasks/HMM-beads/Images/WhiteBeadChoice.png","","","","","","","","","",""
"image-keyboard-response","262","315595","0.0-3.0-6.0-1.0-2.41","62d2aee15e1dc6709bdcace0","6662009ae78f21dd82fcd179","6662095dd37f5e964b55de74","null","","null","","","","","","","","./tasks/HMM-beads/Images/WhiteBeadChoiceCorrect.png","","","","","","","","","",""
"image-keyboard-response","263","316044","0.0-3.0-6.0-1.0-0.42","62d2aee15e1dc6709bdcace0","6662009ae78f21dd82fcd179","6662095dd37f5e964b55de74","447","","j","","","","","","","","./tasks/HMM-beads/Images/NewTrialWC.png","lowH","1","42","1","1","1","1","true","",""
"image-keyboard-response","264","316350","0.0-3.0-6.0-1.0-1.42","62d2aee15e1dc6709bdcace0","6662009ae78f21dd82fcd179","6662095dd37f5e964b55de74","null","","null","","","","","","","","./tasks/HMM-beads/Images/WhiteBeadChoice.png","","","","","","","","","",""
"image-keyboard-response","265","316855","0.0-3.0-6.0-1.0-2.42","62d2aee15e1dc6709bdcace0","6662009ae78f21dd82fcd179","6662095dd37f5e964b55de74","null","","null","","","","","","","","./tasks/HMM-beads/Images/WhiteBeadChoiceCorrect.png","","","","","","","","","",""
"image-keyboard-response","266","317297","0.0-3.0-6.0-1.0-0.43","62d2aee15e1dc6709bdcace0","6662009ae78f21dd82fcd179","6662095dd37f5e964b55de74","441","","j","","","","","","","","./tasks/HMM-beads/Images/NewTrialWC.png","lowH","1","43","1","1","1","1","true","",""
"image-keyboard-response","267","317605","0.0-3.0-6.0-1.0-1.43","62d2aee15e1dc6709bdcace0","6662009ae78f21dd82fcd179","6662095dd37f5e964b55de74","null","","null","","","","","","","","./tasks/HMM-beads/Images/WhiteBeadChoice.png","","","","","","","","","",""
"image-keyboard-response","268","318110","0.0-3.0-6.0-1.0-2.43","62d2aee15e1dc6709bdcace0","6662009ae78f21dd82fcd179","6662095dd37f5e964b55de74","null","","null","","","","","","","","./tasks/HMM-beads/Images/WhiteBeadChoiceCorrect.png","","","","","","","","","",""
"image-keyboard-response","269","318615","0.0-3.0-6.0-1.0-0.44","62d2aee15e1dc6709bdcace0","6662009ae78f21dd82fcd179","6662095dd37f5e964b55de74","504","","j","","","","","","","","./tasks/HMM-beads/Images/NewTrialWC.png","lowH","1","44","1","1","1","1","true","",""
"image-keyboard-response","270","318925","0.0-3.0-6.0-1.0-1.44","62d2aee15e1dc6709bdcace0","6662009ae78f21dd82fcd179","6662095dd37f5e964b55de74","null","","null","","","","","","","","./tasks/HMM-beads/Images/WhiteBeadChoice.png","","","","","","","","","",""
"image-keyboard-response","271","319440","0.0-3.0-6.0-1.0-2.44","62d2aee15e1dc6709bdcace0","6662009ae78f21dd82fcd179","6662095dd37f5e964b55de74","null","","null","","","","","","","","./tasks/HMM-beads/Images/WhiteBeadChoiceCorrect.png","","","","","","","","","",""
"image-keyboard-response","272","319730","0.0-3.0-6.0-1.0-0.45","62d2aee15e1dc6709bdcace0","6662009ae78f21dd82fcd179","6662095dd37f5e964b55de74","288","","f","","","","","","","","./tasks/HMM-beads/Images/NewTrialWC.png","lowH","1","45","1","1","1","0","false","",""
"image-keyboard-response","273","320040","0.0-3.0-6.0-1.0-1.45","62d2aee15e1dc6709bdcace0","6662009ae78f21dd82fcd179","6662095dd37f5e964b55de74","null","","null","","","","","","","","./tasks/HMM-beads/Images/BlackBeadChoice.png","","","","","","","","","",""
"image-keyboard-response","274","320556","0.0-3.0-6.0-1.0-2.45","62d2aee15e1dc6709bdcace0","6662009ae78f21dd82fcd179","6662095dd37f5e964b55de74","null","","null","","","","","","","","./tasks/HMM-beads/Images/BlackBeadChoiceWrong.png","","","","","","","","","",""
"image-keyboard-response","275","320651","0.0-3.0-6.0-1.0-0.46","62d2aee15e1dc6709bdcace0","6662009ae78f21dd82fcd179","6662095dd37f5e964b55de74","93","","j","","","","","","","","./tasks/HMM-beads/Images/NewTrialWC.png","lowH","1","46","1","1","1","1","true","",""
"image-keyboard-response","276","320960","0.0-3.0-6.0-1.0-1.46","62d2aee15e1dc6709bdcace0","6662009ae78f21dd82fcd179","6662095dd37f5e964b55de74","null","","null","","","","","","","","./tasks/HMM-beads/Images/WhiteBeadChoice.png","","","","","","","","","",""
"image-keyboard-response","277","321471","0.0-3.0-6.0-1.0-2.46","62d2aee15e1dc6709bdcace0","6662009ae78f21dd82fcd179","6662095dd37f5e964b55de74","null","","null","","","","","","","","./tasks/HMM-beads/Images/WhiteBeadChoiceCorrect.png","","","","","","","","","",""
"image-keyboard-response","278","321746","0.0-3.0-6.0-1.0-0.47","62d2aee15e1dc6709bdcace0","6662009ae78f21dd82fcd179","6662095dd37f5e964b55de74","274","","j","","","","","","","","./tasks/HMM-beads/Images/NewTrialWC.png","lowH","1","47","1","0","1","1","false","",""
"image-keyboard-response","279","322051","0.0-3.0-6.0-1.0-1.47","62d2aee15e1dc6709bdcace0","6662009ae78f21dd82fcd179","6662095dd37f5e964b55de74","null","","null","","","","","","","","./tasks/HMM-beads/Images/WhiteBeadChoice.png","","","","","","","","","",""
"image-keyboard-response","280","322570","0.0-3.0-6.0-1.0-2.47","62d2aee15e1dc6709bdcace0","6662009ae78f21dd82fcd179","6662095dd37f5e964b55de74","null","","null","","","","","","","","./tasks/HMM-beads/Images/WhiteBeadChoiceWrong.png","","","","","","","","","",""
"image-keyboard-response","281","322876","0.0-3.0-6.0-1.0-0.48","62d2aee15e1dc6709bdcace0","6662009ae78f21dd82fcd179","6662095dd37f5e964b55de74","305","","j","","","","","","","","./tasks/HMM-beads/Images/NewTrialBC.png","lowH","1","48","1","0","0","1","false","",""
"image-keyboard-response","282","323195","0.0-3.0-6.0-1.0-1.48","62d2aee15e1dc6709bdcace0","6662009ae78f21dd82fcd179","6662095dd37f5e964b55de74","null","","null","","","","","","","","./tasks/HMM-beads/Images/WhiteBeadChoice.png","","","","","","","","","",""
"image-keyboard-response","283","323705","0.0-3.0-6.0-1.0-2.48","62d2aee15e1dc6709bdcace0","6662009ae78f21dd82fcd179","6662095dd37f5e964b55de74","null","","null","","","","","","","","./tasks/HMM-beads/Images/WhiteBeadChoiceWrong.png","","","","","","","","","",""
"image-keyboard-response","284","323933","0.0-3.0-6.0-1.0-0.49","62d2aee15e1dc6709bdcace0","6662009ae78f21dd82fcd179","6662095dd37f5e964b55de74","227","","j","","","","","","","","./tasks/HMM-beads/Images/NewTrialBC.png","lowH","1","49","1","0","0","1","false","",""
"image-keyboard-response","285","324240","0.0-3.0-6.0-1.0-1.49","62d2aee15e1dc6709bdcace0","6662009ae78f21dd82fcd179","6662095dd37f5e964b55de74","null","","null","","","","","","","","./tasks/HMM-beads/Images/WhiteBeadChoice.png","","","","","","","","","",""
"image-keyboard-response","286","324755","0.0-3.0-6.0-1.0-2.49","62d2aee15e1dc6709bdcace0","6662009ae78f21dd82fcd179","6662095dd37f5e964b55de74","null","","null","","","","","","","","./tasks/HMM-beads/Images/WhiteBeadChoiceWrong.png","","","","","","","","","",""
"image-keyboard-response","287","325058","0.0-3.0-6.0-1.0-0.50","62d2aee15e1dc6709bdcace0","6662009ae78f21dd82fcd179","6662095dd37f5e964b55de74","301","","f","","","","","","","","./tasks/HMM-beads/Images/NewTrialBC.png","lowH","1","50","1","1","0","0","false","",""
"image-keyboard-response","288","325360","0.0-3.0-6.0-1.0-1.50","62d2aee15e1dc6709bdcace0","6662009ae78f21dd82fcd179","6662095dd37f5e964b55de74","null","","null","","","","","","","","./tasks/HMM-beads/Images/BlackBeadChoice.png","","","","","","","","","",""
"image-keyboard-response","289","325886","0.0-3.0-6.0-1.0-2.50","62d2aee15e1dc6709bdcace0","6662009ae78f21dd82fcd179","6662095dd37f5e964b55de74","null","","null","","","","","","","","./tasks/HMM-beads/Images/BlackBeadChoiceWrong.png","","","","","","","","","",""
"image-keyboard-response","290","325999","0.0-3.0-6.0-1.0-0.51","62d2aee15e1dc6709bdcace0","6662009ae78f21dd82fcd179","6662095dd37f5e964b55de74","111","","j","","","","","","","","./tasks/HMM-beads/Images/NewTrialWC.png","lowH","1","51","1","1","1","1","true","",""
"image-keyboard-response","291","326315","0.0-3.0-6.0-1.0-1.51","62d2aee15e1dc6709bdcace0","6662009ae78f21dd82fcd179","6662095dd37f5e964b55de74","null","","null","","","","","","","","./tasks/HMM-beads/Images/WhiteBeadChoice.png","","","","","","","","","",""
"image-keyboard-response","292","326821","0.0-3.0-6.0-1.0-2.51","62d2aee15e1dc6709bdcace0","6662009ae78f21dd82fcd179","6662095dd37f5e964b55de74","null","","null","","","","","","","","./tasks/HMM-beads/Images/WhiteBeadChoiceCorrect.png","","","","","","","","","",""
"image-keyboard-response","293","327147","0.0-3.0-6.0-1.0-0.52","62d2aee15e1dc6709bdcace0","6662009ae78f21dd82fcd179","6662095dd37f5e964b55de74","325","","j","","","","","","","","./tasks/HMM-beads/Images/NewTrialWC.png","lowH","1","52","1","1","1","1","true","",""
"image-keyboard-response","294","327450","0.0-3.0-6.0-1.0-1.52","62d2aee15e1dc6709bdcace0","6662009ae78f21dd82fcd179","6662095dd37f5e964b55de74","null","","null","","","","","","","","./tasks/HMM-beads/Images/WhiteBeadChoice.png","","","","","","","","","",""
"image-keyboard-response","295","327960","0.0-3.0-6.0-1.0-2.52","62d2aee15e1dc6709bdcace0","6662009ae78f21dd82fcd179","6662095dd37f5e964b55de74","null","","null","","","","","","","","./tasks/HMM-beads/Images/WhiteBeadChoiceCorrect.png","","","","","","","","","",""
"image-keyboard-response","296","328197","0.0-3.0-6.0-1.0-0.53","62d2aee15e1dc6709bdcace0","6662009ae78f21dd82fcd179","6662095dd37f5e964b55de74","235","","j","","","","","","","","./tasks/HMM-beads/Images/NewTrialWC.png","lowH","1","53","1","1","1","1","true","",""
"image-keyboard-response","297","328505","0.0-3.0-6.0-1.0-1.53","62d2aee15e1dc6709bdcace0","6662009ae78f21dd82fcd179","6662095dd37f5e964b55de74","null","","null","","","","","","","","./tasks/HMM-beads/Images/WhiteBeadChoice.png","","","","","","","","","",""
"image-keyboard-response","298","329010","0.0-3.0-6.0-1.0-2.53","62d2aee15e1dc6709bdcace0","6662009ae78f21dd82fcd179","6662095dd37f5e964b55de74","null","","null","","","","","","","","./tasks/HMM-beads/Images/WhiteBeadChoiceCorrect.png","","","","","","","","","",""
"image-keyboard-response","299","329203","0.0-3.0-6.0-1.0-0.54","62d2aee15e1dc6709bdcace0","6662009ae78f21dd82fcd179","6662095dd37f5e964b55de74","192","","j","","","","","","","","./tasks/HMM-beads/Images/NewTrialWC.png","lowH","1","54","1","1","1","1","true","",""
"image-keyboard-response","300","329519","0.0-3.0-6.0-1.0-1.54","62d2aee15e1dc6709bdcace0","6662009ae78f21dd82fcd179","6662095dd37f5e964b55de74","null","","null","","","","","","","","./tasks/HMM-beads/Images/WhiteBeadChoice.png","","","","","","","","","",""
"image-keyboard-response","301","330030","0.0-3.0-6.0-1.0-2.54","62d2aee15e1dc6709bdcace0","6662009ae78f21dd82fcd179","6662095dd37f5e964b55de74","null","","null","","","","","","","","./tasks/HMM-beads/Images/WhiteBeadChoiceCorrect.png","","","","","","","","","",""
"image-keyboard-response","302","330222","0.0-3.0-6.0-1.0-0.55","62d2aee15e1dc6709bdcace0","6662009ae78f21dd82fcd179","6662095dd37f5e964b55de74","184","","j","","","","","","","","./tasks/HMM-beads/Images/NewTrialWC.png","lowH","1","55","1","1","1","1","true","",""
"image-keyboard-response","303","330534","0.0-3.0-6.0-1.0-1.55","62d2aee15e1dc6709bdcace0","6662009ae78f21dd82fcd179","6662095dd37f5e964b55de74","null","","null","","","","","","","","./tasks/HMM-beads/Images/WhiteBeadChoice.png","","","","","","","","","",""
"image-keyboard-response","304","331040","0.0-3.0-6.0-1.0-2.55","62d2aee15e1dc6709bdcace0","6662009ae78f21dd82fcd179","6662095dd37f5e964b55de74","null","","null","","","","","","","","./tasks/HMM-beads/Images/WhiteBeadChoiceCorrect.png","","","","","","","","","",""
"image-keyboard-response","305","331152","0.0-3.0-6.0-1.0-0.56","62d2aee15e1dc6709bdcace0","6662009ae78f21dd82fcd179","6662095dd37f5e964b55de74","111","","j","","","","","","","","./tasks/HMM-beads/Images/NewTrialWC.png","lowH","1","56","1","1","1","1","true","",""
"image-keyboard-response","306","331470","0.0-3.0-6.0-1.0-1.56","62d2aee15e1dc6709bdcace0","6662009ae78f21dd82fcd179","6662095dd37f5e964b55de74","null","","null","","","","","","","","./tasks/HMM-beads/Images/WhiteBeadChoice.png","","","","","","","","","",""
"image-keyboard-response","307","331985","0.0-3.0-6.0-1.0-2.56","62d2aee15e1dc6709bdcace0","6662009ae78f21dd82fcd179","6662095dd37f5e964b55de74","null","","null","","","","","","","","./tasks/HMM-beads/Images/WhiteBeadChoiceCorrect.png","","","","","","","","","",""
"image-keyboard-response","308","332122","0.0-3.0-6.0-1.0-0.57","62d2aee15e1dc6709bdcace0","6662009ae78f21dd82fcd179","6662095dd37f5e964b55de74","135","","j","","","","","","","","./tasks/HMM-beads/Images/NewTrialWC.png","lowH","1","57","1","1","1","1","true","",""
"image-keyboard-response","309","332440","0.0-3.0-6.0-1.0-1.57","62d2aee15e1dc6709bdcace0","6662009ae78f21dd82fcd179","6662095dd37f5e964b55de74","null","","null","","","","","","","","./tasks/HMM-beads/Images/WhiteBeadChoice.png","","","","","","","","","",""
"image-keyboard-response","310","332950","0.0-3.0-6.0-1.0-2.57","62d2aee15e1dc6709bdcace0","6662009ae78f21dd82fcd179","6662095dd37f5e964b55de74","null","","null","","","","","","","","./tasks/HMM-beads/Images/WhiteBeadChoiceCorrect.png","","","","","","","","","",""
"image-keyboard-response","311","333168","0.0-3.0-6.0-1.0-0.58","62d2aee15e1dc6709bdcace0","6662009ae78f21dd82fcd179","6662095dd37f5e964b55de74","217","","j","","","","","","","","./tasks/HMM-beads/Images/NewTrialWC.png","lowH","1","58","1","1","1","1","true","",""
"image-keyboard-response","312","333486","0.0-3.0-6.0-1.0-1.58","62d2aee15e1dc6709bdcace0","6662009ae78f21dd82fcd179","6662095dd37f5e964b55de74","null","","null","","","","","","","","./tasks/HMM-beads/Images/WhiteBeadChoice.png","","","","","","","","","",""
"image-keyboard-response","313","334000","0.0-3.0-6.0-1.0-2.58","62d2aee15e1dc6709bdcace0","6662009ae78f21dd82fcd179","6662095dd37f5e964b55de74","null","","null","","","","","","","","./tasks/HMM-beads/Images/WhiteBeadChoiceCorrect.png","","","","","","","","","",""
"image-keyboard-response","314","334195","0.0-3.0-6.0-1.0-0.59","62d2aee15e1dc6709bdcace0","6662009ae78f21dd82fcd179","6662095dd37f5e964b55de74","193","","j","","","","","","","","./tasks/HMM-beads/Images/NewTrialWC.png","lowH","1","59","1","0","1","1","false","",""
"image-keyboard-response","315","334515","0.0-3.0-6.0-1.0-1.59","62d2aee15e1dc6709bdcace0","6662009ae78f21dd82fcd179","6662095dd37f5e964b55de74","null","","null","","","","","","","","./tasks/HMM-beads/Images/WhiteBeadChoice.png","","","","","","","","","",""
"image-keyboard-response","316","335020","0.0-3.0-6.0-1.0-2.59","62d2aee15e1dc6709bdcace0","6662009ae78f21dd82fcd179","6662095dd37f5e964b55de74","null","","null","","","","","","","","./tasks/HMM-beads/Images/WhiteBeadChoiceWrong.png","","","","","","","","","",""
"image-keyboard-response","317","335127","0.0-3.0-6.0-1.0-0.60","62d2aee15e1dc6709bdcace0","6662009ae78f21dd82fcd179","6662095dd37f5e964b55de74","106","","f","","","","","","","","./tasks/HMM-beads/Images/NewTrialBC.png","lowH","1","60","1","1","0","0","false","",""
"image-keyboard-response","318","335435","0.0-3.0-6.0-1.0-1.60","62d2aee15e1dc6709bdcace0","6662009ae78f21dd82fcd179","6662095dd37f5e964b55de74","null","","null","","","","","","","","./tasks/HMM-beads/Images/BlackBeadChoice.png","","","","","","","","","",""
"image-keyboard-response","319","335940","0.0-3.0-6.0-1.0-2.60","62d2aee15e1dc6709bdcace0","6662009ae78f21dd82fcd179","6662095dd37f5e964b55de74","null","","null","","","","","","","","./tasks/HMM-beads/Images/BlackBeadChoiceWrong.png","","","","","","","","","",""
"image-keyboard-response","320","335993","0.0-3.0-6.0-1.0-0.61","62d2aee15e1dc6709bdcace0","6662009ae78f21dd82fcd179","6662095dd37f5e964b55de74","51","","j","","","","","","","","./tasks/HMM-beads/Images/NewTrialWC.png","lowH","1","61","1","1","1","1","true","",""
"image-keyboard-response","321","336310","0.0-3.0-6.0-1.0-1.61","62d2aee15e1dc6709bdcace0","6662009ae78f21dd82fcd179","6662095dd37f5e964b55de74","null","","null","","","","","","","","./tasks/HMM-beads/Images/WhiteBeadChoice.png","","","","","","","","","",""
"image-keyboard-response","322","336815","0.0-3.0-6.0-1.0-2.61","62d2aee15e1dc6709bdcace0","6662009ae78f21dd82fcd179","6662095dd37f5e964b55de74","null","","null","","","","","","","","./tasks/HMM-beads/Images/WhiteBeadChoiceCorrect.png","","","","","","","","","",""
"image-keyboard-response","323","337041","0.0-3.0-6.0-1.0-0.62","62d2aee15e1dc6709bdcace0","6662009ae78f21dd82fcd179","6662095dd37f5e964b55de74","224","","j","","","","","","","","./tasks/HMM-beads/Images/NewTrialWC.png","lowH","1","62","1","0","1","1","false","",""
"image-keyboard-response","324","337345","0.0-3.0-6.0-1.0-1.62","62d2aee15e1dc6709bdcace0","6662009ae78f21dd82fcd179","6662095dd37f5e964b55de74","null","","null","","","","","","","","./tasks/HMM-beads/Images/WhiteBeadChoice.png","","","","","","","","","",""
"image-keyboard-response","325","337865","0.0-3.0-6.0-1.0-2.62","62d2aee15e1dc6709bdcace0","6662009ae78f21dd82fcd179","6662095dd37f5e964b55de74","null","","null","","","","","","","","./tasks/HMM-beads/Images/WhiteBeadChoiceWrong.png","","","","","","","","","",""
"image-keyboard-response","326","338110","0.0-3.0-6.0-1.0-0.63","62d2aee15e1dc6709bdcace0","6662009ae78f21dd82fcd179","6662095dd37f5e964b55de74","243","","f","","","","","","","","./tasks/HMM-beads/Images/NewTrialBC.png","lowH","1","63","1","1","0","0","false","",""
"image-keyboard-response","327","338415","0.0-3.0-6.0-1.0-1.63","62d2aee15e1dc6709bdcace0","6662009ae78f21dd82fcd179","6662095dd37f5e964b55de74","null","","null","","","","","","","","./tasks/HMM-beads/Images/BlackBeadChoice.png","","","","","","","","","",""
"image-keyboard-response","328","338935","0.0-3.0-6.0-1.0-2.63","62d2aee15e1dc6709bdcace0","6662009ae78f21dd82fcd179","6662095dd37f5e964b55de74","null","","null","","","","","","","","./tasks/HMM-beads/Images/BlackBeadChoiceWrong.png","","","","","","","","","",""
"image-keyboard-response","329","338961","0.0-3.0-6.0-1.0-0.64","62d2aee15e1dc6709bdcace0","6662009ae78f21dd82fcd179","6662095dd37f5e964b55de74","24","","f","","","","","","","","./tasks/HMM-beads/Images/NewTrialWC.png","lowH","1","64","1","1","1","0","false","",""
"image-keyboard-response","330","339265","0.0-3.0-6.0-1.0-1.64","62d2aee15e1dc6709bdcace0","6662009ae78f21dd82fcd179","6662095dd37f5e964b55de74","null","","null","","","","","","","","./tasks/HMM-beads/Images/BlackBeadChoice.png","","","","","","","","","",""
"image-keyboard-response","331","339785","0.0-3.0-6.0-1.0-2.64","62d2aee15e1dc6709bdcace0","6662009ae78f21dd82fcd179","6662095dd37f5e964b55de74","null","","null","","","","","","","","./tasks/HMM-beads/Images/BlackBeadChoiceWrong.png","","","","","","","","","",""
"image-keyboard-response","332","339851","0.0-3.0-6.0-1.0-0.65","62d2aee15e1dc6709bdcace0","6662009ae78f21dd82fcd179","6662095dd37f5e964b55de74","64","","f","","","","","","","","./tasks/HMM-beads/Images/NewTrialWC.png","lowH","1","65","1","1","1","0","false","",""
"image-keyboard-response","333","340165","0.0-3.0-6.0-1.0-1.65","62d2aee15e1dc6709bdcace0","6662009ae78f21dd82fcd179","6662095dd37f5e964b55de74","null","","null","","","","","","","","./tasks/HMM-beads/Images/BlackBeadChoice.png","","","","","","","","","",""
"image-keyboard-response","334","340675","0.0-3.0-6.0-1.0-2.65","62d2aee15e1dc6709bdcace0","6662009ae78f21dd82fcd179","6662095dd37f5e964b55de74","null","","null","","","","","","","","./tasks/HMM-beads/Images/BlackBeadChoiceWrong.png","","","","","","","","","",""
"image-keyboard-response","335","341378","0.0-3.0-6.0-1.0-0.66","62d2aee15e1dc6709bdcace0","6662009ae78f21dd82fcd179","6662095dd37f5e964b55de74","702","","j","","","","","","","","./tasks/HMM-beads/Images/NewTrialWC.png","lowH","1","66","1","1","1","1","true","",""
"image-keyboard-response","336","341690","0.0-3.0-6.0-1.0-1.66","62d2aee15e1dc6709bdcace0","6662009ae78f21dd82fcd179","6662095dd37f5e964b55de74","null","","null","","","","","","","","./tasks/HMM-beads/Images/WhiteBeadChoice.png","","","","","","","","","",""
"image-keyboard-response","337","342205","0.0-3.0-6.0-1.0-2.66","62d2aee15e1dc6709bdcace0","6662009ae78f21dd82fcd179","6662095dd37f5e964b55de74","null","","null","","","","","","","","./tasks/HMM-beads/Images/WhiteBeadChoiceCorrect.png","","","","","","","","","",""
"image-keyboard-response","338","342247","0.0-3.0-6.0-1.0-0.67","62d2aee15e1dc6709bdcace0","6662009ae78f21dd82fcd179","6662095dd37f5e964b55de74","40","","j","","","","","","","","./tasks/HMM-beads/Images/NewTrialWC.png","lowH","1","67","1","0","1","1","false","",""
"image-keyboard-response","339","342560","0.0-3.0-6.0-1.0-1.67","62d2aee15e1dc6709bdcace0","6662009ae78f21dd82fcd179","6662095dd37f5e964b55de74","null","","null","","","","","","","","./tasks/HMM-beads/Images/WhiteBeadChoice.png","","","","","","","","","",""
"image-keyboard-response","340","343065","0.0-3.0-6.0-1.0-2.67","62d2aee15e1dc6709bdcace0","6662009ae78f21dd82fcd179","6662095dd37f5e964b55de74","null","","null","","","","","","","","./tasks/HMM-beads/Images/WhiteBeadChoiceWrong.png","","","","","","","","","",""
"image-keyboard-response","341","343192","0.0-3.0-6.0-1.0-0.68","62d2aee15e1dc6709bdcace0","6662009ae78f21dd82fcd179","6662095dd37f5e964b55de74","118","","j","","","","","","","","./tasks/HMM-beads/Images/NewTrialBC.png","lowH","1","68","1","1","0","1","true","",""
"image-keyboard-response","342","343495","0.0-3.0-6.0-1.0-1.68","62d2aee15e1dc6709bdcace0","6662009ae78f21dd82fcd179","6662095dd37f5e964b55de74","null","","null","","","","","","","","./tasks/HMM-beads/Images/WhiteBeadChoice.png","","","","","","","","","",""
"image-keyboard-response","343","344005","0.0-3.0-6.0-1.0-2.68","62d2aee15e1dc6709bdcace0","6662009ae78f21dd82fcd179","6662095dd37f5e964b55de74","null","","null","","","","","","","","./tasks/HMM-beads/Images/WhiteBeadChoiceCorrect.png","","","","","","","","","",""
"image-keyboard-response","344","344144","0.0-3.0-6.0-1.0-0.69","62d2aee15e1dc6709bdcace0","6662009ae78f21dd82fcd179","6662095dd37f5e964b55de74","138","","j","","","","","","","","./tasks/HMM-beads/Images/NewTrialWC.png","lowH","1","69","0","1","1","1","true","",""
"image-keyboard-response","345","344455","0.0-3.0-6.0-1.0-1.69","62d2aee15e1dc6709bdcace0","6662009ae78f21dd82fcd179","6662095dd37f5e964b55de74","null","","null","","","","","","","","./tasks/HMM-beads/Images/WhiteBeadChoice.png","","","","","","","","","",""
"image-keyboard-response","346","344975","0.0-3.0-6.0-1.0-2.69","62d2aee15e1dc6709bdcace0","6662009ae78f21dd82fcd179","6662095dd37f5e964b55de74","null","","null","","","","","","","","./tasks/HMM-beads/Images/WhiteBeadChoiceCorrect.png","","","","","","","","","",""
"image-keyboard-response","347","345510","0.0-3.0-6.0-1.0-0.70","62d2aee15e1dc6709bdcace0","6662009ae78f21dd82fcd179","6662095dd37f5e964b55de74","533","","f","","","","","","","","./tasks/HMM-beads/Images/NewTrialWC.png","lowH","1","70","0","1","1","0","false","",""
"image-keyboard-response","348","345816","0.0-3.0-6.0-1.0-1.70","62d2aee15e1dc6709bdcace0","6662009ae78f21dd82fcd179","6662095dd37f5e964b55de74","null","","null","","","","","","","","./tasks/HMM-beads/Images/BlackBeadChoice.png","","","","","","","","","",""
"image-keyboard-response","349","346325","0.0-3.0-6.0-1.0-2.70","62d2aee15e1dc6709bdcace0","6662009ae78f21dd82fcd179","6662095dd37f5e964b55de74","null","","null","","","","","","","","./tasks/HMM-beads/Images/BlackBeadChoiceWrong.png","","","","","","","","","",""
"image-keyboard-response","350","346896","0.0-3.0-6.0-1.0-0.71","62d2aee15e1dc6709bdcace0","6662009ae78f21dd82fcd179","6662095dd37f5e964b55de74","569","","j","","","","","","","","./tasks/HMM-beads/Images/NewTrialWC.png","lowH","1","71","0","0","1","1","false","",""
"image-keyboard-response","351","347208","0.0-3.0-6.0-1.0-1.71","62d2aee15e1dc6709bdcace0","6662009ae78f21dd82fcd179","6662095dd37f5e964b55de74","null","","null","","","","","","","","./tasks/HMM-beads/Images/WhiteBeadChoice.png","","","","","","","","","",""
"image-keyboard-response","352","347715","0.0-3.0-6.0-1.0-2.71","62d2aee15e1dc6709bdcace0","6662009ae78f21dd82fcd179","6662095dd37f5e964b55de74","null","","null","","","","","","","","./tasks/HMM-beads/Images/WhiteBeadChoiceWrong.png","","","","","","","","","",""
"image-keyboard-response","353","347789","0.0-3.0-6.0-1.0-0.72","62d2aee15e1dc6709bdcace0","6662009ae78f21dd82fcd179","6662095dd37f5e964b55de74","72","","j","","","","","","","","./tasks/HMM-beads/Images/NewTrialBC.png","lowH","1","72","0","0","0","1","false","",""
"image-keyboard-response","354","348105","0.0-3.0-6.0-1.0-1.72","62d2aee15e1dc6709bdcace0","6662009ae78f21dd82fcd179","6662095dd37f5e964b55de74","null","","null","","","","","","","","./tasks/HMM-beads/Images/WhiteBeadChoice.png","","","","","","","","","",""
"image-keyboard-response","355","348615","0.0-3.0-6.0-1.0-2.72","62d2aee15e1dc6709bdcace0","6662009ae78f21dd82fcd179","6662095dd37f5e964b55de74","null","","null","","","","","","","","./tasks/HMM-beads/Images/WhiteBeadChoiceWrong.png","","","","","","","","","",""
"image-keyboard-response","356","348711","0.0-3.0-6.0-1.0-0.73","62d2aee15e1dc6709bdcace0","6662009ae78f21dd82fcd179","6662095dd37f5e964b55de74","94","","j","","","","","","","","./tasks/HMM-beads/Images/NewTrialBC.png","lowH","1","73","0","1","0","1","true","",""
"image-keyboard-response","357","349015","0.0-3.0-6.0-1.0-1.73","62d2aee15e1dc6709bdcace0","6662009ae78f21dd82fcd179","6662095dd37f5e964b55de74","null","","null","","","","","","","","./tasks/HMM-beads/Images/WhiteBeadChoice.png","","","","","","","","","",""
"image-keyboard-response","358","349520","0.0-3.0-6.0-1.0-2.73","62d2aee15e1dc6709bdcace0","6662009ae78f21dd82fcd179","6662095dd37f5e964b55de74","null","","null","","","","","","","","./tasks/HMM-beads/Images/WhiteBeadChoiceCorrect.png","","","","","","","","","",""
"image-keyboard-response","359","349689","0.0-3.0-6.0-1.0-0.74","62d2aee15e1dc6709bdcace0","6662009ae78f21dd82fcd179","6662095dd37f5e964b55de74","167","","j","","","","","","","","./tasks/HMM-beads/Images/NewTrialWC.png","lowH","1","74","0","0","1","1","false","",""
"image-keyboard-response","360","350000","0.0-3.0-6.0-1.0-1.74","62d2aee15e1dc6709bdcace0","6662009ae78f21dd82fcd179","6662095dd37f5e964b55de74","null","","null","","","","","","","","./tasks/HMM-beads/Images/WhiteBeadChoice.png","","","","","","","","","",""
"image-keyboard-response","361","350515","0.0-3.0-6.0-1.0-2.74","62d2aee15e1dc6709bdcace0","6662009ae78f21dd82fcd179","6662095dd37f5e964b55de74","null","","null","","","","","","","","./tasks/HMM-beads/Images/WhiteBeadChoiceWrong.png","","","","","","","","","",""
"image-keyboard-response","362","350745","0.0-3.0-6.0-1.0-0.75","62d2aee15e1dc6709bdcace0","6662009ae78f21dd82fcd179","6662095dd37f5e964b55de74","229","","j","","","","","","","","./tasks/HMM-beads/Images/NewTrialBC.png","lowH","1","75","0","1","0","1","true","",""
"image-keyboard-response","363","351050","0.0-3.0-6.0-1.0-1.75","62d2aee15e1dc6709bdcace0","6662009ae78f21dd82fcd179","6662095dd37f5e964b55de74","null","","null","","","","","","","","./tasks/HMM-beads/Images/WhiteBeadChoice.png","","","","","","","","","",""
"image-keyboard-response","364","351565","0.0-3.0-6.0-1.0-2.75","62d2aee15e1dc6709bdcace0","6662009ae78f21dd82fcd179","6662095dd37f5e964b55de74","null","","null","","","","","","","","./tasks/HMM-beads/Images/WhiteBeadChoiceCorrect.png","","","","","","","","","",""
"image-keyboard-response","365","351638","0.0-3.0-6.0-1.0-0.76","62d2aee15e1dc6709bdcace0","6662009ae78f21dd82fcd179","6662095dd37f5e964b55de74","72","","j","","","","","","","","./tasks/HMM-beads/Images/NewTrialWC.png","lowH","1","76","0","1","1","1","true","",""
"image-keyboard-response","366","351955","0.0-3.0-6.0-1.0-1.76","62d2aee15e1dc6709bdcace0","6662009ae78f21dd82fcd179","6662095dd37f5e964b55de74","null","","null","","","","","","","","./tasks/HMM-beads/Images/WhiteBeadChoice.png","","","","","","","","","",""
"image-keyboard-response","367","352465","0.0-3.0-6.0-1.0-2.76","62d2aee15e1dc6709bdcace0","6662009ae78f21dd82fcd179","6662095dd37f5e964b55de74","null","","null","","","","","","","","./tasks/HMM-beads/Images/WhiteBeadChoiceCorrect.png","","","","","","","","","",""
"image-keyboard-response","368","352475","0.0-3.0-6.0-1.0-0.77","62d2aee15e1dc6709bdcace0","6662009ae78f21dd82fcd179","6662095dd37f5e964b55de74","9","","f","","","","","","","","./tasks/HMM-beads/Images/NewTrialWC.png","lowH","1","77","0","0","1","0","true","",""
"image-keyboard-response","369","352780","0.0-3.0-6.0-1.0-1.77","62d2aee15e1dc6709bdcace0","6662009ae78f21dd82fcd179","6662095dd37f5e964b55de74","null","","null","","","","","","","","./tasks/HMM-beads/Images/BlackBeadChoice.png","","","","","","","","","",""
"image-keyboard-response","370","353285","0.0-3.0-6.0-1.0-2.77","62d2aee15e1dc6709bdcace0","6662009ae78f21dd82fcd179","6662095dd37f5e964b55de74","null","","null","","","","","","","","./tasks/HMM-beads/Images/BlackBeadChoiceCorrect.png","","","","","","","","","",""
"image-keyboard-response","371","353564","0.0-3.0-6.0-1.0-0.78","62d2aee15e1dc6709bdcace0","6662009ae78f21dd82fcd179","6662095dd37f5e964b55de74","277","","f","","","","","","","","./tasks/HMM-beads/Images/NewTrialBC.png","lowH","1","78","0","0","0","0","true","",""
"image-keyboard-response","372","353885","0.0-3.0-6.0-1.0-1.78","62d2aee15e1dc6709bdcace0","6662009ae78f21dd82fcd179","6662095dd37f5e964b55de74","null","","null","","","","","","","","./tasks/HMM-beads/Images/BlackBeadChoice.png","","","","","","","","","",""
"image-keyboard-response","373","354400","0.0-3.0-6.0-1.0-2.78","62d2aee15e1dc6709bdcace0","6662009ae78f21dd82fcd179","6662095dd37f5e964b55de74","null","","null","","","","","","","","./tasks/HMM-beads/Images/BlackBeadChoiceCorrect.png","","","","","","","","","",""
"image-keyboard-response","374","354483","0.0-3.0-6.0-1.0-0.79","62d2aee15e1dc6709bdcace0","6662009ae78f21dd82fcd179","6662095dd37f5e964b55de74","81","","j","","","","","","","","./tasks/HMM-beads/Images/NewTrialBC.png","lowH","1","79","0","0","0","1","false","",""
