"trial_type","trial_index","time_elapsed","internal_node_id","subject_id","study_id","session_id","rt","url","response","question_order","view_history","success","timeout","failed_images","failed_audio","failed_video","stimulus","block","block_rep","trial_number","jar","bead","previous_bead","choice","correct","lowH_score","total_bonus"
"pavlovia","0","806","0.0-0.0","5ce158b01d1060001a810a2d","6662009ae78f21dd82fcd179","666207174ed97c869a7fb83b","","","","","","","","","","","","","","","","","","","","",""
"external-html","1","26999","0.0-1.0-0.0","5ce158b01d1060001a810a2d","6662009ae78f21dd82fcd179","666207174ed97c869a7fb83b","26071","new_consent.html","","","","","","","","","","","","","","","","","","",""
"survey-multi-choice","2","31619","0.0-1.0-1.0","5ce158b01d1060001a810a2d","6662009ae78f21dd82fcd179","666207174ed97c869a7fb83b","4619","","{""Q0"":""Female"",""Q1"":""White""}","[0,1]","","","","","","","","","","","","","","","","",""
"survey-text","3","34699","0.0-1.0-2.0","5ce158b01d1060001a810a2d","6662009ae78f21dd82fcd179","666207174ed97c869a7fb83b","3078","","{""Q0"":""36""}","","","","","","","","","","","","","","","","","",""
"instructions","4","36353","0.0-2.0","5ce158b01d1060001a810a2d","6662009ae78f21dd82fcd179","666207174ed97c869a7fb83b","1542","","","","[{""page_index"":0,""viewing_time"":1542}]","","","","","","","","","","","","","","","",""
"preload","5","37344","0.0-3.0-0.0","5ce158b01d1060001a810a2d","6662009ae78f21dd82fcd179","666207174ed97c869a7fb83b","","","","","","true","false","[]","[]","[]","","","","","","","","","","",""
"instructions","6","155282","0.0-3.0-1.0","5ce158b01d1060001a810a2d","6662009ae78f21dd82fcd179","666207174ed97c869a7fb83b","117937","","","","[{""page_index"":0,""viewing_time"":15325},{""page_index"":1,""viewing_time"":10580},{""page_index"":2,""viewing_time"":5186},{""page_index"":3,""viewing_time"":2106},{""page_index"":4,""viewing_time"":13790},{""page_index"":5,""viewing_time"":17122},{""page_index"":6,""viewing_time"":8206},{""page_index"":7,""viewing_time"":7934},{""page_index"":8,""viewing_time"":7046},{""page_index"":9,""viewing_time"":8602},{""page_index"":10,""viewing_time"":19632},{""page_index"":11,""viewing_time"":2408}]","","","","","","","","","","","","","","","",""
"html-button-response","7","160330","0.0-3.0-2.0-0.0-0.0","5ce158b01d1060001a810a2d","6662009ae78f21dd82fcd179","666207174ed97c869a7fb83b","5047","","1","","","","","","","","<div align=center>Your goal is to predict…?<br><br></div>","","","","","","","","","",""
"html-button-response","8","166922","0.0-3.0-2.0-1.0-0.0","5ce158b01d1060001a810a2d","6662009ae78f21dd82fcd179","666207174ed97c869a7fb83b","4988","","2","","","","","","","","<div align=center>In the jar with mostly white beads, there are ___% white beads and ___% black beads?<br><br></div>","","","","","","","","","",""
"html-button-response","9","176552","0.0-3.0-2.0-2.0-0.0","5ce158b01d1060001a810a2d","6662009ae78f21dd82fcd179","666207174ed97c869a7fb83b","8557","","0","","","","","","","","<div align=center>When there is a 1% probability that the jars will switch, the next bead will most likely be drawn from the…<br><br></div>","","","","","","","","","",""
"html-button-response","10","183562","0.0-3.0-2.0-3.0-0.0","5ce158b01d1060001a810a2d","6662009ae78f21dd82fcd179","666207174ed97c869a7fb83b","5812","","1","","","","","","","","<div align=center>When there is a 99% probability that the jars will switch, the next bead will most likely be drawn from the…<br><br></div>","","","","","","","","","",""
"instructions","11","191836","0.0-3.0-3.0","5ce158b01d1060001a810a2d","6662009ae78f21dd82fcd179","666207174ed97c869a7fb83b","7272","","","","[{""page_index"":0,""viewing_time"":7272}]","","","","","","","","","","","","","","","",""
"html-keyboard-response","12","205380","0.0-3.0-4.0-0.0","5ce158b01d1060001a810a2d","6662009ae78f21dd82fcd179","666207174ed97c869a7fb83b","13542",""," ","","","","","","","","<div align=center>In this practice block, there will be a <b>1% chance</b> that the jar on the next trial will be different from the jar on the current trial.<br><br></div>","","","","","","","","","",""
"image-keyboard-response","13","210516","0.0-3.0-4.0-1.0-0.0","5ce158b01d1060001a810a2d","6662009ae78f21dd82fcd179","666207174ed97c869a7fb83b","5130","","f","","","","","","","","./tasks/HMM-beads/Images/NoChoice.png","practice","0","0","0","0","9","0","true","",""
"image-keyboard-response","14","210835","0.0-3.0-4.0-1.0-1.0","5ce158b01d1060001a810a2d","6662009ae78f21dd82fcd179","666207174ed97c869a7fb83b","null","","null","","","","","","","","./tasks/HMM-beads/Images/BlackBeadChoice.png","","","","","","","","","",""
"image-keyboard-response","15","211353","0.0-3.0-4.0-1.0-2.0","5ce158b01d1060001a810a2d","6662009ae78f21dd82fcd179","666207174ed97c869a7fb83b","null","","null","","","","","","","","./tasks/HMM-beads/Images/BlackBeadChoiceCorrect.png","","","","","","","","","",""
"image-keyboard-response","16","214428","0.0-3.0-4.0-1.0-0.1","5ce158b01d1060001a810a2d","6662009ae78f21dd82fcd179","666207174ed97c869a7fb83b","3069","","f","","","","","","","","./tasks/HMM-beads/Images/NewTrialBC.png","practice","0","1","0","0","0","0","true","",""
"image-keyboard-response","17","214740","0.0-3.0-4.0-1.0-1.1","5ce158b01d1060001a810a2d","6662009ae78f21dd82fcd179","666207174ed97c869a7fb83b","null","","null","","","","","","","","./tasks/HMM-beads/Images/BlackBeadChoice.png","","","","","","","","","",""
"image-keyboard-response","18","215244","0.0-3.0-4.0-1.0-2.1","5ce158b01d1060001a810a2d","6662009ae78f21dd82fcd179","666207174ed97c869a7fb83b","null","","null","","","","","","","","./tasks/HMM-beads/Images/BlackBeadChoiceCorrect.png","","","","","","","","","",""
"image-keyboard-response","19","216804","0.0-3.0-4.0-1.0-0.2","5ce158b01d1060001a810a2d","6662009ae78f21dd82fcd179","666207174ed97c869a7fb83b","1559","","f","","","","","","","","./tasks/HMM-beads/Images/NewTrialBC.png","practice","0","2","0","1","0","0","false","",""
"image-keyboard-response","20","217107","0.0-3.0-4.0-1.0-1.2","5ce158b01d1060001a810a2d","6662009ae78f21dd82fcd179","666207174ed97c869a7fb83b","null","","null","","","","","","","","./tasks/HMM-beads/Images/BlackBeadChoice.png","","","","","","","","","",""
"image-keyboard-response","21","217624","0.0-3.0-4.0-1.0-2.2","5ce158b01d1060001a810a2d","6662009ae78f21dd82fcd179","666207174ed97c869a7fb83b","null","","null","","","","","","","","./tasks/HMM-beads/Images/BlackBeadChoiceWrong.png","","","","","","","","","",""
"image-keyboard-response","22","225924","0.0-3.0-4.0-1.0-0.3","5ce158b01d1060001a810a2d","6662009ae78f21dd82fcd179","666207174ed97c869a7fb83b","8295","","f","","","","","","","","./tasks/HMM-beads/Images/NewTrialWC.png","practice","0","3","0","0","1","0","true","",""
"image-keyboard-response","23","226228","0.0-3.0-4.0-1.0-1.3","5ce158b01d1060001a810a2d","6662009ae78f21dd82fcd179","666207174ed97c869a7fb83b","null","","null","","","","","","","","./tasks/HMM-beads/Images/BlackBeadChoice.png","","","","","","","","","",""
"image-keyboard-response","24","226733","0.0-3.0-4.0-1.0-2.3","5ce158b01d1060001a810a2d","6662009ae78f21dd82fcd179","666207174ed97c869a7fb83b","null","","null","","","","","","","","./tasks/HMM-beads/Images/BlackBeadChoiceCorrect.png","","","","","","","","","",""
"image-keyboard-response","25","227908","0.0-3.0-4.0-1.0-0.4","5ce158b01d1060001a810a2d","6662009ae78f21dd82fcd179","666207174ed97c869a7fb83b","1174","","f","","","","","","","","./tasks/HMM-beads/Images/NewTrialBC.png","practice","0","4","0","0","0","0","true","",""
"image-keyboard-response","26","228216","0.0-3.0-4.0-1.0-1.4","5ce158b01d1060001a810a2d","6662009ae78f21dd82fcd179","666207174ed97c869a7fb83b","null","","null","","","","","","","","./tasks/HMM-beads/Images/BlackBeadChoice.png","","","","","","","","","",""
"image-keyboard-response","27","228719","0.0-3.0-4.0-1.0-2.4","5ce158b01d1060001a810a2d","6662009ae78f21dd82fcd179","666207174ed97c869a7fb83b","null","","null","","","","","","","","./tasks/HMM-beads/Images/BlackBeadChoiceCorrect.png","","","","","","","","","",""
"image-keyboard-response","28","229843","0.0-3.0-4.0-1.0-0.5","5ce158b01d1060001a810a2d","6662009ae78f21dd82fcd179","666207174ed97c869a7fb83b","1124","","f","","","","","","","","./tasks/HMM-beads/Images/NewTrialBC.png","practice","0","5","0","1","0","0","false","",""
"image-keyboard-response","29","230154","0.0-3.0-4.0-1.0-1.5","5ce158b01d1060001a810a2d","6662009ae78f21dd82fcd179","666207174ed97c869a7fb83b","null","","null","","","","","","","","./tasks/HMM-beads/Images/BlackBeadChoice.png","","","","","","","","","",""
"image-keyboard-response","30","230660","0.0-3.0-4.0-1.0-2.5","5ce158b01d1060001a810a2d","6662009ae78f21dd82fcd179","666207174ed97c869a7fb83b","null","","null","","","","","","","","./tasks/HMM-beads/Images/BlackBeadChoiceWrong.png","","","","","","","","","",""
"image-keyboard-response","31","232892","0.0-3.0-4.0-1.0-0.6","5ce158b01d1060001a810a2d","6662009ae78f21dd82fcd179","666207174ed97c869a7fb83b","2232","","j","","","","","","","","./tasks/HMM-beads/Images/NewTrialWC.png","practice","0","6","0","0","1","1","false","",""
"image-keyboard-response","32","233205","0.0-3.0-4.0-1.0-1.6","5ce158b01d1060001a810a2d","6662009ae78f21dd82fcd179","666207174ed97c869a7fb83b","null","","null","","","","","","","","./tasks/HMM-beads/Images/WhiteBeadChoice.png","","","","","","","","","",""
"image-keyboard-response","33","233724","0.0-3.0-4.0-1.0-2.6","5ce158b01d1060001a810a2d","6662009ae78f21dd82fcd179","666207174ed97c869a7fb83b","null","","null","","","","","","","","./tasks/HMM-beads/Images/WhiteBeadChoiceWrong.png","","","","","","","","","",""
"image-keyboard-response","34","235531","0.0-3.0-4.0-1.0-0.7","5ce158b01d1060001a810a2d","6662009ae78f21dd82fcd179","666207174ed97c869a7fb83b","1807","","f","","","","","","","","./tasks/HMM-beads/Images/NewTrialBC.png","practice","0","7","0","0","0","0","true","",""
"image-keyboard-response","35","235834","0.0-3.0-4.0-1.0-1.7","5ce158b01d1060001a810a2d","6662009ae78f21dd82fcd179","666207174ed97c869a7fb83b","null","","null","","","","","","","","./tasks/HMM-beads/Images/BlackBeadChoice.png","","","","","","","","","",""
"image-keyboard-response","36","236341","0.0-3.0-4.0-1.0-2.7","5ce158b01d1060001a810a2d","6662009ae78f21dd82fcd179","666207174ed97c869a7fb83b","null","","null","","","","","","","","./tasks/HMM-beads/Images/BlackBeadChoiceCorrect.png","","","","","","","","","",""
"image-keyboard-response","37","236860","0.0-3.0-4.0-1.0-0.8","5ce158b01d1060001a810a2d","6662009ae78f21dd82fcd179","666207174ed97c869a7fb83b","518","","f","","","","","","","","./tasks/HMM-beads/Images/NewTrialBC.png","practice","0","8","0","0","0","0","true","",""
"image-keyboard-response","38","237169","0.0-3.0-4.0-1.0-1.8","5ce158b01d1060001a810a2d","6662009ae78f21dd82fcd179","666207174ed97c869a7fb83b","null","","null","","","","","","","","./tasks/HMM-beads/Images/BlackBeadChoice.png","","","","","","","","","",""
"image-keyboard-response","39","237675","0.0-3.0-4.0-1.0-2.8","5ce158b01d1060001a810a2d","6662009ae78f21dd82fcd179","666207174ed97c869a7fb83b","null","","null","","","","","","","","./tasks/HMM-beads/Images/BlackBeadChoiceCorrect.png","","","","","","","","","",""
"image-keyboard-response","40","238556","0.0-3.0-4.0-1.0-0.9","5ce158b01d1060001a810a2d","6662009ae78f21dd82fcd179","666207174ed97c869a7fb83b","881","","f","","","","","","","","./tasks/HMM-beads/Images/NewTrialBC.png","practice","0","9","0","1","0","0","false","",""
"image-keyboard-response","41","238869","0.0-3.0-4.0-1.0-1.9","5ce158b01d1060001a810a2d","6662009ae78f21dd82fcd179","666207174ed97c869a7fb83b","null","","null","","","","","","","","./tasks/HMM-beads/Images/BlackBeadChoice.png","","","","","","","","","",""
"image-keyboard-response","42","239374","0.0-3.0-4.0-1.0-2.9","5ce158b01d1060001a810a2d","6662009ae78f21dd82fcd179","666207174ed97c869a7fb83b","null","","null","","","","","","","","./tasks/HMM-beads/Images/BlackBeadChoiceWrong.png","","","","","","","","","",""
"image-keyboard-response","43","241108","0.0-3.0-4.0-1.0-0.10","5ce158b01d1060001a810a2d","6662009ae78f21dd82fcd179","666207174ed97c869a7fb83b","1733","","f","","","","","","","","./tasks/HMM-beads/Images/NewTrialWC.png","practice","0","10","0","0","1","0","true","",""
"image-keyboard-response","44","241421","0.0-3.0-4.0-1.0-1.10","5ce158b01d1060001a810a2d","6662009ae78f21dd82fcd179","666207174ed97c869a7fb83b","null","","null","","","","","","","","./tasks/HMM-beads/Images/BlackBeadChoice.png","","","","","","","","","",""
"image-keyboard-response","45","241925","0.0-3.0-4.0-1.0-2.10","5ce158b01d1060001a810a2d","6662009ae78f21dd82fcd179","666207174ed97c869a7fb83b","null","","null","","","","","","","","./tasks/HMM-beads/Images/BlackBeadChoiceCorrect.png","","","","","","","","","",""
"image-keyboard-response","46","242524","0.0-3.0-4.0-1.0-0.11","5ce158b01d1060001a810a2d","6662009ae78f21dd82fcd179","666207174ed97c869a7fb83b","598","","f","","","","","","","","./tasks/HMM-beads/Images/NewTrialBC.png","practice","0","11","0","1","0","0","false","",""
"image-keyboard-response","47","242831","0.0-3.0-4.0-1.0-1.11","5ce158b01d1060001a810a2d","6662009ae78f21dd82fcd179","666207174ed97c869a7fb83b","null","","null","","","","","","","","./tasks/HMM-beads/Images/BlackBeadChoice.png","","","","","","","","","",""
"image-keyboard-response","48","243337","0.0-3.0-4.0-1.0-2.11","5ce158b01d1060001a810a2d","6662009ae78f21dd82fcd179","666207174ed97c869a7fb83b","null","","null","","","","","","","","./tasks/HMM-beads/Images/BlackBeadChoiceWrong.png","","","","","","","","","",""
"image-keyboard-response","49","244907","0.0-3.0-4.0-1.0-0.12","5ce158b01d1060001a810a2d","6662009ae78f21dd82fcd179","666207174ed97c869a7fb83b","1571","","f","","","","","","","","./tasks/HMM-beads/Images/NewTrialWC.png","practice","0","12","0","0","1","0","true","",""
"image-keyboard-response","50","245214","0.0-3.0-4.0-1.0-1.12","5ce158b01d1060001a810a2d","6662009ae78f21dd82fcd179","666207174ed97c869a7fb83b","null","","null","","","","","","","","./tasks/HMM-beads/Images/BlackBeadChoice.png","","","","","","","","","",""
"image-keyboard-response","51","245721","0.0-3.0-4.0-1.0-2.12","5ce158b01d1060001a810a2d","6662009ae78f21dd82fcd179","666207174ed97c869a7fb83b","null","","null","","","","","","","","./tasks/HMM-beads/Images/BlackBeadChoiceCorrect.png","","","","","","","","","",""
"image-keyboard-response","52","246484","0.0-3.0-4.0-1.0-0.13","5ce158b01d1060001a810a2d","6662009ae78f21dd82fcd179","666207174ed97c869a7fb83b","761","","f","","","","","","","","./tasks/HMM-beads/Images/NewTrialBC.png","practice","0","13","0","0","0","0","true","",""
"image-keyboard-response","53","246794","0.0-3.0-4.0-1.0-1.13","5ce158b01d1060001a810a2d","6662009ae78f21dd82fcd179","666207174ed97c869a7fb83b","null","","null","","","","","","","","./tasks/HMM-beads/Images/BlackBeadChoice.png","","","","","","","","","",""
"image-keyboard-response","54","247346","0.0-3.0-4.0-1.0-2.13","5ce158b01d1060001a810a2d","6662009ae78f21dd82fcd179","666207174ed97c869a7fb83b","null","","null","","","","","","","","./tasks/HMM-beads/Images/BlackBeadChoiceCorrect.png","","","","","","","","","",""
"image-keyboard-response","55","248044","0.0-3.0-4.0-1.0-0.14","5ce158b01d1060001a810a2d","6662009ae78f21dd82fcd179","666207174ed97c869a7fb83b","697","","f","","","","","","","","./tasks/HMM-beads/Images/NewTrialBC.png","practice","0","14","0","0","0","0","true","",""
"image-keyboard-response","56","248359","0.0-3.0-4.0-1.0-1.14","5ce158b01d1060001a810a2d","6662009ae78f21dd82fcd179","666207174ed97c869a7fb83b","null","","null","","","","","","","","./tasks/HMM-beads/Images/BlackBeadChoice.png","","","","","","","","","",""
"image-keyboard-response","57","248864","0.0-3.0-4.0-1.0-2.14","5ce158b01d1060001a810a2d","6662009ae78f21dd82fcd179","666207174ed97c869a7fb83b","null","","null","","","","","","","","./tasks/HMM-beads/Images/BlackBeadChoiceCorrect.png","","","","","","","","","",""
"image-keyboard-response","58","249540","0.0-3.0-4.0-1.0-0.15","5ce158b01d1060001a810a2d","6662009ae78f21dd82fcd179","666207174ed97c869a7fb83b","675","","f","","","","","","","","./tasks/HMM-beads/Images/NewTrialBC.png","practice","0","15","0","0","0","0","true","",""
"image-keyboard-response","59","249841","0.0-3.0-4.0-1.0-1.15","5ce158b01d1060001a810a2d","6662009ae78f21dd82fcd179","666207174ed97c869a7fb83b","null","","null","","","","","","","","./tasks/HMM-beads/Images/BlackBeadChoice.png","","","","","","","","","",""
"image-keyboard-response","60","250347","0.0-3.0-4.0-1.0-2.15","5ce158b01d1060001a810a2d","6662009ae78f21dd82fcd179","666207174ed97c869a7fb83b","null","","null","","","","","","","","./tasks/HMM-beads/Images/BlackBeadChoiceCorrect.png","","","","","","","","","",""
"image-keyboard-response","61","250884","0.0-3.0-4.0-1.0-0.16","5ce158b01d1060001a810a2d","6662009ae78f21dd82fcd179","666207174ed97c869a7fb83b","537","","f","","","","","","","","./tasks/HMM-beads/Images/NewTrialBC.png","practice","0","16","0","0","0","0","true","",""
"image-keyboard-response","62","251215","0.0-3.0-4.0-1.0-1.16","5ce158b01d1060001a810a2d","6662009ae78f21dd82fcd179","666207174ed97c869a7fb83b","null","","null","","","","","","","","./tasks/HMM-beads/Images/BlackBeadChoice.png","","","","","","","","","",""
"image-keyboard-response","63","251720","0.0-3.0-4.0-1.0-2.16","5ce158b01d1060001a810a2d","6662009ae78f21dd82fcd179","666207174ed97c869a7fb83b","null","","null","","","","","","","","./tasks/HMM-beads/Images/BlackBeadChoiceCorrect.png","","","","","","","","","",""
"image-keyboard-response","64","252308","0.0-3.0-4.0-1.0-0.17","5ce158b01d1060001a810a2d","6662009ae78f21dd82fcd179","666207174ed97c869a7fb83b","587","","f","","","","","","","","./tasks/HMM-beads/Images/NewTrialBC.png","practice","0","17","0","0","0","0","true","",""
"image-keyboard-response","65","252620","0.0-3.0-4.0-1.0-1.17","5ce158b01d1060001a810a2d","6662009ae78f21dd82fcd179","666207174ed97c869a7fb83b","null","","null","","","","","","","","./tasks/HMM-beads/Images/BlackBeadChoice.png","","","","","","","","","",""
"image-keyboard-response","66","253127","0.0-3.0-4.0-1.0-2.17","5ce158b01d1060001a810a2d","6662009ae78f21dd82fcd179","666207174ed97c869a7fb83b","null","","null","","","","","","","","./tasks/HMM-beads/Images/BlackBeadChoiceCorrect.png","","","","","","","","","",""
"image-keyboard-response","67","253732","0.0-3.0-4.0-1.0-0.18","5ce158b01d1060001a810a2d","6662009ae78f21dd82fcd179","666207174ed97c869a7fb83b","604","","f","","","","","","","","./tasks/HMM-beads/Images/NewTrialBC.png","practice","0","18","0","1","0","0","false","",""
"image-keyboard-response","68","254044","0.0-3.0-4.0-1.0-1.18","5ce158b01d1060001a810a2d","6662009ae78f21dd82fcd179","666207174ed97c869a7fb83b","null","","null","","","","","","","","./tasks/HMM-beads/Images/BlackBeadChoice.png","","","","","","","","","",""
"image-keyboard-response","69","254549","0.0-3.0-4.0-1.0-2.18","5ce158b01d1060001a810a2d","6662009ae78f21dd82fcd179","666207174ed97c869a7fb83b","null","","null","","","","","","","","./tasks/HMM-beads/Images/BlackBeadChoiceWrong.png","","","","","","","","","",""
"image-keyboard-response","70","255620","0.0-3.0-4.0-1.0-0.19","5ce158b01d1060001a810a2d","6662009ae78f21dd82fcd179","666207174ed97c869a7fb83b","1070","","f","","","","","","","","./tasks/HMM-beads/Images/NewTrialWC.png","practice","0","19","0","0","1","0","true","",""
"image-keyboard-response","71","255925","0.0-3.0-4.0-1.0-1.19","5ce158b01d1060001a810a2d","6662009ae78f21dd82fcd179","666207174ed97c869a7fb83b","null","","null","","","","","","","","./tasks/HMM-beads/Images/BlackBeadChoice.png","","","","","","","","","",""
"image-keyboard-response","72","256429","0.0-3.0-4.0-1.0-2.19","5ce158b01d1060001a810a2d","6662009ae78f21dd82fcd179","666207174ed97c869a7fb83b","null","","null","","","","","","","","./tasks/HMM-beads/Images/BlackBeadChoiceCorrect.png","","","","","","","","","",""
"image-keyboard-response","73","256980","0.0-3.0-4.0-1.0-0.20","5ce158b01d1060001a810a2d","6662009ae78f21dd82fcd179","666207174ed97c869a7fb83b","549","","f","","","","","","","","./tasks/HMM-beads/Images/NewTrialBC.png","practice","0","20","0","0","0","0","true","",""
"image-keyboard-response","74","257282","0.0-3.0-4.0-1.0-1.20","5ce158b01d1060001a810a2d","6662009ae78f21dd82fcd179","666207174ed97c869a7fb83b","null","","null","","","","","","","","./tasks/HMM-beads/Images/BlackBeadChoice.png","","","","","","","","","",""
"image-keyboard-response","75","257789","0.0-3.0-4.0-1.0-2.20","5ce158b01d1060001a810a2d","6662009ae78f21dd82fcd179","666207174ed97c869a7fb83b","null","","null","","","","","","","","./tasks/HMM-beads/Images/BlackBeadChoiceCorrect.png","","","","","","","","","",""
"image-keyboard-response","76","258260","0.0-3.0-4.0-1.0-0.21","5ce158b01d1060001a810a2d","6662009ae78f21dd82fcd179","666207174ed97c869a7fb83b","470","","f","","","","","","","","./tasks/HMM-beads/Images/NewTrialBC.png","practice","0","21","0","1","0","0","false","",""
"image-keyboard-response","77","258575","0.0-3.0-4.0-1.0-1.21","5ce158b01d1060001a810a2d","6662009ae78f21dd82fcd179","666207174ed97c869a7fb83b","null","","null","","","","","","","","./tasks/HMM-beads/Images/BlackBeadChoice.png","","","","","","","","","",""
"image-keyboard-response","78","259078","0.0-3.0-4.0-1.0-2.21","5ce158b01d1060001a810a2d","6662009ae78f21dd82fcd179","666207174ed97c869a7fb83b","null","","null","","","","","","","","./tasks/HMM-beads/Images/BlackBeadChoiceWrong.png","","","","","","","","","",""
"image-keyboard-response","79","259700","0.0-3.0-4.0-1.0-0.22","5ce158b01d1060001a810a2d","6662009ae78f21dd82fcd179","666207174ed97c869a7fb83b","622","","f","","","","","","","","./tasks/HMM-beads/Images/NewTrialWC.png","practice","0","22","1","1","1","0","false","",""
"image-keyboard-response","80","260009","0.0-3.0-4.0-1.0-1.22","5ce158b01d1060001a810a2d","6662009ae78f21dd82fcd179","666207174ed97c869a7fb83b","null","","null","","","","","","","","./tasks/HMM-beads/Images/BlackBeadChoice.png","","","","","","","","","",""
"image-keyboard-response","81","260515","0.0-3.0-4.0-1.0-2.22","5ce158b01d1060001a810a2d","6662009ae78f21dd82fcd179","666207174ed97c869a7fb83b","null","","null","","","","","","","","./tasks/HMM-beads/Images/BlackBeadChoiceWrong.png","","","","","","","","","",""
"image-keyboard-response","82","260988","0.0-3.0-4.0-1.0-0.23","5ce158b01d1060001a810a2d","6662009ae78f21dd82fcd179","666207174ed97c869a7fb83b","472","","j","","","","","","","","./tasks/HMM-beads/Images/NewTrialWC.png","practice","0","23","1","0","1","1","false","",""
"image-keyboard-response","83","261319","0.0-3.0-4.0-1.0-1.23","5ce158b01d1060001a810a2d","6662009ae78f21dd82fcd179","666207174ed97c869a7fb83b","null","","null","","","","","","","","./tasks/HMM-beads/Images/WhiteBeadChoice.png","","","","","","","","","",""
"image-keyboard-response","84","261821","0.0-3.0-4.0-1.0-2.23","5ce158b01d1060001a810a2d","6662009ae78f21dd82fcd179","666207174ed97c869a7fb83b","null","","null","","","","","","","","./tasks/HMM-beads/Images/WhiteBeadChoiceWrong.png","","","","","","","","","",""
"image-keyboard-response","85","262227","0.0-3.0-4.0-1.0-0.24","5ce158b01d1060001a810a2d","6662009ae78f21dd82fcd179","666207174ed97c869a7fb83b","405","","j","","","","","","","","./tasks/HMM-beads/Images/NewTrialBC.png","practice","0","24","1","1","0","1","true","",""
"image-keyboard-response","86","262542","0.0-3.0-4.0-1.0-1.24","5ce158b01d1060001a810a2d","6662009ae78f21dd82fcd179","666207174ed97c869a7fb83b","null","","null","","","","","","","","./tasks/HMM-beads/Images/WhiteBeadChoice.png","","","","","","","","","",""
"image-keyboard-response","87","263061","0.0-3.0-4.0-1.0-2.24","5ce158b01d1060001a810a2d","6662009ae78f21dd82fcd179","666207174ed97c869a7fb83b","null","","null","","","","","","","","./tasks/HMM-beads/Images/WhiteBeadChoiceCorrect.png","","","","","","","","","",""
"image-keyboard-response","88","263636","0.0-3.0-4.0-1.0-0.25","5ce158b01d1060001a810a2d","6662009ae78f21dd82fcd179","666207174ed97c869a7fb83b","574","","j","","","","","","","","./tasks/HMM-beads/Images/NewTrialWC.png","practice","0","25","1","1","1","1","true","",""
"image-keyboard-response","89","263945","0.0-3.0-4.0-1.0-1.25","5ce158b01d1060001a810a2d","6662009ae78f21dd82fcd179","666207174ed97c869a7fb83b","null","","null","","","","","","","","./tasks/HMM-beads/Images/WhiteBeadChoice.png","","","","","","","","","",""
"image-keyboard-response","90","264451","0.0-3.0-4.0-1.0-2.25","5ce158b01d1060001a810a2d","6662009ae78f21dd82fcd179","666207174ed97c869a7fb83b","null","","null","","","","","","","","./tasks/HMM-beads/Images/WhiteBeadChoiceCorrect.png","","","","","","","","","",""
"image-keyboard-response","91","264956","0.0-3.0-4.0-1.0-0.26","5ce158b01d1060001a810a2d","6662009ae78f21dd82fcd179","666207174ed97c869a7fb83b","504","","j","","","","","","","","./tasks/HMM-beads/Images/NewTrialWC.png","practice","0","26","1","1","1","1","true","",""
"image-keyboard-response","92","265272","0.0-3.0-4.0-1.0-1.26","5ce158b01d1060001a810a2d","6662009ae78f21dd82fcd179","666207174ed97c869a7fb83b","null","","null","","","","","","","","./tasks/HMM-beads/Images/WhiteBeadChoice.png","","","","","","","","","",""
"image-keyboard-response","93","265777","0.0-3.0-4.0-1.0-2.26","5ce158b01d1060001a810a2d","6662009ae78f21dd82fcd179","666207174ed97c869a7fb83b","null","","null","","","","","","","","./tasks/HMM-beads/Images/WhiteBeadChoiceCorrect.png","","","","","","","","","",""
"image-keyboard-response","94","266300","0.0-3.0-4.0-1.0-0.27","5ce158b01d1060001a810a2d","6662009ae78f21dd82fcd179","666207174ed97c869a7fb83b","521","","j","","","","","","","","./tasks/HMM-beads/Images/NewTrialWC.png","practice","0","27","1","1","1","1","true","",""
"image-keyboard-response","95","266602","0.0-3.0-4.0-1.0-1.27","5ce158b01d1060001a810a2d","6662009ae78f21dd82fcd179","666207174ed97c869a7fb83b","null","","null","","","","","","","","./tasks/HMM-beads/Images/WhiteBeadChoice.png","","","","","","","","","",""
"image-keyboard-response","96","267109","0.0-3.0-4.0-1.0-2.27","5ce158b01d1060001a810a2d","6662009ae78f21dd82fcd179","666207174ed97c869a7fb83b","null","","null","","","","","","","","./tasks/HMM-beads/Images/WhiteBeadChoiceCorrect.png","","","","","","","","","",""
"image-keyboard-response","97","267556","0.0-3.0-4.0-1.0-0.28","5ce158b01d1060001a810a2d","6662009ae78f21dd82fcd179","666207174ed97c869a7fb83b","447","","j","","","","","","","","./tasks/HMM-beads/Images/NewTrialWC.png","practice","0","28","1","0","1","1","false","",""
"image-keyboard-response","98","267868","0.0-3.0-4.0-1.0-1.28","5ce158b01d1060001a810a2d","6662009ae78f21dd82fcd179","666207174ed97c869a7fb83b","null","","null","","","","","","","","./tasks/HMM-beads/Images/WhiteBeadChoice.png","","","","","","","","","",""
"image-keyboard-response","99","268370","0.0-3.0-4.0-1.0-2.28","5ce158b01d1060001a810a2d","6662009ae78f21dd82fcd179","666207174ed97c869a7fb83b","null","","null","","","","","","","","./tasks/HMM-beads/Images/WhiteBeadChoiceWrong.png","","","","","","","","","",""
"image-keyboard-response","100","269428","0.0-3.0-4.0-1.0-0.29","5ce158b01d1060001a810a2d","6662009ae78f21dd82fcd179","666207174ed97c869a7fb83b","1057","","f","","","","","","","","./tasks/HMM-beads/Images/NewTrialBC.png","practice","0","29","1","1","0","0","false","",""
"image-keyboard-response","101","269730","0.0-3.0-4.0-1.0-1.29","5ce158b01d1060001a810a2d","6662009ae78f21dd82fcd179","666207174ed97c869a7fb83b","null","","null","","","","","","","","./tasks/HMM-beads/Images/BlackBeadChoice.png","","","","","","","","","",""
"image-keyboard-response","102","270233","0.0-3.0-4.0-1.0-2.29","5ce158b01d1060001a810a2d","6662009ae78f21dd82fcd179","666207174ed97c869a7fb83b","null","","null","","","","","","","","./tasks/HMM-beads/Images/BlackBeadChoiceWrong.png","","","","","","","","","",""
"image-keyboard-response","103","270732","0.0-3.0-4.0-1.0-0.30","5ce158b01d1060001a810a2d","6662009ae78f21dd82fcd179","666207174ed97c869a7fb83b","497","","j","","","","","","","","./tasks/HMM-beads/Images/NewTrialWC.png","practice","0","30","1","0","1","1","false","",""
"image-keyboard-response","104","271036","0.0-3.0-4.0-1.0-1.30","5ce158b01d1060001a810a2d","6662009ae78f21dd82fcd179","666207174ed97c869a7fb83b","null","","null","","","","","","","","./tasks/HMM-beads/Images/WhiteBeadChoice.png","","","","","","","","","",""
"image-keyboard-response","105","271545","0.0-3.0-4.0-1.0-2.30","5ce158b01d1060001a810a2d","6662009ae78f21dd82fcd179","666207174ed97c869a7fb83b","null","","null","","","","","","","","./tasks/HMM-beads/Images/WhiteBeadChoiceWrong.png","","","","","","","","","",""
"image-keyboard-response","106","273076","0.0-3.0-4.0-1.0-0.31","5ce158b01d1060001a810a2d","6662009ae78f21dd82fcd179","666207174ed97c869a7fb83b","1532","","j","","","","","","","","./tasks/HMM-beads/Images/NewTrialBC.png","practice","0","31","1","1","0","1","true","",""
"image-keyboard-response","107","273387","0.0-3.0-4.0-1.0-1.31","5ce158b01d1060001a810a2d","6662009ae78f21dd82fcd179","666207174ed97c869a7fb83b","null","","null","","","","","","","","./tasks/HMM-beads/Images/WhiteBeadChoice.png","","","","","","","","","",""
"image-keyboard-response","108","273891","0.0-3.0-4.0-1.0-2.31","5ce158b01d1060001a810a2d","6662009ae78f21dd82fcd179","666207174ed97c869a7fb83b","null","","null","","","","","","","","./tasks/HMM-beads/Images/WhiteBeadChoiceCorrect.png","","","","","","","","","",""
"image-keyboard-response","109","274284","0.0-3.0-4.0-1.0-0.32","5ce158b01d1060001a810a2d","6662009ae78f21dd82fcd179","666207174ed97c869a7fb83b","393","","j","","","","","","","","./tasks/HMM-beads/Images/NewTrialWC.png","practice","0","32","1","1","1","1","true","",""
"image-keyboard-response","110","274585","0.0-3.0-4.0-1.0-1.32","5ce158b01d1060001a810a2d","6662009ae78f21dd82fcd179","666207174ed97c869a7fb83b","null","","null","","","","","","","","./tasks/HMM-beads/Images/WhiteBeadChoice.png","","","","","","","","","",""
"image-keyboard-response","111","275085","0.0-3.0-4.0-1.0-2.32","5ce158b01d1060001a810a2d","6662009ae78f21dd82fcd179","666207174ed97c869a7fb83b","null","","null","","","","","","","","./tasks/HMM-beads/Images/WhiteBeadChoiceCorrect.png","","","","","","","","","",""
"image-keyboard-response","112","275444","0.0-3.0-4.0-1.0-0.33","5ce158b01d1060001a810a2d","6662009ae78f21dd82fcd179","666207174ed97c869a7fb83b","358","","j","","","","","","","","./tasks/HMM-beads/Images/NewTrialWC.png","practice","0","33","1","1","1","1","true","",""
"image-keyboard-response","113","275746","0.0-3.0-4.0-1.0-1.33","5ce158b01d1060001a810a2d","6662009ae78f21dd82fcd179","666207174ed97c869a7fb83b","null","","null","","","","","","","","./tasks/HMM-beads/Images/WhiteBeadChoice.png","","","","","","","","","",""
"image-keyboard-response","114","276250","0.0-3.0-4.0-1.0-2.33","5ce158b01d1060001a810a2d","6662009ae78f21dd82fcd179","666207174ed97c869a7fb83b","null","","null","","","","","","","","./tasks/HMM-beads/Images/WhiteBeadChoiceCorrect.png","","","","","","","","","",""
"image-keyboard-response","115","276580","0.0-3.0-4.0-1.0-0.34","5ce158b01d1060001a810a2d","6662009ae78f21dd82fcd179","666207174ed97c869a7fb83b","329","","j","","","","","","","","./tasks/HMM-beads/Images/NewTrialWC.png","practice","0","34","1","1","1","1","true","",""
"image-keyboard-response","116","276880","0.0-3.0-4.0-1.0-1.34","5ce158b01d1060001a810a2d","6662009ae78f21dd82fcd179","666207174ed97c869a7fb83b","null","","null","","","","","","","","./tasks/HMM-beads/Images/WhiteBeadChoice.png","","","","","","","","","",""
"image-keyboard-response","117","277388","0.0-3.0-4.0-1.0-2.34","5ce158b01d1060001a810a2d","6662009ae78f21dd82fcd179","666207174ed97c869a7fb83b","null","","null","","","","","","","","./tasks/HMM-beads/Images/WhiteBeadChoiceCorrect.png","","","","","","","","","",""
"image-keyboard-response","118","277708","0.0-3.0-4.0-1.0-0.35","5ce158b01d1060001a810a2d","6662009ae78f21dd82fcd179","666207174ed97c869a7fb83b","320","","j","","","","","","","","./tasks/HMM-beads/Images/NewTrialWC.png","practice","0","35","1","1","1","1","true","",""
"image-keyboard-response","119","278017","0.0-3.0-4.0-1.0-1.35","5ce158b01d1060001a810a2d","6662009ae78f21dd82fcd179","666207174ed97c869a7fb83b","null","","null","","","","","","","","./tasks/HMM-beads/Images/WhiteBeadChoice.png","","","","","","","","","",""
"image-keyboard-response","120","278521","0.0-3.0-4.0-1.0-2.35","5ce158b01d1060001a810a2d","6662009ae78f21dd82fcd179","666207174ed97c869a7fb83b","null","","null","","","","","","","","./tasks/HMM-beads/Images/WhiteBeadChoiceCorrect.png","","","","","","","","","",""
"image-keyboard-response","121","278900","0.0-3.0-4.0-1.0-0.36","5ce158b01d1060001a810a2d","6662009ae78f21dd82fcd179","666207174ed97c869a7fb83b","378","","j","","","","","","","","./tasks/HMM-beads/Images/NewTrialWC.png","practice","0","36","1","0","1","1","false","",""
"image-keyboard-response","122","279201","0.0-3.0-4.0-1.0-1.36","5ce158b01d1060001a810a2d","6662009ae78f21dd82fcd179","666207174ed97c869a7fb83b","null","","null","","","","","","","","./tasks/HMM-beads/Images/WhiteBeadChoice.png","","","","","","","","","",""
"image-keyboard-response","123","279739","0.0-3.0-4.0-1.0-2.36","5ce158b01d1060001a810a2d","6662009ae78f21dd82fcd179","666207174ed97c869a7fb83b","null","","null","","","","","","","","./tasks/HMM-beads/Images/WhiteBeadChoiceWrong.png","","","","","","","","","",""
"image-keyboard-response","124","283292","0.0-3.0-4.0-1.0-0.37","5ce158b01d1060001a810a2d","6662009ae78f21dd82fcd179","666207174ed97c869a7fb83b","3552","","j","","","","","","","","./tasks/HMM-beads/Images/NewTrialBC.png","practice","0","37","1","1","0","1","true","",""
"image-keyboard-response","125","283601","0.0-3.0-4.0-1.0-1.37","5ce158b01d1060001a810a2d","6662009ae78f21dd82fcd179","666207174ed97c869a7fb83b","null","","null","","","","","","","","./tasks/HMM-beads/Images/WhiteBeadChoice.png","","","","","","","","","",""
"image-keyboard-response","126","284103","0.0-3.0-4.0-1.0-2.37","5ce158b01d1060001a810a2d","6662009ae78f21dd82fcd179","666207174ed97c869a7fb83b","null","","null","","","","","","","","./tasks/HMM-beads/Images/WhiteBeadChoiceCorrect.png","","","","","","","","","",""
"image-keyboard-response","127","284460","0.0-3.0-4.0-1.0-0.38","5ce158b01d1060001a810a2d","6662009ae78f21dd82fcd179","666207174ed97c869a7fb83b","356","","j","","","","","","","","./tasks/HMM-beads/Images/NewTrialWC.png","practice","0","38","1","1","1","1","true","",""
"image-keyboard-response","128","284779","0.0-3.0-4.0-1.0-1.38","5ce158b01d1060001a810a2d","6662009ae78f21dd82fcd179","666207174ed97c869a7fb83b","null","","null","","","","","","","","./tasks/HMM-beads/Images/WhiteBeadChoice.png","","","","","","","","","",""
"image-keyboard-response","129","285316","0.0-3.0-4.0-1.0-2.38","5ce158b01d1060001a810a2d","6662009ae78f21dd82fcd179","666207174ed97c869a7fb83b","null","","null","","","","","","","","./tasks/HMM-beads/Images/WhiteBeadChoiceCorrect.png","","","","","","","","","",""
"image-keyboard-response","130","285628","0.0-3.0-4.0-1.0-0.39","5ce158b01d1060001a810a2d","6662009ae78f21dd82fcd179","666207174ed97c869a7fb83b","312","","j","","","","","","","","./tasks/HMM-beads/Images/NewTrialWC.png","practice","0","39","1","1","1","1","true","",""
"image-keyboard-response","131","285932","0.0-3.0-4.0-1.0-1.39","5ce158b01d1060001a810a2d","6662009ae78f21dd82fcd179","666207174ed97c869a7fb83b","null","","null","","","","","","","","./tasks/HMM-beads/Images/WhiteBeadChoice.png","","","","","","","","","",""
"image-keyboard-response","132","286433","0.0-3.0-4.0-1.0-2.39","5ce158b01d1060001a810a2d","6662009ae78f21dd82fcd179","666207174ed97c869a7fb83b","null","","null","","","","","","","","./tasks/HMM-beads/Images/WhiteBeadChoiceCorrect.png","","","","","","","","","",""
"html-keyboard-response","133","290252","0.0-3.0-4.0-2.0","5ce158b01d1060001a810a2d","6662009ae78f21dd82fcd179","666207174ed97c869a7fb83b","3818",""," ","","","","","","","","","","","","","","","","","",""
"instructions","134","305910","0.0-3.0-5.0","5ce158b01d1060001a810a2d","6662009ae78f21dd82fcd179","666207174ed97c869a7fb83b","15657","","","","[{""page_index"":0,""viewing_time"":12445},{""page_index"":1,""viewing_time"":3212}]","","","","","","","","","","","","","","","",""
"html-keyboard-response","135","309892","0.0-3.0-6.0-0.0","5ce158b01d1060001a810a2d","6662009ae78f21dd82fcd179","666207174ed97c869a7fb83b","3982",""," ","","","","","","","","<div align=center>In this block, there will be a <b>1% chance</b> that the jar on the next trial will be different from the jar on the current trial.<br><br></div>","","","","","","","","","",""
"image-keyboard-response","136","310908","0.0-3.0-6.0-1.0-0.0","5ce158b01d1060001a810a2d","6662009ae78f21dd82fcd179","666207174ed97c869a7fb83b","1015","","f","","","","","","","","./tasks/HMM-beads/Images/NoChoice.png","lowH","1","0","1","0","9","0","true","",""
"image-keyboard-response","137","311220","0.0-3.0-6.0-1.0-1.0","5ce158b01d1060001a810a2d","6662009ae78f21dd82fcd179","666207174ed97c869a7fb83b","null","","null","","","","","","","","./tasks/HMM-beads/Images/BlackBeadChoice.png","","","","","","","","","",""
"image-keyboard-response","138","311725","0.0-3.0-6.0-1.0-2.0","5ce158b01d1060001a810a2d","6662009ae78f21dd82fcd179","666207174ed97c869a7fb83b","null","","null","","","","","","","","./tasks/HMM-beads/Images/BlackBeadChoiceCorrect.png","","","","","","","","","",""
"image-keyboard-response","139","312412","0.0-3.0-6.0-1.0-0.1","5ce158b01d1060001a810a2d","6662009ae78f21dd82fcd179","666207174ed97c869a7fb83b","687","","f","","","","","","","","./tasks/HMM-beads/Images/NewTrialBC.png","lowH","1","1","1","1","0","0","false","",""
"image-keyboard-response","140","312719","0.0-3.0-6.0-1.0-1.1","5ce158b01d1060001a810a2d","6662009ae78f21dd82fcd179","666207174ed97c869a7fb83b","null","","null","","","","","","","","./tasks/HMM-beads/Images/BlackBeadChoice.png","","","","","","","","","",""
"image-keyboard-response","141","313225","0.0-3.0-6.0-1.0-2.1","5ce158b01d1060001a810a2d","6662009ae78f21dd82fcd179","666207174ed97c869a7fb83b","null","","null","","","","","","","","./tasks/HMM-beads/Images/BlackBeadChoiceWrong.png","","","","","","","","","",""
"image-keyboard-response","142","313732","0.0-3.0-6.0-1.0-0.2","5ce158b01d1060001a810a2d","6662009ae78f21dd82fcd179","666207174ed97c869a7fb83b","508","","f","","","","","","","","./tasks/HMM-beads/Images/NewTrialWC.png","lowH","1","2","1","1","1","0","false","",""
"image-keyboard-response","143","314047","0.0-3.0-6.0-1.0-1.2","5ce158b01d1060001a810a2d","6662009ae78f21dd82fcd179","666207174ed97c869a7fb83b","null","","null","","","","","","","","./tasks/HMM-beads/Images/BlackBeadChoice.png","","","","","","","","","",""
"image-keyboard-response","144","314551","0.0-3.0-6.0-1.0-2.2","5ce158b01d1060001a810a2d","6662009ae78f21dd82fcd179","666207174ed97c869a7fb83b","null","","null","","","","","","","","./tasks/HMM-beads/Images/BlackBeadChoiceWrong.png","","","","","","","","","",""
"image-keyboard-response","145","314940","0.0-3.0-6.0-1.0-0.3","5ce158b01d1060001a810a2d","6662009ae78f21dd82fcd179","666207174ed97c869a7fb83b","388","","j","","","","","","","","./tasks/HMM-beads/Images/NewTrialWC.png","lowH","1","3","1","1","1","1","true","",""
"image-keyboard-response","146","315247","0.0-3.0-6.0-1.0-1.3","5ce158b01d1060001a810a2d","6662009ae78f21dd82fcd179","666207174ed97c869a7fb83b","null","","null","","","","","","","","./tasks/HMM-beads/Images/WhiteBeadChoice.png","","","","","","","","","",""
"image-keyboard-response","147","315752","0.0-3.0-6.0-1.0-2.3","5ce158b01d1060001a810a2d","6662009ae78f21dd82fcd179","666207174ed97c869a7fb83b","null","","null","","","","","","","","./tasks/HMM-beads/Images/WhiteBeadChoiceCorrect.png","","","","","","","","","",""
"image-keyboard-response","148","316212","0.0-3.0-6.0-1.0-0.4","5ce158b01d1060001a810a2d","6662009ae78f21dd82fcd179","666207174ed97c869a7fb83b","459","","j","","","","","","","","./tasks/HMM-beads/Images/NewTrialWC.png","lowH","1","4","1","1","1","1","true","",""
"image-keyboard-response","149","316524","0.0-3.0-6.0-1.0-1.4","5ce158b01d1060001a810a2d","6662009ae78f21dd82fcd179","666207174ed97c869a7fb83b","null","","null","","","","","","","","./tasks/HMM-beads/Images/WhiteBeadChoice.png","","","","","","","","","",""
"image-keyboard-response","150","317027","0.0-3.0-6.0-1.0-2.4","5ce158b01d1060001a810a2d","6662009ae78f21dd82fcd179","666207174ed97c869a7fb83b","null","","null","","","","","","","","./tasks/HMM-beads/Images/WhiteBeadChoiceCorrect.png","","","","","","","","","",""
"image-keyboard-response","151","317436","0.0-3.0-6.0-1.0-0.5","5ce158b01d1060001a810a2d","6662009ae78f21dd82fcd179","666207174ed97c869a7fb83b","408","","j","","","","","","","","./tasks/HMM-beads/Images/NewTrialWC.png","lowH","1","5","1","1","1","1","true","",""
"image-keyboard-response","152","317751","0.0-3.0-6.0-1.0-1.5","5ce158b01d1060001a810a2d","6662009ae78f21dd82fcd179","666207174ed97c869a7fb83b","null","","null","","","","","","","","./tasks/HMM-beads/Images/WhiteBeadChoice.png","","","","","","","","","",""
"image-keyboard-response","153","318255","0.0-3.0-6.0-1.0-2.5","5ce158b01d1060001a810a2d","6662009ae78f21dd82fcd179","666207174ed97c869a7fb83b","null","","null","","","","","","","","./tasks/HMM-beads/Images/WhiteBeadChoiceCorrect.png","","","","","","","","","",""
"image-keyboard-response","154","318693","0.0-3.0-6.0-1.0-0.6","5ce158b01d1060001a810a2d","6662009ae78f21dd82fcd179","666207174ed97c869a7fb83b","436","","j","","","","","","","","./tasks/HMM-beads/Images/NewTrialWC.png","lowH","1","6","1","0","1","1","false","",""
"image-keyboard-response","155","318997","0.0-3.0-6.0-1.0-1.6","5ce158b01d1060001a810a2d","6662009ae78f21dd82fcd179","666207174ed97c869a7fb83b","null","","null","","","","","","","","./tasks/HMM-beads/Images/WhiteBeadChoice.png","","","","","","","","","",""
"image-keyboard-response","156","319502","0.0-3.0-6.0-1.0-2.6","5ce158b01d1060001a810a2d","6662009ae78f21dd82fcd179","666207174ed97c869a7fb83b","null","","null","","","","","","","","./tasks/HMM-beads/Images/WhiteBeadChoiceWrong.png","","","","","","","","","",""
"image-keyboard-response","157","320452","0.0-3.0-6.0-1.0-0.7","5ce158b01d1060001a810a2d","6662009ae78f21dd82fcd179","666207174ed97c869a7fb83b","950","","j","","","","","","","","./tasks/HMM-beads/Images/NewTrialBC.png","lowH","1","7","1","1","0","1","true","",""
"image-keyboard-response","158","320765","0.0-3.0-6.0-1.0-1.7","5ce158b01d1060001a810a2d","6662009ae78f21dd82fcd179","666207174ed97c869a7fb83b","null","","null","","","","","","","","./tasks/HMM-beads/Images/WhiteBeadChoice.png","","","","","","","","","",""
"image-keyboard-response","159","321271","0.0-3.0-6.0-1.0-2.7","5ce158b01d1060001a810a2d","6662009ae78f21dd82fcd179","666207174ed97c869a7fb83b","null","","null","","","","","","","","./tasks/HMM-beads/Images/WhiteBeadChoiceCorrect.png","","","","","","","","","",""
"image-keyboard-response","160","321661","0.0-3.0-6.0-1.0-0.8","5ce158b01d1060001a810a2d","6662009ae78f21dd82fcd179","666207174ed97c869a7fb83b","388","","j","","","","","","","","./tasks/HMM-beads/Images/NewTrialWC.png","lowH","1","8","1","1","1","1","true","",""
"image-keyboard-response","161","321999","0.0-3.0-6.0-1.0-1.8","5ce158b01d1060001a810a2d","6662009ae78f21dd82fcd179","666207174ed97c869a7fb83b","null","","null","","","","","","","","./tasks/HMM-beads/Images/WhiteBeadChoice.png","","","","","","","","","",""
"image-keyboard-response","162","322503","0.0-3.0-6.0-1.0-2.8","5ce158b01d1060001a810a2d","6662009ae78f21dd82fcd179","666207174ed97c869a7fb83b","null","","null","","","","","","","","./tasks/HMM-beads/Images/WhiteBeadChoiceCorrect.png","","","","","","","","","",""
"image-keyboard-response","163","322892","0.0-3.0-6.0-1.0-0.9","5ce158b01d1060001a810a2d","6662009ae78f21dd82fcd179","666207174ed97c869a7fb83b","389","","j","","","","","","","","./tasks/HMM-beads/Images/NewTrialWC.png","lowH","1","9","1","1","1","1","true","",""
"image-keyboard-response","164","323199","0.0-3.0-6.0-1.0-1.9","5ce158b01d1060001a810a2d","6662009ae78f21dd82fcd179","666207174ed97c869a7fb83b","null","","null","","","","","","","","./tasks/HMM-beads/Images/WhiteBeadChoice.png","","","","","","","","","",""
"image-keyboard-response","165","323703","0.0-3.0-6.0-1.0-2.9","5ce158b01d1060001a810a2d","6662009ae78f21dd82fcd179","666207174ed97c869a7fb83b","null","","null","","","","","","","","./tasks/HMM-beads/Images/WhiteBeadChoiceCorrect.png","","","","","","","","","",""
"image-keyboard-response","166","324140","0.0-3.0-6.0-1.0-0.10","5ce158b01d1060001a810a2d","6662009ae78f21dd82fcd179","666207174ed97c869a7fb83b","437","","j","","","","","","","","./tasks/HMM-beads/Images/NewTrialWC.png","lowH","1","10","1","1","1","1","true","",""
"image-keyboard-response","167","324445","0.0-3.0-6.0-1.0-1.10","5ce158b01d1060001a810a2d","6662009ae78f21dd82fcd179","666207174ed97c869a7fb83b","null","","null","","","","","","","","./tasks/HMM-beads/Images/WhiteBeadChoice.png","","","","","","","","","",""
"image-keyboard-response","168","324950","0.0-3.0-6.0-1.0-2.10","5ce158b01d1060001a810a2d","6662009ae78f21dd82fcd179","666207174ed97c869a7fb83b","null","","null","","","","","","","","./tasks/HMM-beads/Images/WhiteBeadChoiceCorrect.png","","","","","","","","","",""
"image-keyboard-response","169","325381","0.0-3.0-6.0-1.0-0.11","5ce158b01d1060001a810a2d","6662009ae78f21dd82fcd179","666207174ed97c869a7fb83b","431","","j","","","","","","","","./tasks/HMM-beads/Images/NewTrialWC.png","lowH","1","11","1","1","1","1","true","",""
"image-keyboard-response","170","325708","0.0-3.0-6.0-1.0-1.11","5ce158b01d1060001a810a2d","6662009ae78f21dd82fcd179","666207174ed97c869a7fb83b","null","","null","","","","","","","","./tasks/HMM-beads/Images/WhiteBeadChoice.png","","","","","","","","","",""
"image-keyboard-response","171","326215","0.0-3.0-6.0-1.0-2.11","5ce158b01d1060001a810a2d","6662009ae78f21dd82fcd179","666207174ed97c869a7fb83b","null","","null","","","","","","","","./tasks/HMM-beads/Images/WhiteBeadChoiceCorrect.png","","","","","","","","","",""
"image-keyboard-response","172","326564","0.0-3.0-6.0-1.0-0.12","5ce158b01d1060001a810a2d","6662009ae78f21dd82fcd179","666207174ed97c869a7fb83b","350","","j","","","","","","","","./tasks/HMM-beads/Images/NewTrialWC.png","lowH","1","12","1","1","1","1","true","",""
"image-keyboard-response","173","326877","0.0-3.0-6.0-1.0-1.12","5ce158b01d1060001a810a2d","6662009ae78f21dd82fcd179","666207174ed97c869a7fb83b","null","","null","","","","","","","","./tasks/HMM-beads/Images/WhiteBeadChoice.png","","","","","","","","","",""
"image-keyboard-response","174","327381","0.0-3.0-6.0-1.0-2.12","5ce158b01d1060001a810a2d","6662009ae78f21dd82fcd179","666207174ed97c869a7fb83b","null","","null","","","","","","","","./tasks/HMM-beads/Images/WhiteBeadChoiceCorrect.png","","","","","","","","","",""
"image-keyboard-response","175","327781","0.0-3.0-6.0-1.0-0.13","5ce158b01d1060001a810a2d","6662009ae78f21dd82fcd179","666207174ed97c869a7fb83b","400","","j","","","","","","","","./tasks/HMM-beads/Images/NewTrialWC.png","lowH","1","13","1","0","1","1","false","",""
"image-keyboard-response","176","328090","0.0-3.0-6.0-1.0-1.13","5ce158b01d1060001a810a2d","6662009ae78f21dd82fcd179","666207174ed97c869a7fb83b","null","","null","","","","","","","","./tasks/HMM-beads/Images/WhiteBeadChoice.png","","","","","","","","","",""
"image-keyboard-response","177","328595","0.0-3.0-6.0-1.0-2.13","5ce158b01d1060001a810a2d","6662009ae78f21dd82fcd179","666207174ed97c869a7fb83b","null","","null","","","","","","","","./tasks/HMM-beads/Images/WhiteBeadChoiceWrong.png","","","","","","","","","",""
"image-keyboard-response","178","329052","0.0-3.0-6.0-1.0-0.14","5ce158b01d1060001a810a2d","6662009ae78f21dd82fcd179","666207174ed97c869a7fb83b","456","","j","","","","","","","","./tasks/HMM-beads/Images/NewTrialBC.png","lowH","1","14","1","0","0","1","false","",""
"image-keyboard-response","179","329353","0.0-3.0-6.0-1.0-1.14","5ce158b01d1060001a810a2d","6662009ae78f21dd82fcd179","666207174ed97c869a7fb83b","null","","null","","","","","","","","./tasks/HMM-beads/Images/WhiteBeadChoice.png","","","","","","","","","",""
"image-keyboard-response","180","329859","0.0-3.0-6.0-1.0-2.14","5ce158b01d1060001a810a2d","6662009ae78f21dd82fcd179","666207174ed97c869a7fb83b","null","","null","","","","","","","","./tasks/HMM-beads/Images/WhiteBeadChoiceWrong.png","","","","","","","","","",""
"image-keyboard-response","181","330196","0.0-3.0-6.0-1.0-0.15","5ce158b01d1060001a810a2d","6662009ae78f21dd82fcd179","666207174ed97c869a7fb83b","335","","f","","","","","","","","./tasks/HMM-beads/Images/NewTrialBC.png","lowH","1","15","1","1","0","0","false","",""
"image-keyboard-response","182","330508","0.0-3.0-6.0-1.0-1.15","5ce158b01d1060001a810a2d","6662009ae78f21dd82fcd179","666207174ed97c869a7fb83b","null","","null","","","","","","","","./tasks/HMM-beads/Images/BlackBeadChoice.png","","","","","","","","","",""
"image-keyboard-response","183","331013","0.0-3.0-6.0-1.0-2.15","5ce158b01d1060001a810a2d","6662009ae78f21dd82fcd179","666207174ed97c869a7fb83b","null","","null","","","","","","","","./tasks/HMM-beads/Images/BlackBeadChoiceWrong.png","","","","","","","","","",""
"image-keyboard-response","184","331357","0.0-3.0-6.0-1.0-0.16","5ce158b01d1060001a810a2d","6662009ae78f21dd82fcd179","666207174ed97c869a7fb83b","343","","f","","","","","","","","./tasks/HMM-beads/Images/NewTrialWC.png","lowH","1","16","1","1","1","0","false","",""
"image-keyboard-response","185","331660","0.0-3.0-6.0-1.0-1.16","5ce158b01d1060001a810a2d","6662009ae78f21dd82fcd179","666207174ed97c869a7fb83b","null","","null","","","","","","","","./tasks/HMM-beads/Images/BlackBeadChoice.png","","","","","","","","","",""
"image-keyboard-response","186","332199","0.0-3.0-6.0-1.0-2.16","5ce158b01d1060001a810a2d","6662009ae78f21dd82fcd179","666207174ed97c869a7fb83b","null","","null","","","","","","","","./tasks/HMM-beads/Images/BlackBeadChoiceWrong.png","","","","","","","","","",""
"image-keyboard-response","187","333117","0.0-3.0-6.0-1.0-0.17","5ce158b01d1060001a810a2d","6662009ae78f21dd82fcd179","666207174ed97c869a7fb83b","916","","j","","","","","","","","./tasks/HMM-beads/Images/NewTrialWC.png","lowH","1","17","1","1","1","1","true","",""
"image-keyboard-response","188","333429","0.0-3.0-6.0-1.0-1.17","5ce158b01d1060001a810a2d","6662009ae78f21dd82fcd179","666207174ed97c869a7fb83b","null","","null","","","","","","","","./tasks/HMM-beads/Images/WhiteBeadChoice.png","","","","","","","","","",""
"image-keyboard-response","189","333931","0.0-3.0-6.0-1.0-2.17","5ce158b01d1060001a810a2d","6662009ae78f21dd82fcd179","666207174ed97c869a7fb83b","null","","null","","","","","","","","./tasks/HMM-beads/Images/WhiteBeadChoiceCorrect.png","","","","","","","","","",""
"image-keyboard-response","190","334252","0.0-3.0-6.0-1.0-0.18","5ce158b01d1060001a810a2d","6662009ae78f21dd82fcd179","666207174ed97c869a7fb83b","321","","j","","","","","","","","./tasks/HMM-beads/Images/NewTrialWC.png","lowH","1","18","1","1","1","1","true","",""
"image-keyboard-response","191","334568","0.0-3.0-6.0-1.0-1.18","5ce158b01d1060001a810a2d","6662009ae78f21dd82fcd179","666207174ed97c869a7fb83b","null","","null","","","","","","","","./tasks/HMM-beads/Images/WhiteBeadChoice.png","","","","","","","","","",""
"image-keyboard-response","192","335071","0.0-3.0-6.0-1.0-2.18","5ce158b01d1060001a810a2d","6662009ae78f21dd82fcd179","666207174ed97c869a7fb83b","null","","null","","","","","","","","./tasks/HMM-beads/Images/WhiteBeadChoiceCorrect.png","","","","","","","","","",""
"image-keyboard-response","193","335405","0.0-3.0-6.0-1.0-0.19","5ce158b01d1060001a810a2d","6662009ae78f21dd82fcd179","666207174ed97c869a7fb83b","334","","j","","","","","","","","./tasks/HMM-beads/Images/NewTrialWC.png","lowH","1","19","1","1","1","1","true","",""
"image-keyboard-response","194","335719","0.0-3.0-6.0-1.0-1.19","5ce158b01d1060001a810a2d","6662009ae78f21dd82fcd179","666207174ed97c869a7fb83b","null","","null","","","","","","","","./tasks/HMM-beads/Images/WhiteBeadChoice.png","","","","","","","","","",""
"image-keyboard-response","195","336223","0.0-3.0-6.0-1.0-2.19","5ce158b01d1060001a810a2d","6662009ae78f21dd82fcd179","666207174ed97c869a7fb83b","null","","null","","","","","","","","./tasks/HMM-beads/Images/WhiteBeadChoiceCorrect.png","","","","","","","","","",""
"image-keyboard-response","196","336580","0.0-3.0-6.0-1.0-0.20","5ce158b01d1060001a810a2d","6662009ae78f21dd82fcd179","666207174ed97c869a7fb83b","357","","j","","","","","","","","./tasks/HMM-beads/Images/NewTrialWC.png","lowH","1","20","1","1","1","1","true","",""
"image-keyboard-response","197","336887","0.0-3.0-6.0-1.0-1.20","5ce158b01d1060001a810a2d","6662009ae78f21dd82fcd179","666207174ed97c869a7fb83b","null","","null","","","","","","","","./tasks/HMM-beads/Images/WhiteBeadChoice.png","","","","","","","","","",""
"image-keyboard-response","198","337392","0.0-3.0-6.0-1.0-2.20","5ce158b01d1060001a810a2d","6662009ae78f21dd82fcd179","666207174ed97c869a7fb83b","null","","null","","","","","","","","./tasks/HMM-beads/Images/WhiteBeadChoiceCorrect.png","","","","","","","","","",""
"image-keyboard-response","199","337765","0.0-3.0-6.0-1.0-0.21","5ce158b01d1060001a810a2d","6662009ae78f21dd82fcd179","666207174ed97c869a7fb83b","373","","j","","","","","","","","./tasks/HMM-beads/Images/NewTrialWC.png","lowH","1","21","1","1","1","1","true","",""
"image-keyboard-response","200","338075","0.0-3.0-6.0-1.0-1.21","5ce158b01d1060001a810a2d","6662009ae78f21dd82fcd179","666207174ed97c869a7fb83b","null","","null","","","","","","","","./tasks/HMM-beads/Images/WhiteBeadChoice.png","","","","","","","","","",""
"image-keyboard-response","201","338588","0.0-3.0-6.0-1.0-2.21","5ce158b01d1060001a810a2d","6662009ae78f21dd82fcd179","666207174ed97c869a7fb83b","null","","null","","","","","","","","./tasks/HMM-beads/Images/WhiteBeadChoiceCorrect.png","","","","","","","","","",""
"image-keyboard-response","202","338957","0.0-3.0-6.0-1.0-0.22","5ce158b01d1060001a810a2d","6662009ae78f21dd82fcd179","666207174ed97c869a7fb83b","368","","j","","","","","","","","./tasks/HMM-beads/Images/NewTrialWC.png","lowH","1","22","1","1","1","1","true","",""
"image-keyboard-response","203","339266","0.0-3.0-6.0-1.0-1.22","5ce158b01d1060001a810a2d","6662009ae78f21dd82fcd179","666207174ed97c869a7fb83b","null","","null","","","","","","","","./tasks/HMM-beads/Images/WhiteBeadChoice.png","","","","","","","","","",""
"image-keyboard-response","204","339769","0.0-3.0-6.0-1.0-2.22","5ce158b01d1060001a810a2d","6662009ae78f21dd82fcd179","666207174ed97c869a7fb83b","null","","null","","","","","","","","./tasks/HMM-beads/Images/WhiteBeadChoiceCorrect.png","","","","","","","","","",""
"image-keyboard-response","205","340085","0.0-3.0-6.0-1.0-0.23","5ce158b01d1060001a810a2d","6662009ae78f21dd82fcd179","666207174ed97c869a7fb83b","316","","j","","","","","","","","./tasks/HMM-beads/Images/NewTrialWC.png","lowH","1","23","1","1","1","1","true","",""
"image-keyboard-response","206","340396","0.0-3.0-6.0-1.0-1.23","5ce158b01d1060001a810a2d","6662009ae78f21dd82fcd179","666207174ed97c869a7fb83b","null","","null","","","","","","","","./tasks/HMM-beads/Images/WhiteBeadChoice.png","","","","","","","","","",""
"image-keyboard-response","207","340902","0.0-3.0-6.0-1.0-2.23","5ce158b01d1060001a810a2d","6662009ae78f21dd82fcd179","666207174ed97c869a7fb83b","null","","null","","","","","","","","./tasks/HMM-beads/Images/WhiteBeadChoiceCorrect.png","","","","","","","","","",""
"image-keyboard-response","208","341260","0.0-3.0-6.0-1.0-0.24","5ce158b01d1060001a810a2d","6662009ae78f21dd82fcd179","666207174ed97c869a7fb83b","358","","j","","","","","","","","./tasks/HMM-beads/Images/NewTrialWC.png","lowH","1","24","1","0","1","1","false","",""
"image-keyboard-response","209","341564","0.0-3.0-6.0-1.0-1.24","5ce158b01d1060001a810a2d","6662009ae78f21dd82fcd179","666207174ed97c869a7fb83b","null","","null","","","","","","","","./tasks/HMM-beads/Images/WhiteBeadChoice.png","","","","","","","","","",""
"image-keyboard-response","210","342072","0.0-3.0-6.0-1.0-2.24","5ce158b01d1060001a810a2d","6662009ae78f21dd82fcd179","666207174ed97c869a7fb83b","null","","null","","","","","","","","./tasks/HMM-beads/Images/WhiteBeadChoiceWrong.png","","","","","","","","","",""
"image-keyboard-response","211","342669","0.0-3.0-6.0-1.0-0.25","5ce158b01d1060001a810a2d","6662009ae78f21dd82fcd179","666207174ed97c869a7fb83b","596","","j","","","","","","","","./tasks/HMM-beads/Images/NewTrialBC.png","lowH","1","25","1","1","0","1","true","",""
"image-keyboard-response","212","342972","0.0-3.0-6.0-1.0-1.25","5ce158b01d1060001a810a2d","6662009ae78f21dd82fcd179","666207174ed97c869a7fb83b","null","","null","","","","","","","","./tasks/HMM-beads/Images/WhiteBeadChoice.png","","","","","","","","","",""
"image-keyboard-response","213","343540","0.0-3.0-6.0-1.0-2.25","5ce158b01d1060001a810a2d","6662009ae78f21dd82fcd179","666207174ed97c869a7fb83b","null","","null","","","","","","","","./tasks/HMM-beads/Images/WhiteBeadChoiceCorrect.png","","","","","","","","","",""
"image-keyboard-response","214","343845","0.0-3.0-6.0-1.0-0.26","5ce158b01d1060001a810a2d","6662009ae78f21dd82fcd179","666207174ed97c869a7fb83b","303","","j","","","","","","","","./tasks/HMM-beads/Images/NewTrialWC.png","lowH","1","26","1","0","1","1","false","",""
"image-keyboard-response","215","344158","0.0-3.0-6.0-1.0-1.26","5ce158b01d1060001a810a2d","6662009ae78f21dd82fcd179","666207174ed97c869a7fb83b","null","","null","","","","","","","","./tasks/HMM-beads/Images/WhiteBeadChoice.png","","","","","","","","","",""
"image-keyboard-response","216","344664","0.0-3.0-6.0-1.0-2.26","5ce158b01d1060001a810a2d","6662009ae78f21dd82fcd179","666207174ed97c869a7fb83b","null","","null","","","","","","","","./tasks/HMM-beads/Images/WhiteBeadChoiceWrong.png","","","","","","","","","",""
"image-keyboard-response","217","344973","0.0-3.0-6.0-1.0-0.27","5ce158b01d1060001a810a2d","6662009ae78f21dd82fcd179","666207174ed97c869a7fb83b","308","","j","","","","","","","","./tasks/HMM-beads/Images/NewTrialBC.png","lowH","1","27","1","1","0","1","true","",""
"image-keyboard-response","218","345275","0.0-3.0-6.0-1.0-1.27","5ce158b01d1060001a810a2d","6662009ae78f21dd82fcd179","666207174ed97c869a7fb83b","null","","null","","","","","","","","./tasks/HMM-beads/Images/WhiteBeadChoice.png","","","","","","","","","",""
"image-keyboard-response","219","345776","0.0-3.0-6.0-1.0-2.27","5ce158b01d1060001a810a2d","6662009ae78f21dd82fcd179","666207174ed97c869a7fb83b","null","","null","","","","","","","","./tasks/HMM-beads/Images/WhiteBeadChoiceCorrect.png","","","","","","","","","",""
"image-keyboard-response","220","346140","0.0-3.0-6.0-1.0-0.28","5ce158b01d1060001a810a2d","6662009ae78f21dd82fcd179","666207174ed97c869a7fb83b","365","","j","","","","","","","","./tasks/HMM-beads/Images/NewTrialWC.png","lowH","1","28","1","1","1","1","true","",""
"image-keyboard-response","221","346455","0.0-3.0-6.0-1.0-1.28","5ce158b01d1060001a810a2d","6662009ae78f21dd82fcd179","666207174ed97c869a7fb83b","null","","null","","","","","","","","./tasks/HMM-beads/Images/WhiteBeadChoice.png","","","","","","","","","",""
"image-keyboard-response","222","346991","0.0-3.0-6.0-1.0-2.28","5ce158b01d1060001a810a2d","6662009ae78f21dd82fcd179","666207174ed97c869a7fb83b","null","","null","","","","","","","","./tasks/HMM-beads/Images/WhiteBeadChoiceCorrect.png","","","","","","","","","",""
"image-keyboard-response","223","347244","0.0-3.0-6.0-1.0-0.29","5ce158b01d1060001a810a2d","6662009ae78f21dd82fcd179","666207174ed97c869a7fb83b","254","","j","","","","","","","","./tasks/HMM-beads/Images/NewTrialWC.png","lowH","1","29","1","1","1","1","true","",""
"image-keyboard-response","224","347560","0.0-3.0-6.0-1.0-1.29","5ce158b01d1060001a810a2d","6662009ae78f21dd82fcd179","666207174ed97c869a7fb83b","null","","null","","","","","","","","./tasks/HMM-beads/Images/WhiteBeadChoice.png","","","","","","","","","",""
"image-keyboard-response","225","348062","0.0-3.0-6.0-1.0-2.29","5ce158b01d1060001a810a2d","6662009ae78f21dd82fcd179","666207174ed97c869a7fb83b","null","","null","","","","","","","","./tasks/HMM-beads/Images/WhiteBeadChoiceCorrect.png","","","","","","","","","",""
"image-keyboard-response","226","348389","0.0-3.0-6.0-1.0-0.30","5ce158b01d1060001a810a2d","6662009ae78f21dd82fcd179","666207174ed97c869a7fb83b","327","","j","","","","","","","","./tasks/HMM-beads/Images/NewTrialWC.png","lowH","1","30","1","1","1","1","true","",""
"image-keyboard-response","227","348690","0.0-3.0-6.0-1.0-1.30","5ce158b01d1060001a810a2d","6662009ae78f21dd82fcd179","666207174ed97c869a7fb83b","null","","null","","","","","","","","./tasks/HMM-beads/Images/WhiteBeadChoice.png","","","","","","","","","",""
"image-keyboard-response","228","349196","0.0-3.0-6.0-1.0-2.30","5ce158b01d1060001a810a2d","6662009ae78f21dd82fcd179","666207174ed97c869a7fb83b","null","","null","","","","","","","","./tasks/HMM-beads/Images/WhiteBeadChoiceCorrect.png","","","","","","","","","",""
"image-keyboard-response","229","349492","0.0-3.0-6.0-1.0-0.31","5ce158b01d1060001a810a2d","6662009ae78f21dd82fcd179","666207174ed97c869a7fb83b","296","","j","","","","","","","","./tasks/HMM-beads/Images/NewTrialWC.png","lowH","1","31","1","1","1","1","true","",""
"image-keyboard-response","230","349800","0.0-3.0-6.0-1.0-1.31","5ce158b01d1060001a810a2d","6662009ae78f21dd82fcd179","666207174ed97c869a7fb83b","null","","null","","","","","","","","./tasks/HMM-beads/Images/WhiteBeadChoice.png","","","","","","","","","",""
"image-keyboard-response","231","350306","0.0-3.0-6.0-1.0-2.31","5ce158b01d1060001a810a2d","6662009ae78f21dd82fcd179","666207174ed97c869a7fb83b","null","","null","","","","","","","","./tasks/HMM-beads/Images/WhiteBeadChoiceCorrect.png","","","","","","","","","",""
"image-keyboard-response","232","350541","0.0-3.0-6.0-1.0-0.32","5ce158b01d1060001a810a2d","6662009ae78f21dd82fcd179","666207174ed97c869a7fb83b","235","","j","","","","","","","","./tasks/HMM-beads/Images/NewTrialWC.png","lowH","1","32","1","1","1","1","true","",""
"image-keyboard-response","233","350842","0.0-3.0-6.0-1.0-1.32","5ce158b01d1060001a810a2d","6662009ae78f21dd82fcd179","666207174ed97c869a7fb83b","null","","null","","","","","","","","./tasks/HMM-beads/Images/WhiteBeadChoice.png","","","","","","","","","",""
"image-keyboard-response","234","351347","0.0-3.0-6.0-1.0-2.32","5ce158b01d1060001a810a2d","6662009ae78f21dd82fcd179","666207174ed97c869a7fb83b","null","","null","","","","","","","","./tasks/HMM-beads/Images/WhiteBeadChoiceCorrect.png","","","","","","","","","",""
"image-keyboard-response","235","351676","0.0-3.0-6.0-1.0-0.33","5ce158b01d1060001a810a2d","6662009ae78f21dd82fcd179","666207174ed97c869a7fb83b","329","","j","","","","","","","","./tasks/HMM-beads/Images/NewTrialWC.png","lowH","1","33","1","1","1","1","true","",""
"image-keyboard-response","236","351980","0.0-3.0-6.0-1.0-1.33","5ce158b01d1060001a810a2d","6662009ae78f21dd82fcd179","666207174ed97c869a7fb83b","null","","null","","","","","","","","./tasks/HMM-beads/Images/WhiteBeadChoice.png","","","","","","","","","",""
"image-keyboard-response","237","352484","0.0-3.0-6.0-1.0-2.33","5ce158b01d1060001a810a2d","6662009ae78f21dd82fcd179","666207174ed97c869a7fb83b","null","","null","","","","","","","","./tasks/HMM-beads/Images/WhiteBeadChoiceCorrect.png","","","","","","","","","",""
"image-keyboard-response","238","352724","0.0-3.0-6.0-1.0-0.34","5ce158b01d1060001a810a2d","6662009ae78f21dd82fcd179","666207174ed97c869a7fb83b","240","","j","","","","","","","","./tasks/HMM-beads/Images/NewTrialWC.png","lowH","1","34","1","1","1","1","true","",""
"image-keyboard-response","239","353039","0.0-3.0-6.0-1.0-1.34","5ce158b01d1060001a810a2d","6662009ae78f21dd82fcd179","666207174ed97c869a7fb83b","null","","null","","","","","","","","./tasks/HMM-beads/Images/WhiteBeadChoice.png","","","","","","","","","",""
"image-keyboard-response","240","353544","0.0-3.0-6.0-1.0-2.34","5ce158b01d1060001a810a2d","6662009ae78f21dd82fcd179","666207174ed97c869a7fb83b","null","","null","","","","","","","","./tasks/HMM-beads/Images/WhiteBeadChoiceCorrect.png","","","","","","","","","",""
"image-keyboard-response","241","353764","0.0-3.0-6.0-1.0-0.35","5ce158b01d1060001a810a2d","6662009ae78f21dd82fcd179","666207174ed97c869a7fb83b","221","","j","","","","","","","","./tasks/HMM-beads/Images/NewTrialWC.png","lowH","1","35","1","1","1","1","true","",""
"image-keyboard-response","242","354080","0.0-3.0-6.0-1.0-1.35","5ce158b01d1060001a810a2d","6662009ae78f21dd82fcd179","666207174ed97c869a7fb83b","null","","null","","","","","","","","./tasks/HMM-beads/Images/WhiteBeadChoice.png","","","","","","","","","",""
"image-keyboard-response","243","354584","0.0-3.0-6.0-1.0-2.35","5ce158b01d1060001a810a2d","6662009ae78f21dd82fcd179","666207174ed97c869a7fb83b","null","","null","","","","","","","","./tasks/HMM-beads/Images/WhiteBeadChoiceCorrect.png","","","","","","","","","",""
"image-keyboard-response","244","354805","0.0-3.0-6.0-1.0-0.36","5ce158b01d1060001a810a2d","6662009ae78f21dd82fcd179","666207174ed97c869a7fb83b","220","","j","","","","","","","","./tasks/HMM-beads/Images/NewTrialWC.png","lowH","1","36","1","1","1","1","true","",""
"image-keyboard-response","245","355118","0.0-3.0-6.0-1.0-1.36","5ce158b01d1060001a810a2d","6662009ae78f21dd82fcd179","666207174ed97c869a7fb83b","null","","null","","","","","","","","./tasks/HMM-beads/Images/WhiteBeadChoice.png","","","","","","","","","",""
"image-keyboard-response","246","355623","0.0-3.0-6.0-1.0-2.36","5ce158b01d1060001a810a2d","6662009ae78f21dd82fcd179","666207174ed97c869a7fb83b","null","","null","","","","","","","","./tasks/HMM-beads/Images/WhiteBeadChoiceCorrect.png","","","","","","","","","",""
"image-keyboard-response","247","355885","0.0-3.0-6.0-1.0-0.37","5ce158b01d1060001a810a2d","6662009ae78f21dd82fcd179","666207174ed97c869a7fb83b","261","","j","","","","","","","","./tasks/HMM-beads/Images/NewTrialWC.png","lowH","1","37","1","1","1","1","true","",""
"image-keyboard-response","248","356191","0.0-3.0-6.0-1.0-1.37","5ce158b01d1060001a810a2d","6662009ae78f21dd82fcd179","666207174ed97c869a7fb83b","null","","null","","","","","","","","./tasks/HMM-beads/Images/WhiteBeadChoice.png","","","","","","","","","",""
"image-keyboard-response","249","356763","0.0-3.0-6.0-1.0-2.37","5ce158b01d1060001a810a2d","6662009ae78f21dd82fcd179","666207174ed97c869a7fb83b","null","","null","","","","","","","","./tasks/HMM-beads/Images/WhiteBeadChoiceCorrect.png","","","","","","","","","",""
"image-keyboard-response","250","356941","0.0-3.0-6.0-1.0-0.38","5ce158b01d1060001a810a2d","6662009ae78f21dd82fcd179","666207174ed97c869a7fb83b","176","","j","","","","","","","","./tasks/HMM-beads/Images/NewTrialWC.png","lowH","1","38","1","1","1","1","true","",""
"image-keyboard-response","251","357251","0.0-3.0-6.0-1.0-1.38","5ce158b01d1060001a810a2d","6662009ae78f21dd82fcd179","666207174ed97c869a7fb83b","null","","null","","","","","","","","./tasks/HMM-beads/Images/WhiteBeadChoice.png","","","","","","","","","",""
"image-keyboard-response","252","357765","0.0-3.0-6.0-1.0-2.38","5ce158b01d1060001a810a2d","6662009ae78f21dd82fcd179","666207174ed97c869a7fb83b","null","","null","","","","","","","","./tasks/HMM-beads/Images/WhiteBeadChoiceCorrect.png","","","","","","","","","",""
"image-keyboard-response","253","358045","0.0-3.0-6.0-1.0-0.39","5ce158b01d1060001a810a2d","6662009ae78f21dd82fcd179","666207174ed97c869a7fb83b","280","","j","","","","","","","","./tasks/HMM-beads/Images/NewTrialWC.png","lowH","1","39","1","1","1","1","true","",""
"image-keyboard-response","254","358347","0.0-3.0-6.0-1.0-1.39","5ce158b01d1060001a810a2d","6662009ae78f21dd82fcd179","666207174ed97c869a7fb83b","null","","null","","","","","","","","./tasks/HMM-beads/Images/WhiteBeadChoice.png","","","","","","","","","",""
"image-keyboard-response","255","358854","0.0-3.0-6.0-1.0-2.39","5ce158b01d1060001a810a2d","6662009ae78f21dd82fcd179","666207174ed97c869a7fb83b","null","","null","","","","","","","","./tasks/HMM-beads/Images/WhiteBeadChoiceCorrect.png","","","","","","","","","",""
"image-keyboard-response","256","359101","0.0-3.0-6.0-1.0-0.40","5ce158b01d1060001a810a2d","6662009ae78f21dd82fcd179","666207174ed97c869a7fb83b","247","","j","","","","","","","","./tasks/HMM-beads/Images/NewTrialWC.png","lowH","1","40","1","1","1","1","true","",""
"image-keyboard-response","257","359407","0.0-3.0-6.0-1.0-1.40","5ce158b01d1060001a810a2d","6662009ae78f21dd82fcd179","666207174ed97c869a7fb83b","null","","null","","","","","","","","./tasks/HMM-beads/Images/WhiteBeadChoice.png","","","","","","","","","",""
"image-keyboard-response","258","359911","0.0-3.0-6.0-1.0-2.40","5ce158b01d1060001a810a2d","6662009ae78f21dd82fcd179","666207174ed97c869a7fb83b","null","","null","","","","","","","","./tasks/HMM-beads/Images/WhiteBeadChoiceCorrect.png","","","","","","","","","",""
"image-keyboard-response","259","360221","0.0-3.0-6.0-1.0-0.41","5ce158b01d1060001a810a2d","6662009ae78f21dd82fcd179","666207174ed97c869a7fb83b","309","","j","","","","","","","","./tasks/HMM-beads/Images/NewTrialWC.png","lowH","1","41","1","1","1","1","true","",""
"image-keyboard-response","260","360526","0.0-3.0-6.0-1.0-1.41","5ce158b01d1060001a810a2d","6662009ae78f21dd82fcd179","666207174ed97c869a7fb83b","null","","null","","","","","","","","./tasks/HMM-beads/Images/WhiteBeadChoice.png","","","","","","","","","",""
"image-keyboard-response","261","361032","0.0-3.0-6.0-1.0-2.41","5ce158b01d1060001a810a2d","6662009ae78f21dd82fcd179","666207174ed97c869a7fb83b","null","","null","","","","","","","","./tasks/HMM-beads/Images/WhiteBeadChoiceCorrect.png","","","","","","","","","",""
"image-keyboard-response","262","361253","0.0-3.0-6.0-1.0-0.42","5ce158b01d1060001a810a2d","6662009ae78f21dd82fcd179","666207174ed97c869a7fb83b","221","","j","","","","","","","","./tasks/HMM-beads/Images/NewTrialWC.png","lowH","1","42","1","1","1","1","true","",""
"image-keyboard-response","263","361568","0.0-3.0-6.0-1.0-1.42","5ce158b01d1060001a810a2d","6662009ae78f21dd82fcd179","666207174ed97c869a7fb83b","null","","null","","","","","","","","./tasks/HMM-beads/Images/WhiteBeadChoice.png","","","","","","","","","",""
"image-keyboard-response","264","362076","0.0-3.0-6.0-1.0-2.42","5ce158b01d1060001a810a2d","6662009ae78f21dd82fcd179","666207174ed97c869a7fb83b","null","","null","","","","","","","","./tasks/HMM-beads/Images/WhiteBeadChoiceCorrect.png","","","","","","","","","",""
"image-keyboard-response","265","362357","0.0-3.0-6.0-1.0-0.43","5ce158b01d1060001a810a2d","6662009ae78f21dd82fcd179","666207174ed97c869a7fb83b","280","","j","","","","","","","","./tasks/HMM-beads/Images/NewTrialWC.png","lowH","1","43","1","1","1","1","true","",""
"image-keyboard-response","266","362663","0.0-3.0-6.0-1.0-1.43","5ce158b01d1060001a810a2d","6662009ae78f21dd82fcd179","666207174ed97c869a7fb83b","null","","null","","","","","","","","./tasks/HMM-beads/Images/WhiteBeadChoice.png","","","","","","","","","",""
"image-keyboard-response","267","363211","0.0-3.0-6.0-1.0-2.43","5ce158b01d1060001a810a2d","6662009ae78f21dd82fcd179","666207174ed97c869a7fb83b","null","","null","","","","","","","","./tasks/HMM-beads/Images/WhiteBeadChoiceCorrect.png","","","","","","","","","",""
"image-keyboard-response","268","363397","0.0-3.0-6.0-1.0-0.44","5ce158b01d1060001a810a2d","6662009ae78f21dd82fcd179","666207174ed97c869a7fb83b","185","","j","","","","","","","","./tasks/HMM-beads/Images/NewTrialWC.png","lowH","1","44","1","1","1","1","true","",""
"image-keyboard-response","269","363700","0.0-3.0-6.0-1.0-1.44","5ce158b01d1060001a810a2d","6662009ae78f21dd82fcd179","666207174ed97c869a7fb83b","null","","null","","","","","","","","./tasks/HMM-beads/Images/WhiteBeadChoice.png","","","","","","","","","",""
"image-keyboard-response","270","364200","0.0-3.0-6.0-1.0-2.44","5ce158b01d1060001a810a2d","6662009ae78f21dd82fcd179","666207174ed97c869a7fb83b","null","","null","","","","","","","","./tasks/HMM-beads/Images/WhiteBeadChoiceCorrect.png","","","","","","","","","",""
"image-keyboard-response","271","364476","0.0-3.0-6.0-1.0-0.45","5ce158b01d1060001a810a2d","6662009ae78f21dd82fcd179","666207174ed97c869a7fb83b","277","","j","","","","","","","","./tasks/HMM-beads/Images/NewTrialWC.png","lowH","1","45","1","1","1","1","true","",""
"image-keyboard-response","272","364784","0.0-3.0-6.0-1.0-1.45","5ce158b01d1060001a810a2d","6662009ae78f21dd82fcd179","666207174ed97c869a7fb83b","null","","null","","","","","","","","./tasks/HMM-beads/Images/WhiteBeadChoice.png","","","","","","","","","",""
"image-keyboard-response","273","365289","0.0-3.0-6.0-1.0-2.45","5ce158b01d1060001a810a2d","6662009ae78f21dd82fcd179","666207174ed97c869a7fb83b","null","","null","","","","","","","","./tasks/HMM-beads/Images/WhiteBeadChoiceCorrect.png","","","","","","","","","",""
"image-keyboard-response","274","365517","0.0-3.0-6.0-1.0-0.46","5ce158b01d1060001a810a2d","6662009ae78f21dd82fcd179","666207174ed97c869a7fb83b","228","","j","","","","","","","","./tasks/HMM-beads/Images/NewTrialWC.png","lowH","1","46","1","1","1","1","true","",""
"image-keyboard-response","275","365842","0.0-3.0-6.0-1.0-1.46","5ce158b01d1060001a810a2d","6662009ae78f21dd82fcd179","666207174ed97c869a7fb83b","null","","null","","","","","","","","./tasks/HMM-beads/Images/WhiteBeadChoice.png","","","","","","","","","",""
"image-keyboard-response","276","366347","0.0-3.0-6.0-1.0-2.46","5ce158b01d1060001a810a2d","6662009ae78f21dd82fcd179","666207174ed97c869a7fb83b","null","","null","","","","","","","","./tasks/HMM-beads/Images/WhiteBeadChoiceCorrect.png","","","","","","","","","",""
"image-keyboard-response","277","366628","0.0-3.0-6.0-1.0-0.47","5ce158b01d1060001a810a2d","6662009ae78f21dd82fcd179","666207174ed97c869a7fb83b","281","","j","","","","","","","","./tasks/HMM-beads/Images/NewTrialWC.png","lowH","1","47","1","0","1","1","false","",""
"image-keyboard-response","278","366931","0.0-3.0-6.0-1.0-1.47","5ce158b01d1060001a810a2d","6662009ae78f21dd82fcd179","666207174ed97c869a7fb83b","null","","null","","","","","","","","./tasks/HMM-beads/Images/WhiteBeadChoice.png","","","","","","","","","",""
"image-keyboard-response","279","367440","0.0-3.0-6.0-1.0-2.47","5ce158b01d1060001a810a2d","6662009ae78f21dd82fcd179","666207174ed97c869a7fb83b","null","","null","","","","","","","","./tasks/HMM-beads/Images/WhiteBeadChoiceWrong.png","","","","","","","","","",""
"image-keyboard-response","280","367765","0.0-3.0-6.0-1.0-0.48","5ce158b01d1060001a810a2d","6662009ae78f21dd82fcd179","666207174ed97c869a7fb83b","325","","j","","","","","","","","./tasks/HMM-beads/Images/NewTrialBC.png","lowH","1","48","1","0","0","1","false","",""
"image-keyboard-response","281","368071","0.0-3.0-6.0-1.0-1.48","5ce158b01d1060001a810a2d","6662009ae78f21dd82fcd179","666207174ed97c869a7fb83b","null","","null","","","","","","","","./tasks/HMM-beads/Images/WhiteBeadChoice.png","","","","","","","","","",""
"image-keyboard-response","282","368573","0.0-3.0-6.0-1.0-2.48","5ce158b01d1060001a810a2d","6662009ae78f21dd82fcd179","666207174ed97c869a7fb83b","null","","null","","","","","","","","./tasks/HMM-beads/Images/WhiteBeadChoiceWrong.png","","","","","","","","","",""
"image-keyboard-response","283","368813","0.0-3.0-6.0-1.0-0.49","5ce158b01d1060001a810a2d","6662009ae78f21dd82fcd179","666207174ed97c869a7fb83b","238","","j","","","","","","","","./tasks/HMM-beads/Images/NewTrialBC.png","lowH","1","49","1","0","0","1","false","",""
"image-keyboard-response","284","369125","0.0-3.0-6.0-1.0-1.49","5ce158b01d1060001a810a2d","6662009ae78f21dd82fcd179","666207174ed97c869a7fb83b","null","","null","","","","","","","","./tasks/HMM-beads/Images/WhiteBeadChoice.png","","","","","","","","","",""
"image-keyboard-response","285","369631","0.0-3.0-6.0-1.0-2.49","5ce158b01d1060001a810a2d","6662009ae78f21dd82fcd179","666207174ed97c869a7fb83b","null","","null","","","","","","","","./tasks/HMM-beads/Images/WhiteBeadChoiceWrong.png","","","","","","","","","",""
"image-keyboard-response","286","370157","0.0-3.0-6.0-1.0-0.50","5ce158b01d1060001a810a2d","6662009ae78f21dd82fcd179","666207174ed97c869a7fb83b","525","","f","","","","","","","","./tasks/HMM-beads/Images/NewTrialBC.png","lowH","1","50","1","1","0","0","false","",""
"image-keyboard-response","287","370469","0.0-3.0-6.0-1.0-1.50","5ce158b01d1060001a810a2d","6662009ae78f21dd82fcd179","666207174ed97c869a7fb83b","null","","null","","","","","","","","./tasks/HMM-beads/Images/BlackBeadChoice.png","","","","","","","","","",""
"image-keyboard-response","288","370974","0.0-3.0-6.0-1.0-2.50","5ce158b01d1060001a810a2d","6662009ae78f21dd82fcd179","666207174ed97c869a7fb83b","null","","null","","","","","","","","./tasks/HMM-beads/Images/BlackBeadChoiceWrong.png","","","","","","","","","",""
"image-keyboard-response","289","371308","0.0-3.0-6.0-1.0-0.51","5ce158b01d1060001a810a2d","6662009ae78f21dd82fcd179","666207174ed97c869a7fb83b","334","","f","","","","","","","","./tasks/HMM-beads/Images/NewTrialWC.png","lowH","1","51","1","1","1","0","false","",""
"image-keyboard-response","290","371622","0.0-3.0-6.0-1.0-1.51","5ce158b01d1060001a810a2d","6662009ae78f21dd82fcd179","666207174ed97c869a7fb83b","null","","null","","","","","","","","./tasks/HMM-beads/Images/BlackBeadChoice.png","","","","","","","","","",""
"image-keyboard-response","291","372128","0.0-3.0-6.0-1.0-2.51","5ce158b01d1060001a810a2d","6662009ae78f21dd82fcd179","666207174ed97c869a7fb83b","null","","null","","","","","","","","./tasks/HMM-beads/Images/BlackBeadChoiceWrong.png","","","","","","","","","",""
"image-keyboard-response","292","372461","0.0-3.0-6.0-1.0-0.52","5ce158b01d1060001a810a2d","6662009ae78f21dd82fcd179","666207174ed97c869a7fb83b","332","","j","","","","","","","","./tasks/HMM-beads/Images/NewTrialWC.png","lowH","1","52","1","1","1","1","true","",""
"image-keyboard-response","293","372774","0.0-3.0-6.0-1.0-1.52","5ce158b01d1060001a810a2d","6662009ae78f21dd82fcd179","666207174ed97c869a7fb83b","null","","null","","","","","","","","./tasks/HMM-beads/Images/WhiteBeadChoice.png","","","","","","","","","",""
"image-keyboard-response","294","373278","0.0-3.0-6.0-1.0-2.52","5ce158b01d1060001a810a2d","6662009ae78f21dd82fcd179","666207174ed97c869a7fb83b","null","","null","","","","","","","","./tasks/HMM-beads/Images/WhiteBeadChoiceCorrect.png","","","","","","","","","",""
"image-keyboard-response","295","373557","0.0-3.0-6.0-1.0-0.53","5ce158b01d1060001a810a2d","6662009ae78f21dd82fcd179","666207174ed97c869a7fb83b","278","","j","","","","","","","","./tasks/HMM-beads/Images/NewTrialWC.png","lowH","1","53","1","1","1","1","true","",""
"image-keyboard-response","296","373867","0.0-3.0-6.0-1.0-1.53","5ce158b01d1060001a810a2d","6662009ae78f21dd82fcd179","666207174ed97c869a7fb83b","null","","null","","","","","","","","./tasks/HMM-beads/Images/WhiteBeadChoice.png","","","","","","","","","",""
"image-keyboard-response","297","374375","0.0-3.0-6.0-1.0-2.53","5ce158b01d1060001a810a2d","6662009ae78f21dd82fcd179","666207174ed97c869a7fb83b","null","","null","","","","","","","","./tasks/HMM-beads/Images/WhiteBeadChoiceCorrect.png","","","","","","","","","",""
"image-keyboard-response","298","374669","0.0-3.0-6.0-1.0-0.54","5ce158b01d1060001a810a2d","6662009ae78f21dd82fcd179","666207174ed97c869a7fb83b","294","","j","","","","","","","","./tasks/HMM-beads/Images/NewTrialWC.png","lowH","1","54","1","1","1","1","true","",""
"image-keyboard-response","299","374971","0.0-3.0-6.0-1.0-1.54","5ce158b01d1060001a810a2d","6662009ae78f21dd82fcd179","666207174ed97c869a7fb83b","null","","null","","","","","","","","./tasks/HMM-beads/Images/WhiteBeadChoice.png","","","","","","","","","",""
"image-keyboard-response","300","375478","0.0-3.0-6.0-1.0-2.54","5ce158b01d1060001a810a2d","6662009ae78f21dd82fcd179","666207174ed97c869a7fb83b","null","","null","","","","","","","","./tasks/HMM-beads/Images/WhiteBeadChoiceCorrect.png","","","","","","","","","",""
"image-keyboard-response","301","375702","0.0-3.0-6.0-1.0-0.55","5ce158b01d1060001a810a2d","6662009ae78f21dd82fcd179","666207174ed97c869a7fb83b","224","","j","","","","","","","","./tasks/HMM-beads/Images/NewTrialWC.png","lowH","1","55","1","1","1","1","true","",""
"image-keyboard-response","302","376015","0.0-3.0-6.0-1.0-1.55","5ce158b01d1060001a810a2d","6662009ae78f21dd82fcd179","666207174ed97c869a7fb83b","null","","null","","","","","","","","./tasks/HMM-beads/Images/WhiteBeadChoice.png","","","","","","","","","",""
"image-keyboard-response","303","376522","0.0-3.0-6.0-1.0-2.55","5ce158b01d1060001a810a2d","6662009ae78f21dd82fcd179","666207174ed97c869a7fb83b","null","","null","","","","","","","","./tasks/HMM-beads/Images/WhiteBeadChoiceCorrect.png","","","","","","","","","",""
"image-keyboard-response","304","376789","0.0-3.0-6.0-1.0-0.56","5ce158b01d1060001a810a2d","6662009ae78f21dd82fcd179","666207174ed97c869a7fb83b","266","","j","","","","","","","","./tasks/HMM-beads/Images/NewTrialWC.png","lowH","1","56","1","1","1","1","true","",""
"image-keyboard-response","305","377090","0.0-3.0-6.0-1.0-1.56","5ce158b01d1060001a810a2d","6662009ae78f21dd82fcd179","666207174ed97c869a7fb83b","null","","null","","","","","","","","./tasks/HMM-beads/Images/WhiteBeadChoice.png","","","","","","","","","",""
"image-keyboard-response","306","377594","0.0-3.0-6.0-1.0-2.56","5ce158b01d1060001a810a2d","6662009ae78f21dd82fcd179","666207174ed97c869a7fb83b","null","","null","","","","","","","","./tasks/HMM-beads/Images/WhiteBeadChoiceCorrect.png","","","","","","","","","",""
"image-keyboard-response","307","377837","0.0-3.0-6.0-1.0-0.57","5ce158b01d1060001a810a2d","6662009ae78f21dd82fcd179","666207174ed97c869a7fb83b","242","","j","","","","","","","","./tasks/HMM-beads/Images/NewTrialWC.png","lowH","1","57","1","1","1","1","true","",""
"image-keyboard-response","308","378147","0.0-3.0-6.0-1.0-1.57","5ce158b01d1060001a810a2d","6662009ae78f21dd82fcd179","666207174ed97c869a7fb83b","null","","null","","","","","","","","./tasks/HMM-beads/Images/WhiteBeadChoice.png","","","","","","","","","",""
"image-keyboard-response","309","378653","0.0-3.0-6.0-1.0-2.57","5ce158b01d1060001a810a2d","6662009ae78f21dd82fcd179","666207174ed97c869a7fb83b","null","","null","","","","","","","","./tasks/HMM-beads/Images/WhiteBeadChoiceCorrect.png","","","","","","","","","",""
"image-keyboard-response","310","378893","0.0-3.0-6.0-1.0-0.58","5ce158b01d1060001a810a2d","6662009ae78f21dd82fcd179","666207174ed97c869a7fb83b","238","","j","","","","","","","","./tasks/HMM-beads/Images/NewTrialWC.png","lowH","1","58","1","1","1","1","true","",""
"image-keyboard-response","311","379206","0.0-3.0-6.0-1.0-1.58","5ce158b01d1060001a810a2d","6662009ae78f21dd82fcd179","666207174ed97c869a7fb83b","null","","null","","","","","","","","./tasks/HMM-beads/Images/WhiteBeadChoice.png","","","","","","","","","",""
"image-keyboard-response","312","379714","0.0-3.0-6.0-1.0-2.58","5ce158b01d1060001a810a2d","6662009ae78f21dd82fcd179","666207174ed97c869a7fb83b","null","","null","","","","","","","","./tasks/HMM-beads/Images/WhiteBeadChoiceCorrect.png","","","","","","","","","",""
"image-keyboard-response","313","379877","0.0-3.0-6.0-1.0-0.59","5ce158b01d1060001a810a2d","6662009ae78f21dd82fcd179","666207174ed97c869a7fb83b","162","","j","","","","","","","","./tasks/HMM-beads/Images/NewTrialWC.png","lowH","1","59","1","0","1","1","false","",""
"image-keyboard-response","314","380188","0.0-3.0-6.0-1.0-1.59","5ce158b01d1060001a810a2d","6662009ae78f21dd82fcd179","666207174ed97c869a7fb83b","null","","null","","","","","","","","./tasks/HMM-beads/Images/WhiteBeadChoice.png","","","","","","","","","",""
"image-keyboard-response","315","380694","0.0-3.0-6.0-1.0-2.59","5ce158b01d1060001a810a2d","6662009ae78f21dd82fcd179","666207174ed97c869a7fb83b","null","","null","","","","","","","","./tasks/HMM-beads/Images/WhiteBeadChoiceWrong.png","","","","","","","","","",""
"image-keyboard-response","316","381253","0.0-3.0-6.0-1.0-0.60","5ce158b01d1060001a810a2d","6662009ae78f21dd82fcd179","666207174ed97c869a7fb83b","559","","j","","","","","","","","./tasks/HMM-beads/Images/NewTrialBC.png","lowH","1","60","1","1","0","1","true","",""
"image-keyboard-response","317","381561","0.0-3.0-6.0-1.0-1.60","5ce158b01d1060001a810a2d","6662009ae78f21dd82fcd179","666207174ed97c869a7fb83b","null","","null","","","","","","","","./tasks/HMM-beads/Images/WhiteBeadChoice.png","","","","","","","","","",""
"image-keyboard-response","318","382067","0.0-3.0-6.0-1.0-2.60","5ce158b01d1060001a810a2d","6662009ae78f21dd82fcd179","666207174ed97c869a7fb83b","null","","null","","","","","","","","./tasks/HMM-beads/Images/WhiteBeadChoiceCorrect.png","","","","","","","","","",""
"image-keyboard-response","319","382325","0.0-3.0-6.0-1.0-0.61","5ce158b01d1060001a810a2d","6662009ae78f21dd82fcd179","666207174ed97c869a7fb83b","256","","j","","","","","","","","./tasks/HMM-beads/Images/NewTrialWC.png","lowH","1","61","1","1","1","1","true","",""
"image-keyboard-response","320","382636","0.0-3.0-6.0-1.0-1.61","5ce158b01d1060001a810a2d","6662009ae78f21dd82fcd179","666207174ed97c869a7fb83b","null","","null","","","","","","","","./tasks/HMM-beads/Images/WhiteBeadChoice.png","","","","","","","","","",""
"image-keyboard-response","321","383140","0.0-3.0-6.0-1.0-2.61","5ce158b01d1060001a810a2d","6662009ae78f21dd82fcd179","666207174ed97c869a7fb83b","null","","null","","","","","","","","./tasks/HMM-beads/Images/WhiteBeadChoiceCorrect.png","","","","","","","","","",""
"image-keyboard-response","322","383333","0.0-3.0-6.0-1.0-0.62","5ce158b01d1060001a810a2d","6662009ae78f21dd82fcd179","666207174ed97c869a7fb83b","192","","j","","","","","","","","./tasks/HMM-beads/Images/NewTrialWC.png","lowH","1","62","1","0","1","1","false","",""
"image-keyboard-response","323","383645","0.0-3.0-6.0-1.0-1.62","5ce158b01d1060001a810a2d","6662009ae78f21dd82fcd179","666207174ed97c869a7fb83b","null","","null","","","","","","","","./tasks/HMM-beads/Images/WhiteBeadChoice.png","","","","","","","","","",""
"image-keyboard-response","324","384152","0.0-3.0-6.0-1.0-2.62","5ce158b01d1060001a810a2d","6662009ae78f21dd82fcd179","666207174ed97c869a7fb83b","null","","null","","","","","","","","./tasks/HMM-beads/Images/WhiteBeadChoiceWrong.png","","","","","","","","","",""
"image-keyboard-response","325","384421","0.0-3.0-6.0-1.0-0.63","5ce158b01d1060001a810a2d","6662009ae78f21dd82fcd179","666207174ed97c869a7fb83b","269","","j","","","","","","","","./tasks/HMM-beads/Images/NewTrialBC.png","lowH","1","63","1","1","0","1","true","",""
"image-keyboard-response","326","384729","0.0-3.0-6.0-1.0-1.63","5ce158b01d1060001a810a2d","6662009ae78f21dd82fcd179","666207174ed97c869a7fb83b","null","","null","","","","","","","","./tasks/HMM-beads/Images/WhiteBeadChoice.png","","","","","","","","","",""
"image-keyboard-response","327","385235","0.0-3.0-6.0-1.0-2.63","5ce158b01d1060001a810a2d","6662009ae78f21dd82fcd179","666207174ed97c869a7fb83b","null","","null","","","","","","","","./tasks/HMM-beads/Images/WhiteBeadChoiceCorrect.png","","","","","","","","","",""
"image-keyboard-response","328","385501","0.0-3.0-6.0-1.0-0.64","5ce158b01d1060001a810a2d","6662009ae78f21dd82fcd179","666207174ed97c869a7fb83b","265","","j","","","","","","","","./tasks/HMM-beads/Images/NewTrialWC.png","lowH","1","64","1","1","1","1","true","",""
"image-keyboard-response","329","385806","0.0-3.0-6.0-1.0-1.64","5ce158b01d1060001a810a2d","6662009ae78f21dd82fcd179","666207174ed97c869a7fb83b","null","","null","","","","","","","","./tasks/HMM-beads/Images/WhiteBeadChoice.png","","","","","","","","","",""
"image-keyboard-response","330","386309","0.0-3.0-6.0-1.0-2.64","5ce158b01d1060001a810a2d","6662009ae78f21dd82fcd179","666207174ed97c869a7fb83b","null","","null","","","","","","","","./tasks/HMM-beads/Images/WhiteBeadChoiceCorrect.png","","","","","","","","","",""
"image-keyboard-response","331","386597","0.0-3.0-6.0-1.0-0.65","5ce158b01d1060001a810a2d","6662009ae78f21dd82fcd179","666207174ed97c869a7fb83b","287","","j","","","","","","","","./tasks/HMM-beads/Images/NewTrialWC.png","lowH","1","65","1","1","1","1","true","",""
"image-keyboard-response","332","386909","0.0-3.0-6.0-1.0-1.65","5ce158b01d1060001a810a2d","6662009ae78f21dd82fcd179","666207174ed97c869a7fb83b","null","","null","","","","","","","","./tasks/HMM-beads/Images/WhiteBeadChoice.png","","","","","","","","","",""
"image-keyboard-response","333","387413","0.0-3.0-6.0-1.0-2.65","5ce158b01d1060001a810a2d","6662009ae78f21dd82fcd179","666207174ed97c869a7fb83b","null","","null","","","","","","","","./tasks/HMM-beads/Images/WhiteBeadChoiceCorrect.png","","","","","","","","","",""
"image-keyboard-response","334","387645","0.0-3.0-6.0-1.0-0.66","5ce158b01d1060001a810a2d","6662009ae78f21dd82fcd179","666207174ed97c869a7fb83b","231","","j","","","","","","","","./tasks/HMM-beads/Images/NewTrialWC.png","lowH","1","66","1","1","1","1","true","",""
"image-keyboard-response","335","387950","0.0-3.0-6.0-1.0-1.66","5ce158b01d1060001a810a2d","6662009ae78f21dd82fcd179","666207174ed97c869a7fb83b","null","","null","","","","","","","","./tasks/HMM-beads/Images/WhiteBeadChoice.png","","","","","","","","","",""
"image-keyboard-response","336","388455","0.0-3.0-6.0-1.0-2.66","5ce158b01d1060001a810a2d","6662009ae78f21dd82fcd179","666207174ed97c869a7fb83b","null","","null","","","","","","","","./tasks/HMM-beads/Images/WhiteBeadChoiceCorrect.png","","","","","","","","","",""
"image-keyboard-response","337","388629","0.0-3.0-6.0-1.0-0.67","5ce158b01d1060001a810a2d","6662009ae78f21dd82fcd179","666207174ed97c869a7fb83b","172","","j","","","","","","","","./tasks/HMM-beads/Images/NewTrialWC.png","lowH","1","67","1","0","1","1","false","",""
"image-keyboard-response","338","388930","0.0-3.0-6.0-1.0-1.67","5ce158b01d1060001a810a2d","6662009ae78f21dd82fcd179","666207174ed97c869a7fb83b","null","","null","","","","","","","","./tasks/HMM-beads/Images/WhiteBeadChoice.png","","","","","","","","","",""
"image-keyboard-response","339","389434","0.0-3.0-6.0-1.0-2.67","5ce158b01d1060001a810a2d","6662009ae78f21dd82fcd179","666207174ed97c869a7fb83b","null","","null","","","","","","","","./tasks/HMM-beads/Images/WhiteBeadChoiceWrong.png","","","","","","","","","",""
"image-keyboard-response","340","389717","0.0-3.0-6.0-1.0-0.68","5ce158b01d1060001a810a2d","6662009ae78f21dd82fcd179","666207174ed97c869a7fb83b","281","","j","","","","","","","","./tasks/HMM-beads/Images/NewTrialBC.png","lowH","1","68","1","1","0","1","true","",""
"image-keyboard-response","341","390019","0.0-3.0-6.0-1.0-1.68","5ce158b01d1060001a810a2d","6662009ae78f21dd82fcd179","666207174ed97c869a7fb83b","null","","null","","","","","","","","./tasks/HMM-beads/Images/WhiteBeadChoice.png","","","","","","","","","",""
"image-keyboard-response","342","390520","0.0-3.0-6.0-1.0-2.68","5ce158b01d1060001a810a2d","6662009ae78f21dd82fcd179","666207174ed97c869a7fb83b","null","","null","","","","","","","","./tasks/HMM-beads/Images/WhiteBeadChoiceCorrect.png","","","","","","","","","",""
"image-keyboard-response","343","390693","0.0-3.0-6.0-1.0-0.69","5ce158b01d1060001a810a2d","6662009ae78f21dd82fcd179","666207174ed97c869a7fb83b","172","","j","","","","","","","","./tasks/HMM-beads/Images/NewTrialWC.png","lowH","1","69","0","1","1","1","true","",""
"image-keyboard-response","344","391008","0.0-3.0-6.0-1.0-1.69","5ce158b01d1060001a810a2d","6662009ae78f21dd82fcd179","666207174ed97c869a7fb83b","null","","null","","","","","","","","./tasks/HMM-beads/Images/WhiteBeadChoice.png","","","","","","","","","",""
"image-keyboard-response","345","391514","0.0-3.0-6.0-1.0-2.69","5ce158b01d1060001a810a2d","6662009ae78f21dd82fcd179","666207174ed97c869a7fb83b","null","","null","","","","","","","","./tasks/HMM-beads/Images/WhiteBeadChoiceCorrect.png","","","","","","","","","",""
"image-keyboard-response","346","391725","0.0-3.0-6.0-1.0-0.70","5ce158b01d1060001a810a2d","6662009ae78f21dd82fcd179","666207174ed97c869a7fb83b","211","","j","","","","","","","","./tasks/HMM-beads/Images/NewTrialWC.png","lowH","1","70","0","1","1","1","true","",""
"image-keyboard-response","347","392036","0.0-3.0-6.0-1.0-1.70","5ce158b01d1060001a810a2d","6662009ae78f21dd82fcd179","666207174ed97c869a7fb83b","null","","null","","","","","","","","./tasks/HMM-beads/Images/WhiteBeadChoice.png","","","","","","","","","",""
"image-keyboard-response","348","392540","0.0-3.0-6.0-1.0-2.70","5ce158b01d1060001a810a2d","6662009ae78f21dd82fcd179","666207174ed97c869a7fb83b","null","","null","","","","","","","","./tasks/HMM-beads/Images/WhiteBeadChoiceCorrect.png","","","","","","","","","",""
"image-keyboard-response","349","392582","0.0-3.0-6.0-1.0-0.71","5ce158b01d1060001a810a2d","6662009ae78f21dd82fcd179","666207174ed97c869a7fb83b","41","","j","","","","","","","","./tasks/HMM-beads/Images/NewTrialWC.png","lowH","1","71","0","0","1","1","false","",""
"image-keyboard-response","350","392888","0.0-3.0-6.0-1.0-1.71","5ce158b01d1060001a810a2d","6662009ae78f21dd82fcd179","666207174ed97c869a7fb83b","null","","null","","","","","","","","./tasks/HMM-beads/Images/WhiteBeadChoice.png","","","","","","","","","",""
"image-keyboard-response","351","393391","0.0-3.0-6.0-1.0-2.71","5ce158b01d1060001a810a2d","6662009ae78f21dd82fcd179","666207174ed97c869a7fb83b","null","","null","","","","","","","","./tasks/HMM-beads/Images/WhiteBeadChoiceWrong.png","","","","","","","","","",""
"image-keyboard-response","352","393742","0.0-3.0-6.0-1.0-0.72","5ce158b01d1060001a810a2d","6662009ae78f21dd82fcd179","666207174ed97c869a7fb83b","351","","j","","","","","","","","./tasks/HMM-beads/Images/NewTrialBC.png","lowH","1","72","0","0","0","1","false","",""
"image-keyboard-response","353","394056","0.0-3.0-6.0-1.0-1.72","5ce158b01d1060001a810a2d","6662009ae78f21dd82fcd179","666207174ed97c869a7fb83b","null","","null","","","","","","","","./tasks/HMM-beads/Images/WhiteBeadChoice.png","","","","","","","","","",""
"image-keyboard-response","354","394561","0.0-3.0-6.0-1.0-2.72","5ce158b01d1060001a810a2d","6662009ae78f21dd82fcd179","666207174ed97c869a7fb83b","null","","null","","","","","","","","./tasks/HMM-beads/Images/WhiteBeadChoiceWrong.png","","","","","","","","","",""
"image-keyboard-response","355","395445","0.0-3.0-6.0-1.0-0.73","5ce158b01d1060001a810a2d","6662009ae78f21dd82fcd179","666207174ed97c869a7fb83b","884","","j","","","","","","","","./tasks/HMM-beads/Images/NewTrialBC.png","lowH","1","73","0","1","0","1","true","",""
"image-keyboard-response","356","395761","0.0-3.0-6.0-1.0-1.73","5ce158b01d1060001a810a2d","6662009ae78f21dd82fcd179","666207174ed97c869a7fb83b","null","","null","","","","","","","","./tasks/HMM-beads/Images/WhiteBeadChoice.png","","","","","","","","","",""
"image-keyboard-response","357","396265","0.0-3.0-6.0-1.0-2.73","5ce158b01d1060001a810a2d","6662009ae78f21dd82fcd179","666207174ed97c869a7fb83b","null","","null","","","","","","","","./tasks/HMM-beads/Images/WhiteBeadChoiceCorrect.png","","","","","","","","","",""
"image-keyboard-response","358","396630","0.0-3.0-6.0-1.0-0.74","5ce158b01d1060001a810a2d","6662009ae78f21dd82fcd179","666207174ed97c869a7fb83b","365","","j","","","","","","","","./tasks/HMM-beads/Images/NewTrialWC.png","lowH","1","74","0","0","1","1","false","",""
"image-keyboard-response","359","396944","0.0-3.0-6.0-1.0-1.74","5ce158b01d1060001a810a2d","6662009ae78f21dd82fcd179","666207174ed97c869a7fb83b","null","","null","","","","","","","","./tasks/HMM-beads/Images/WhiteBeadChoice.png","","","","","","","","","",""
"image-keyboard-response","360","397452","0.0-3.0-6.0-1.0-2.74","5ce158b01d1060001a810a2d","6662009ae78f21dd82fcd179","666207174ed97c869a7fb83b","null","","null","","","","","","","","./tasks/HMM-beads/Images/WhiteBeadChoiceWrong.png","","","","","","","","","",""
"image-keyboard-response","361","397853","0.0-3.0-6.0-1.0-0.75","5ce158b01d1060001a810a2d","6662009ae78f21dd82fcd179","666207174ed97c869a7fb83b","402","","f","","","","","","","","./tasks/HMM-beads/Images/NewTrialBC.png","lowH","1","75","0","1","0","0","false","",""
"image-keyboard-response","362","398165","0.0-3.0-6.0-1.0-1.75","5ce158b01d1060001a810a2d","6662009ae78f21dd82fcd179","666207174ed97c869a7fb83b","null","","null","","","","","","","","./tasks/HMM-beads/Images/BlackBeadChoice.png","","","","","","","","","",""
"image-keyboard-response","363","398672","0.0-3.0-6.0-1.0-2.75","5ce158b01d1060001a810a2d","6662009ae78f21dd82fcd179","666207174ed97c869a7fb83b","null","","null","","","","","","","","./tasks/HMM-beads/Images/BlackBeadChoiceWrong.png","","","","","","","","","",""
"image-keyboard-response","364","399045","0.0-3.0-6.0-1.0-0.76","5ce158b01d1060001a810a2d","6662009ae78f21dd82fcd179","666207174ed97c869a7fb83b","373","","f","","","","","","","","./tasks/HMM-beads/Images/NewTrialWC.png","lowH","1","76","0","1","1","0","false","",""
"image-keyboard-response","365","399352","0.0-3.0-6.0-1.0-1.76","5ce158b01d1060001a810a2d","6662009ae78f21dd82fcd179","666207174ed97c869a7fb83b","null","","null","","","","","","","","./tasks/HMM-beads/Images/BlackBeadChoice.png","","","","","","","","","",""
"image-keyboard-response","366","399855","0.0-3.0-6.0-1.0-2.76","5ce158b01d1060001a810a2d","6662009ae78f21dd82fcd179","666207174ed97c869a7fb83b","null","","null","","","","","","","","./tasks/HMM-beads/Images/BlackBeadChoiceWrong.png","","","","","","","","","",""
"image-keyboard-response","367","400133","0.0-3.0-6.0-1.0-0.77","5ce158b01d1060001a810a2d","6662009ae78f21dd82fcd179","666207174ed97c869a7fb83b","277","","j","","","","","","","","./tasks/HMM-beads/Images/NewTrialWC.png","lowH","1","77","0","0","1","1","false","",""
"image-keyboard-response","368","400440","0.0-3.0-6.0-1.0-1.77","5ce158b01d1060001a810a2d","6662009ae78f21dd82fcd179","666207174ed97c869a7fb83b","null","","null","","","","","","","","./tasks/HMM-beads/Images/WhiteBeadChoice.png","","","","","","","","","",""
"image-keyboard-response","369","400944","0.0-3.0-6.0-1.0-2.77","5ce158b01d1060001a810a2d","6662009ae78f21dd82fcd179","666207174ed97c869a7fb83b","null","","null","","","","","","","","./tasks/HMM-beads/Images/WhiteBeadChoiceWrong.png","","","","","","","","","",""
"image-keyboard-response","370","401269","0.0-3.0-6.0-1.0-0.78","5ce158b01d1060001a810a2d","6662009ae78f21dd82fcd179","666207174ed97c869a7fb83b","324","","j","","","","","","","","./tasks/HMM-beads/Images/NewTrialBC.png","lowH","1","78","0","0","0","1","false","",""
"image-keyboard-response","371","401575","0.0-3.0-6.0-1.0-1.78","5ce158b01d1060001a810a2d","6662009ae78f21dd82fcd179","666207174ed97c869a7fb83b","null","","null","","","","","","","","./tasks/HMM-beads/Images/WhiteBeadChoice.png","","","","","","","","","",""
"image-keyboard-response","372","402083","0.0-3.0-6.0-1.0-2.78","5ce158b01d1060001a810a2d","6662009ae78f21dd82fcd179","666207174ed97c869a7fb83b","null","","null","","","","","","","","./tasks/HMM-beads/Images/WhiteBeadChoiceWrong.png","","","","","","","","","",""
"image-keyboard-response","373","402469","0.0-3.0-6.0-1.0-0.79","5ce158b01d1060001a810a2d","6662009ae78f21dd82fcd179","666207174ed97c869a7fb83b","385","","j","","","","","","","","./tasks/HMM-beads/Images/NewTrialBC.png","lowH","1","79","0","0","0","1","false","",""
"image-keyboard-response","374","402776","0.0-3.0-6.0-1.0-1.79","5ce158b01d1060001a810a2d","6662009ae78f21dd82fcd179","666207174ed97c869a7fb83b","null","","null","","","","","","","","./tasks/HMM-beads/Images/WhiteBeadChoice.png","","","","","","","","","",""
