"trial_type","trial_index","time_elapsed","internal_node_id","subject_id","study_id","session_id","rt","url","response","question_order","view_history","success","timeout","failed_images","failed_audio","failed_video","stimulus","block","block_rep","trial_number","jar","bead","previous_bead","choice","correct","lowH_score","total_bonus"
"pavlovia","0","1051","0.0-0.0","62950797c66ad6f3715bb6e6","6662009ae78f21dd82fcd179","66620c03b9b110fb2637581a","","","","","","","","","","","","","","","","","","","","",""
"external-html","1","35294","0.0-1.0-0.0","62950797c66ad6f3715bb6e6","6662009ae78f21dd82fcd179","66620c03b9b110fb2637581a","34121","new_consent.html","","","","","","","","","","","","","","","","","","",""
"survey-multi-choice","2","43827","0.0-1.0-1.0","62950797c66ad6f3715bb6e6","6662009ae78f21dd82fcd179","66620c03b9b110fb2637581a","8532","","{""Q0"":""Male"",""Q1"":""White""}","[0,1]","","","","","","","","","","","","","","","","",""
"survey-text","3","49503","0.0-1.0-2.0","62950797c66ad6f3715bb6e6","6662009ae78f21dd82fcd179","66620c03b9b110fb2637581a","5673","","{""Q0"":""59""}","","","","","","","","","","","","","","","","","",""
"instructions","4","55313","0.0-2.0","62950797c66ad6f3715bb6e6","6662009ae78f21dd82fcd179","66620c03b9b110fb2637581a","5699","","","","[{""page_index"":0,""viewing_time"":5698}]","","","","","","","","","","","","","","","",""
"preload","5","56293","0.0-3.0-0.0","62950797c66ad6f3715bb6e6","6662009ae78f21dd82fcd179","66620c03b9b110fb2637581a","","","","","","true","false","[]","[]","[]","","","","","","","","","","",""
"instructions","6","243057","0.0-3.0-1.0","62950797c66ad6f3715bb6e6","6662009ae78f21dd82fcd179","66620c03b9b110fb2637581a","186763","","","","[{""page_index"":0,""viewing_time"":23601},{""page_index"":1,""viewing_time"":14943},{""page_index"":2,""viewing_time"":7176},{""page_index"":3,""viewing_time"":5857},{""page_index"":4,""viewing_time"":13612},{""page_index"":5,""viewing_time"":36176},{""page_index"":6,""viewing_time"":16794},{""page_index"":7,""viewing_time"":2167},{""page_index"":6,""viewing_time"":5459},{""page_index"":7,""viewing_time"":8763},{""page_index"":8,""viewing_time"":6969},{""page_index"":9,""viewing_time"":13859},{""page_index"":10,""viewing_time"":27765},{""page_index"":11,""viewing_time"":3622}]","","","","","","","","","","","","","","","",""
"html-button-response","7","247296","0.0-3.0-2.0-0.0-0.0","62950797c66ad6f3715bb6e6","6662009ae78f21dd82fcd179","66620c03b9b110fb2637581a","4238","","1","","","","","","","","<div align=center>Your goal is to predict…?<br><br></div>","","","","","","","","","",""
"html-button-response","8","257634","0.0-3.0-2.0-1.0-0.0","62950797c66ad6f3715bb6e6","6662009ae78f21dd82fcd179","66620c03b9b110fb2637581a","7996","","2","","","","","","","","<div align=center>In the jar with mostly white beads, there are ___% white beads and ___% black beads?<br><br></div>","","","","","","","","","",""
"html-button-response","9","264544","0.0-3.0-2.0-2.0-0.0","62950797c66ad6f3715bb6e6","6662009ae78f21dd82fcd179","66620c03b9b110fb2637581a","4817","","1","","","","","","","","<div align=center>When there is a 1% probability that the jars will switch, the next bead will most likely be drawn from the…<br><br></div>","","","","","","","","","",""
"html-button-response","10","273627","0.0-3.0-2.0-2.1-0.1","62950797c66ad6f3715bb6e6","6662009ae78f21dd82fcd179","66620c03b9b110fb2637581a","1038","","0","","","","","","","","<div align=center>When there is a 1% probability that the jars will switch, the next bead will most likely be drawn from the…<br><br></div>","","","","","","","","","",""
"html-button-response","11","284725","0.0-3.0-2.0-3.0-0.0","62950797c66ad6f3715bb6e6","6662009ae78f21dd82fcd179","66620c03b9b110fb2637581a","9580","","1","","","","","","","","<div align=center>When there is a 99% probability that the jars will switch, the next bead will most likely be drawn from the…<br><br></div>","","","","","","","","","",""
"instructions","12","302311","0.0-3.0-3.0","62950797c66ad6f3715bb6e6","6662009ae78f21dd82fcd179","66620c03b9b110fb2637581a","14623","","","","[{""page_index"":0,""viewing_time"":14623}]","","","","","","","","","","","","","","","",""
"html-keyboard-response","13","309882","0.0-3.0-4.0-0.0","62950797c66ad6f3715bb6e6","6662009ae78f21dd82fcd179","66620c03b9b110fb2637581a","7571",""," ","","","","","","","","<div align=center>In this practice block, there will be a <b>1% chance</b> that the jar on the next trial will be different from the jar on the current trial.<br><br></div>","","","","","","","","","",""
"image-keyboard-response","14","313895","0.0-3.0-4.0-1.0-0.0","62950797c66ad6f3715bb6e6","6662009ae78f21dd82fcd179","66620c03b9b110fb2637581a","4011","","j","","","","","","","","./tasks/HMM-beads/Images/NoChoice.png","practice","0","0","0","0","9","1","false","",""
"image-keyboard-response","15","314203","0.0-3.0-4.0-1.0-1.0","62950797c66ad6f3715bb6e6","6662009ae78f21dd82fcd179","66620c03b9b110fb2637581a","null","","null","","","","","","","","./tasks/HMM-beads/Images/WhiteBeadChoice.png","","","","","","","","","",""
"image-keyboard-response","16","314708","0.0-3.0-4.0-1.0-2.0","62950797c66ad6f3715bb6e6","6662009ae78f21dd82fcd179","66620c03b9b110fb2637581a","null","","null","","","","","","","","./tasks/HMM-beads/Images/WhiteBeadChoiceWrong.png","","","","","","","","","",""
"image-keyboard-response","17","317907","0.0-3.0-4.0-1.0-0.1","62950797c66ad6f3715bb6e6","6662009ae78f21dd82fcd179","66620c03b9b110fb2637581a","3198","","f","","","","","","","","./tasks/HMM-beads/Images/NewTrialBC.png","practice","0","1","0","0","0","0","true","",""
"image-keyboard-response","18","318217","0.0-3.0-4.0-1.0-1.1","62950797c66ad6f3715bb6e6","6662009ae78f21dd82fcd179","66620c03b9b110fb2637581a","null","","null","","","","","","","","./tasks/HMM-beads/Images/BlackBeadChoice.png","","","","","","","","","",""
"image-keyboard-response","19","318726","0.0-3.0-4.0-1.0-2.1","62950797c66ad6f3715bb6e6","6662009ae78f21dd82fcd179","66620c03b9b110fb2637581a","null","","null","","","","","","","","./tasks/HMM-beads/Images/BlackBeadChoiceCorrect.png","","","","","","","","","",""
"image-keyboard-response","20","319453","0.0-3.0-4.0-1.0-0.2","62950797c66ad6f3715bb6e6","6662009ae78f21dd82fcd179","66620c03b9b110fb2637581a","727","","f","","","","","","","","./tasks/HMM-beads/Images/NewTrialBC.png","practice","0","2","0","1","0","0","false","",""
"image-keyboard-response","21","319759","0.0-3.0-4.0-1.0-1.2","62950797c66ad6f3715bb6e6","6662009ae78f21dd82fcd179","66620c03b9b110fb2637581a","null","","null","","","","","","","","./tasks/HMM-beads/Images/BlackBeadChoice.png","","","","","","","","","",""
"image-keyboard-response","22","320274","0.0-3.0-4.0-1.0-2.2","62950797c66ad6f3715bb6e6","6662009ae78f21dd82fcd179","66620c03b9b110fb2637581a","null","","null","","","","","","","","./tasks/HMM-beads/Images/BlackBeadChoiceWrong.png","","","","","","","","","",""
"image-keyboard-response","23","321678","0.0-3.0-4.0-1.0-0.3","62950797c66ad6f3715bb6e6","6662009ae78f21dd82fcd179","66620c03b9b110fb2637581a","1403","","f","","","","","","","","./tasks/HMM-beads/Images/NewTrialWC.png","practice","0","3","0","0","1","0","true","",""
"image-keyboard-response","24","321988","0.0-3.0-4.0-1.0-1.3","62950797c66ad6f3715bb6e6","6662009ae78f21dd82fcd179","66620c03b9b110fb2637581a","null","","null","","","","","","","","./tasks/HMM-beads/Images/BlackBeadChoice.png","","","","","","","","","",""
"image-keyboard-response","25","322492","0.0-3.0-4.0-1.0-2.3","62950797c66ad6f3715bb6e6","6662009ae78f21dd82fcd179","66620c03b9b110fb2637581a","null","","null","","","","","","","","./tasks/HMM-beads/Images/BlackBeadChoiceCorrect.png","","","","","","","","","",""
"image-keyboard-response","26","324300","0.0-3.0-4.0-1.0-0.4","62950797c66ad6f3715bb6e6","6662009ae78f21dd82fcd179","66620c03b9b110fb2637581a","1807","","f","","","","","","","","./tasks/HMM-beads/Images/NewTrialBC.png","practice","0","4","0","0","0","0","true","",""
"image-keyboard-response","27","324606","0.0-3.0-4.0-1.0-1.4","62950797c66ad6f3715bb6e6","6662009ae78f21dd82fcd179","66620c03b9b110fb2637581a","null","","null","","","","","","","","./tasks/HMM-beads/Images/BlackBeadChoice.png","","","","","","","","","",""
"image-keyboard-response","28","325108","0.0-3.0-4.0-1.0-2.4","62950797c66ad6f3715bb6e6","6662009ae78f21dd82fcd179","66620c03b9b110fb2637581a","null","","null","","","","","","","","./tasks/HMM-beads/Images/BlackBeadChoiceCorrect.png","","","","","","","","","",""
"image-keyboard-response","29","326141","0.0-3.0-4.0-1.0-0.5","62950797c66ad6f3715bb6e6","6662009ae78f21dd82fcd179","66620c03b9b110fb2637581a","1033","","f","","","","","","","","./tasks/HMM-beads/Images/NewTrialBC.png","practice","0","5","0","1","0","0","false","",""
"image-keyboard-response","30","326447","0.0-3.0-4.0-1.0-1.5","62950797c66ad6f3715bb6e6","6662009ae78f21dd82fcd179","66620c03b9b110fb2637581a","null","","null","","","","","","","","./tasks/HMM-beads/Images/BlackBeadChoice.png","","","","","","","","","",""
"image-keyboard-response","31","326955","0.0-3.0-4.0-1.0-2.5","62950797c66ad6f3715bb6e6","6662009ae78f21dd82fcd179","66620c03b9b110fb2637581a","null","","null","","","","","","","","./tasks/HMM-beads/Images/BlackBeadChoiceWrong.png","","","","","","","","","",""
"image-keyboard-response","32","330099","0.0-3.0-4.0-1.0-0.6","62950797c66ad6f3715bb6e6","6662009ae78f21dd82fcd179","66620c03b9b110fb2637581a","3144","","f","","","","","","","","./tasks/HMM-beads/Images/NewTrialWC.png","practice","0","6","0","0","1","0","true","",""
"image-keyboard-response","33","330405","0.0-3.0-4.0-1.0-1.6","62950797c66ad6f3715bb6e6","6662009ae78f21dd82fcd179","66620c03b9b110fb2637581a","null","","null","","","","","","","","./tasks/HMM-beads/Images/BlackBeadChoice.png","","","","","","","","","",""
"image-keyboard-response","34","330914","0.0-3.0-4.0-1.0-2.6","62950797c66ad6f3715bb6e6","6662009ae78f21dd82fcd179","66620c03b9b110fb2637581a","null","","null","","","","","","","","./tasks/HMM-beads/Images/BlackBeadChoiceCorrect.png","","","","","","","","","",""
"image-keyboard-response","35","331612","0.0-3.0-4.0-1.0-0.7","62950797c66ad6f3715bb6e6","6662009ae78f21dd82fcd179","66620c03b9b110fb2637581a","698","","f","","","","","","","","./tasks/HMM-beads/Images/NewTrialBC.png","practice","0","7","0","0","0","0","true","",""
"image-keyboard-response","36","331919","0.0-3.0-4.0-1.0-1.7","62950797c66ad6f3715bb6e6","6662009ae78f21dd82fcd179","66620c03b9b110fb2637581a","null","","null","","","","","","","","./tasks/HMM-beads/Images/BlackBeadChoice.png","","","","","","","","","",""
"image-keyboard-response","37","332428","0.0-3.0-4.0-1.0-2.7","62950797c66ad6f3715bb6e6","6662009ae78f21dd82fcd179","66620c03b9b110fb2637581a","null","","null","","","","","","","","./tasks/HMM-beads/Images/BlackBeadChoiceCorrect.png","","","","","","","","","",""
"image-keyboard-response","38","333158","0.0-3.0-4.0-1.0-0.8","62950797c66ad6f3715bb6e6","6662009ae78f21dd82fcd179","66620c03b9b110fb2637581a","730","","f","","","","","","","","./tasks/HMM-beads/Images/NewTrialBC.png","practice","0","8","0","0","0","0","true","",""
"image-keyboard-response","39","333468","0.0-3.0-4.0-1.0-1.8","62950797c66ad6f3715bb6e6","6662009ae78f21dd82fcd179","66620c03b9b110fb2637581a","null","","null","","","","","","","","./tasks/HMM-beads/Images/BlackBeadChoice.png","","","","","","","","","",""
"image-keyboard-response","40","333983","0.0-3.0-4.0-1.0-2.8","62950797c66ad6f3715bb6e6","6662009ae78f21dd82fcd179","66620c03b9b110fb2637581a","null","","null","","","","","","","","./tasks/HMM-beads/Images/BlackBeadChoiceCorrect.png","","","","","","","","","",""
"image-keyboard-response","41","334933","0.0-3.0-4.0-1.0-0.9","62950797c66ad6f3715bb6e6","6662009ae78f21dd82fcd179","66620c03b9b110fb2637581a","949","","f","","","","","","","","./tasks/HMM-beads/Images/NewTrialBC.png","practice","0","9","0","1","0","0","false","",""
"image-keyboard-response","42","335239","0.0-3.0-4.0-1.0-1.9","62950797c66ad6f3715bb6e6","6662009ae78f21dd82fcd179","66620c03b9b110fb2637581a","null","","null","","","","","","","","./tasks/HMM-beads/Images/BlackBeadChoice.png","","","","","","","","","",""
"image-keyboard-response","43","335747","0.0-3.0-4.0-1.0-2.9","62950797c66ad6f3715bb6e6","6662009ae78f21dd82fcd179","66620c03b9b110fb2637581a","null","","null","","","","","","","","./tasks/HMM-beads/Images/BlackBeadChoiceWrong.png","","","","","","","","","",""
"image-keyboard-response","44","337627","0.0-3.0-4.0-1.0-0.10","62950797c66ad6f3715bb6e6","6662009ae78f21dd82fcd179","66620c03b9b110fb2637581a","1880","","f","","","","","","","","./tasks/HMM-beads/Images/NewTrialWC.png","practice","0","10","0","0","1","0","true","",""
"image-keyboard-response","45","337933","0.0-3.0-4.0-1.0-1.10","62950797c66ad6f3715bb6e6","6662009ae78f21dd82fcd179","66620c03b9b110fb2637581a","null","","null","","","","","","","","./tasks/HMM-beads/Images/BlackBeadChoice.png","","","","","","","","","",""
"image-keyboard-response","46","338442","0.0-3.0-4.0-1.0-2.10","62950797c66ad6f3715bb6e6","6662009ae78f21dd82fcd179","66620c03b9b110fb2637581a","null","","null","","","","","","","","./tasks/HMM-beads/Images/BlackBeadChoiceCorrect.png","","","","","","","","","",""
"image-keyboard-response","47","339583","0.0-3.0-4.0-1.0-0.11","62950797c66ad6f3715bb6e6","6662009ae78f21dd82fcd179","66620c03b9b110fb2637581a","1141","","f","","","","","","","","./tasks/HMM-beads/Images/NewTrialBC.png","practice","0","11","0","1","0","0","false","",""
"image-keyboard-response","48","339892","0.0-3.0-4.0-1.0-1.11","62950797c66ad6f3715bb6e6","6662009ae78f21dd82fcd179","66620c03b9b110fb2637581a","null","","null","","","","","","","","./tasks/HMM-beads/Images/BlackBeadChoice.png","","","","","","","","","",""
"image-keyboard-response","49","340400","0.0-3.0-4.0-1.0-2.11","62950797c66ad6f3715bb6e6","6662009ae78f21dd82fcd179","66620c03b9b110fb2637581a","null","","null","","","","","","","","./tasks/HMM-beads/Images/BlackBeadChoiceWrong.png","","","","","","","","","",""
"image-keyboard-response","50","341135","0.0-3.0-4.0-1.0-0.12","62950797c66ad6f3715bb6e6","6662009ae78f21dd82fcd179","66620c03b9b110fb2637581a","734","","j","","","","","","","","./tasks/HMM-beads/Images/NewTrialWC.png","practice","0","12","0","0","1","1","false","",""
"image-keyboard-response","51","341440","0.0-3.0-4.0-1.0-1.12","62950797c66ad6f3715bb6e6","6662009ae78f21dd82fcd179","66620c03b9b110fb2637581a","null","","null","","","","","","","","./tasks/HMM-beads/Images/WhiteBeadChoice.png","","","","","","","","","",""
"image-keyboard-response","52","341949","0.0-3.0-4.0-1.0-2.12","62950797c66ad6f3715bb6e6","6662009ae78f21dd82fcd179","66620c03b9b110fb2637581a","null","","null","","","","","","","","./tasks/HMM-beads/Images/WhiteBeadChoiceWrong.png","","","","","","","","","",""
"image-keyboard-response","53","344495","0.0-3.0-4.0-1.0-0.13","62950797c66ad6f3715bb6e6","6662009ae78f21dd82fcd179","66620c03b9b110fb2637581a","2541","","f","","","","","","","","./tasks/HMM-beads/Images/NewTrialBC.png","practice","0","13","0","0","0","0","true","",""
"image-keyboard-response","54","344802","0.0-3.0-4.0-1.0-1.13","62950797c66ad6f3715bb6e6","6662009ae78f21dd82fcd179","66620c03b9b110fb2637581a","null","","null","","","","","","","","./tasks/HMM-beads/Images/BlackBeadChoice.png","","","","","","","","","",""
"image-keyboard-response","55","345310","0.0-3.0-4.0-1.0-2.13","62950797c66ad6f3715bb6e6","6662009ae78f21dd82fcd179","66620c03b9b110fb2637581a","null","","null","","","","","","","","./tasks/HMM-beads/Images/BlackBeadChoiceCorrect.png","","","","","","","","","",""
"image-keyboard-response","56","345894","0.0-3.0-4.0-1.0-0.14","62950797c66ad6f3715bb6e6","6662009ae78f21dd82fcd179","66620c03b9b110fb2637581a","583","","f","","","","","","","","./tasks/HMM-beads/Images/NewTrialBC.png","practice","0","14","0","0","0","0","true","",""
"image-keyboard-response","57","346198","0.0-3.0-4.0-1.0-1.14","62950797c66ad6f3715bb6e6","6662009ae78f21dd82fcd179","66620c03b9b110fb2637581a","null","","null","","","","","","","","./tasks/HMM-beads/Images/BlackBeadChoice.png","","","","","","","","","",""
"image-keyboard-response","58","346706","0.0-3.0-4.0-1.0-2.14","62950797c66ad6f3715bb6e6","6662009ae78f21dd82fcd179","66620c03b9b110fb2637581a","null","","null","","","","","","","","./tasks/HMM-beads/Images/BlackBeadChoiceCorrect.png","","","","","","","","","",""
"image-keyboard-response","59","347406","0.0-3.0-4.0-1.0-0.15","62950797c66ad6f3715bb6e6","6662009ae78f21dd82fcd179","66620c03b9b110fb2637581a","700","","f","","","","","","","","./tasks/HMM-beads/Images/NewTrialBC.png","practice","0","15","0","0","0","0","true","",""
"image-keyboard-response","60","347712","0.0-3.0-4.0-1.0-1.15","62950797c66ad6f3715bb6e6","6662009ae78f21dd82fcd179","66620c03b9b110fb2637581a","null","","null","","","","","","","","./tasks/HMM-beads/Images/BlackBeadChoice.png","","","","","","","","","",""
"image-keyboard-response","61","348220","0.0-3.0-4.0-1.0-2.15","62950797c66ad6f3715bb6e6","6662009ae78f21dd82fcd179","66620c03b9b110fb2637581a","null","","null","","","","","","","","./tasks/HMM-beads/Images/BlackBeadChoiceCorrect.png","","","","","","","","","",""
"image-keyboard-response","62","348663","0.0-3.0-4.0-1.0-0.16","62950797c66ad6f3715bb6e6","6662009ae78f21dd82fcd179","66620c03b9b110fb2637581a","443","","f","","","","","","","","./tasks/HMM-beads/Images/NewTrialBC.png","practice","0","16","0","0","0","0","true","",""
"image-keyboard-response","63","348969","0.0-3.0-4.0-1.0-1.16","62950797c66ad6f3715bb6e6","6662009ae78f21dd82fcd179","66620c03b9b110fb2637581a","null","","null","","","","","","","","./tasks/HMM-beads/Images/BlackBeadChoice.png","","","","","","","","","",""
"image-keyboard-response","64","349477","0.0-3.0-4.0-1.0-2.16","62950797c66ad6f3715bb6e6","6662009ae78f21dd82fcd179","66620c03b9b110fb2637581a","null","","null","","","","","","","","./tasks/HMM-beads/Images/BlackBeadChoiceCorrect.png","","","","","","","","","",""
"image-keyboard-response","65","350121","0.0-3.0-4.0-1.0-0.17","62950797c66ad6f3715bb6e6","6662009ae78f21dd82fcd179","66620c03b9b110fb2637581a","644","","f","","","","","","","","./tasks/HMM-beads/Images/NewTrialBC.png","practice","0","17","0","0","0","0","true","",""
"image-keyboard-response","66","350434","0.0-3.0-4.0-1.0-1.17","62950797c66ad6f3715bb6e6","6662009ae78f21dd82fcd179","66620c03b9b110fb2637581a","null","","null","","","","","","","","./tasks/HMM-beads/Images/BlackBeadChoice.png","","","","","","","","","",""
"image-keyboard-response","67","350943","0.0-3.0-4.0-1.0-2.17","62950797c66ad6f3715bb6e6","6662009ae78f21dd82fcd179","66620c03b9b110fb2637581a","null","","null","","","","","","","","./tasks/HMM-beads/Images/BlackBeadChoiceCorrect.png","","","","","","","","","",""
"image-keyboard-response","68","351002","0.0-3.0-4.0-1.0-0.18","62950797c66ad6f3715bb6e6","6662009ae78f21dd82fcd179","66620c03b9b110fb2637581a","59","","f","","","","","","","","./tasks/HMM-beads/Images/NewTrialBC.png","practice","0","18","0","1","0","0","false","",""
"image-keyboard-response","69","351309","0.0-3.0-4.0-1.0-1.18","62950797c66ad6f3715bb6e6","6662009ae78f21dd82fcd179","66620c03b9b110fb2637581a","null","","null","","","","","","","","./tasks/HMM-beads/Images/BlackBeadChoice.png","","","","","","","","","",""
"image-keyboard-response","70","351818","0.0-3.0-4.0-1.0-2.18","62950797c66ad6f3715bb6e6","6662009ae78f21dd82fcd179","66620c03b9b110fb2637581a","null","","null","","","","","","","","./tasks/HMM-beads/Images/BlackBeadChoiceWrong.png","","","","","","","","","",""
"image-keyboard-response","71","353535","0.0-3.0-4.0-1.0-0.19","62950797c66ad6f3715bb6e6","6662009ae78f21dd82fcd179","66620c03b9b110fb2637581a","1717","","f","","","","","","","","./tasks/HMM-beads/Images/NewTrialWC.png","practice","0","19","0","0","1","0","true","",""
"image-keyboard-response","72","353847","0.0-3.0-4.0-1.0-1.19","62950797c66ad6f3715bb6e6","6662009ae78f21dd82fcd179","66620c03b9b110fb2637581a","null","","null","","","","","","","","./tasks/HMM-beads/Images/BlackBeadChoice.png","","","","","","","","","",""
"image-keyboard-response","73","354359","0.0-3.0-4.0-1.0-2.19","62950797c66ad6f3715bb6e6","6662009ae78f21dd82fcd179","66620c03b9b110fb2637581a","null","","null","","","","","","","","./tasks/HMM-beads/Images/BlackBeadChoiceCorrect.png","","","","","","","","","",""
"image-keyboard-response","74","354954","0.0-3.0-4.0-1.0-0.20","62950797c66ad6f3715bb6e6","6662009ae78f21dd82fcd179","66620c03b9b110fb2637581a","594","","f","","","","","","","","./tasks/HMM-beads/Images/NewTrialBC.png","practice","0","20","0","0","0","0","true","",""
"image-keyboard-response","75","355260","0.0-3.0-4.0-1.0-1.20","62950797c66ad6f3715bb6e6","6662009ae78f21dd82fcd179","66620c03b9b110fb2637581a","null","","null","","","","","","","","./tasks/HMM-beads/Images/BlackBeadChoice.png","","","","","","","","","",""
"image-keyboard-response","76","355769","0.0-3.0-4.0-1.0-2.20","62950797c66ad6f3715bb6e6","6662009ae78f21dd82fcd179","66620c03b9b110fb2637581a","null","","null","","","","","","","","./tasks/HMM-beads/Images/BlackBeadChoiceCorrect.png","","","","","","","","","",""
"image-keyboard-response","77","356534","0.0-3.0-4.0-1.0-0.21","62950797c66ad6f3715bb6e6","6662009ae78f21dd82fcd179","66620c03b9b110fb2637581a","764","","f","","","","","","","","./tasks/HMM-beads/Images/NewTrialBC.png","practice","0","21","0","1","0","0","false","",""
"image-keyboard-response","78","356844","0.0-3.0-4.0-1.0-1.21","62950797c66ad6f3715bb6e6","6662009ae78f21dd82fcd179","66620c03b9b110fb2637581a","null","","null","","","","","","","","./tasks/HMM-beads/Images/BlackBeadChoice.png","","","","","","","","","",""
"image-keyboard-response","79","357360","0.0-3.0-4.0-1.0-2.21","62950797c66ad6f3715bb6e6","6662009ae78f21dd82fcd179","66620c03b9b110fb2637581a","null","","null","","","","","","","","./tasks/HMM-beads/Images/BlackBeadChoiceWrong.png","","","","","","","","","",""
"image-keyboard-response","80","361091","0.0-3.0-4.0-1.0-0.22","62950797c66ad6f3715bb6e6","6662009ae78f21dd82fcd179","66620c03b9b110fb2637581a","3731","","f","","","","","","","","./tasks/HMM-beads/Images/NewTrialWC.png","practice","0","22","1","1","1","0","false","",""
"image-keyboard-response","81","361400","0.0-3.0-4.0-1.0-1.22","62950797c66ad6f3715bb6e6","6662009ae78f21dd82fcd179","66620c03b9b110fb2637581a","null","","null","","","","","","","","./tasks/HMM-beads/Images/BlackBeadChoice.png","","","","","","","","","",""
"image-keyboard-response","82","361908","0.0-3.0-4.0-1.0-2.22","62950797c66ad6f3715bb6e6","6662009ae78f21dd82fcd179","66620c03b9b110fb2637581a","null","","null","","","","","","","","./tasks/HMM-beads/Images/BlackBeadChoiceWrong.png","","","","","","","","","",""
"image-keyboard-response","83","362275","0.0-3.0-4.0-1.0-0.23","62950797c66ad6f3715bb6e6","6662009ae78f21dd82fcd179","66620c03b9b110fb2637581a","371","","j","","","","","","","","./tasks/HMM-beads/Images/NewTrialWC.png","practice","0","23","1","0","1","1","false","",""
"image-keyboard-response","84","362582","0.0-3.0-4.0-1.0-1.23","62950797c66ad6f3715bb6e6","6662009ae78f21dd82fcd179","66620c03b9b110fb2637581a","null","","null","","","","","","","","./tasks/HMM-beads/Images/WhiteBeadChoice.png","","","","","","","","","",""
"image-keyboard-response","85","363090","0.0-3.0-4.0-1.0-2.23","62950797c66ad6f3715bb6e6","6662009ae78f21dd82fcd179","66620c03b9b110fb2637581a","null","","null","","","","","","","","./tasks/HMM-beads/Images/WhiteBeadChoiceWrong.png","","","","","","","","","",""
"image-keyboard-response","86","363485","0.0-3.0-4.0-1.0-0.24","62950797c66ad6f3715bb6e6","6662009ae78f21dd82fcd179","66620c03b9b110fb2637581a","394","","j","","","","","","","","./tasks/HMM-beads/Images/NewTrialBC.png","practice","0","24","1","1","0","1","true","",""
"image-keyboard-response","87","363790","0.0-3.0-4.0-1.0-1.24","62950797c66ad6f3715bb6e6","6662009ae78f21dd82fcd179","66620c03b9b110fb2637581a","null","","null","","","","","","","","./tasks/HMM-beads/Images/WhiteBeadChoice.png","","","","","","","","","",""
"image-keyboard-response","88","364299","0.0-3.0-4.0-1.0-2.24","62950797c66ad6f3715bb6e6","6662009ae78f21dd82fcd179","66620c03b9b110fb2637581a","null","","null","","","","","","","","./tasks/HMM-beads/Images/WhiteBeadChoiceCorrect.png","","","","","","","","","",""
"image-keyboard-response","89","364709","0.0-3.0-4.0-1.0-0.25","62950797c66ad6f3715bb6e6","6662009ae78f21dd82fcd179","66620c03b9b110fb2637581a","409","","j","","","","","","","","./tasks/HMM-beads/Images/NewTrialWC.png","practice","0","25","1","1","1","1","true","",""
"image-keyboard-response","90","365012","0.0-3.0-4.0-1.0-1.25","62950797c66ad6f3715bb6e6","6662009ae78f21dd82fcd179","66620c03b9b110fb2637581a","null","","null","","","","","","","","./tasks/HMM-beads/Images/WhiteBeadChoice.png","","","","","","","","","",""
"image-keyboard-response","91","365521","0.0-3.0-4.0-1.0-2.25","62950797c66ad6f3715bb6e6","6662009ae78f21dd82fcd179","66620c03b9b110fb2637581a","null","","null","","","","","","","","./tasks/HMM-beads/Images/WhiteBeadChoiceCorrect.png","","","","","","","","","",""
"image-keyboard-response","92","365939","0.0-3.0-4.0-1.0-0.26","62950797c66ad6f3715bb6e6","6662009ae78f21dd82fcd179","66620c03b9b110fb2637581a","417","","j","","","","","","","","./tasks/HMM-beads/Images/NewTrialWC.png","practice","0","26","1","1","1","1","true","",""
"image-keyboard-response","93","366248","0.0-3.0-4.0-1.0-1.26","62950797c66ad6f3715bb6e6","6662009ae78f21dd82fcd179","66620c03b9b110fb2637581a","null","","null","","","","","","","","./tasks/HMM-beads/Images/WhiteBeadChoice.png","","","","","","","","","",""
"image-keyboard-response","94","366757","0.0-3.0-4.0-1.0-2.26","62950797c66ad6f3715bb6e6","6662009ae78f21dd82fcd179","66620c03b9b110fb2637581a","null","","null","","","","","","","","./tasks/HMM-beads/Images/WhiteBeadChoiceCorrect.png","","","","","","","","","",""
"image-keyboard-response","95","367149","0.0-3.0-4.0-1.0-0.27","62950797c66ad6f3715bb6e6","6662009ae78f21dd82fcd179","66620c03b9b110fb2637581a","391","","j","","","","","","","","./tasks/HMM-beads/Images/NewTrialWC.png","practice","0","27","1","1","1","1","true","",""
"image-keyboard-response","96","367457","0.0-3.0-4.0-1.0-1.27","62950797c66ad6f3715bb6e6","6662009ae78f21dd82fcd179","66620c03b9b110fb2637581a","null","","null","","","","","","","","./tasks/HMM-beads/Images/WhiteBeadChoice.png","","","","","","","","","",""
"image-keyboard-response","97","367965","0.0-3.0-4.0-1.0-2.27","62950797c66ad6f3715bb6e6","6662009ae78f21dd82fcd179","66620c03b9b110fb2637581a","null","","null","","","","","","","","./tasks/HMM-beads/Images/WhiteBeadChoiceCorrect.png","","","","","","","","","",""
"image-keyboard-response","98","368278","0.0-3.0-4.0-1.0-0.28","62950797c66ad6f3715bb6e6","6662009ae78f21dd82fcd179","66620c03b9b110fb2637581a","312","","j","","","","","","","","./tasks/HMM-beads/Images/NewTrialWC.png","practice","0","28","1","0","1","1","false","",""
"image-keyboard-response","99","368582","0.0-3.0-4.0-1.0-1.28","62950797c66ad6f3715bb6e6","6662009ae78f21dd82fcd179","66620c03b9b110fb2637581a","null","","null","","","","","","","","./tasks/HMM-beads/Images/WhiteBeadChoice.png","","","","","","","","","",""
"image-keyboard-response","100","369091","0.0-3.0-4.0-1.0-2.28","62950797c66ad6f3715bb6e6","6662009ae78f21dd82fcd179","66620c03b9b110fb2637581a","null","","null","","","","","","","","./tasks/HMM-beads/Images/WhiteBeadChoiceWrong.png","","","","","","","","","",""
"image-keyboard-response","101","370025","0.0-3.0-4.0-1.0-0.29","62950797c66ad6f3715bb6e6","6662009ae78f21dd82fcd179","66620c03b9b110fb2637581a","934","","j","","","","","","","","./tasks/HMM-beads/Images/NewTrialBC.png","practice","0","29","1","1","0","1","true","",""
"image-keyboard-response","102","370332","0.0-3.0-4.0-1.0-1.29","62950797c66ad6f3715bb6e6","6662009ae78f21dd82fcd179","66620c03b9b110fb2637581a","null","","null","","","","","","","","./tasks/HMM-beads/Images/WhiteBeadChoice.png","","","","","","","","","",""
"image-keyboard-response","103","370841","0.0-3.0-4.0-1.0-2.29","62950797c66ad6f3715bb6e6","6662009ae78f21dd82fcd179","66620c03b9b110fb2637581a","null","","null","","","","","","","","./tasks/HMM-beads/Images/WhiteBeadChoiceCorrect.png","","","","","","","","","",""
"image-keyboard-response","104","371161","0.0-3.0-4.0-1.0-0.30","62950797c66ad6f3715bb6e6","6662009ae78f21dd82fcd179","66620c03b9b110fb2637581a","320","","j","","","","","","","","./tasks/HMM-beads/Images/NewTrialWC.png","practice","0","30","1","0","1","1","false","",""
"image-keyboard-response","105","371471","0.0-3.0-4.0-1.0-1.30","62950797c66ad6f3715bb6e6","6662009ae78f21dd82fcd179","66620c03b9b110fb2637581a","null","","null","","","","","","","","./tasks/HMM-beads/Images/WhiteBeadChoice.png","","","","","","","","","",""
"image-keyboard-response","106","371980","0.0-3.0-4.0-1.0-2.30","62950797c66ad6f3715bb6e6","6662009ae78f21dd82fcd179","66620c03b9b110fb2637581a","null","","null","","","","","","","","./tasks/HMM-beads/Images/WhiteBeadChoiceWrong.png","","","","","","","","","",""
"image-keyboard-response","107","372431","0.0-3.0-4.0-1.0-0.31","62950797c66ad6f3715bb6e6","6662009ae78f21dd82fcd179","66620c03b9b110fb2637581a","451","","j","","","","","","","","./tasks/HMM-beads/Images/NewTrialBC.png","practice","0","31","1","1","0","1","true","",""
"image-keyboard-response","108","372735","0.0-3.0-4.0-1.0-1.31","62950797c66ad6f3715bb6e6","6662009ae78f21dd82fcd179","66620c03b9b110fb2637581a","null","","null","","","","","","","","./tasks/HMM-beads/Images/WhiteBeadChoice.png","","","","","","","","","",""
"image-keyboard-response","109","373244","0.0-3.0-4.0-1.0-2.31","62950797c66ad6f3715bb6e6","6662009ae78f21dd82fcd179","66620c03b9b110fb2637581a","null","","null","","","","","","","","./tasks/HMM-beads/Images/WhiteBeadChoiceCorrect.png","","","","","","","","","",""
"image-keyboard-response","110","373534","0.0-3.0-4.0-1.0-0.32","62950797c66ad6f3715bb6e6","6662009ae78f21dd82fcd179","66620c03b9b110fb2637581a","290","","j","","","","","","","","./tasks/HMM-beads/Images/NewTrialWC.png","practice","0","32","1","1","1","1","true","",""
"image-keyboard-response","111","373839","0.0-3.0-4.0-1.0-1.32","62950797c66ad6f3715bb6e6","6662009ae78f21dd82fcd179","66620c03b9b110fb2637581a","null","","null","","","","","","","","./tasks/HMM-beads/Images/WhiteBeadChoice.png","","","","","","","","","",""
"image-keyboard-response","112","374348","0.0-3.0-4.0-1.0-2.32","62950797c66ad6f3715bb6e6","6662009ae78f21dd82fcd179","66620c03b9b110fb2637581a","null","","null","","","","","","","","./tasks/HMM-beads/Images/WhiteBeadChoiceCorrect.png","","","","","","","","","",""
"image-keyboard-response","113","374770","0.0-3.0-4.0-1.0-0.33","62950797c66ad6f3715bb6e6","6662009ae78f21dd82fcd179","66620c03b9b110fb2637581a","422","","j","","","","","","","","./tasks/HMM-beads/Images/NewTrialWC.png","practice","0","33","1","1","1","1","true","",""
"image-keyboard-response","114","375075","0.0-3.0-4.0-1.0-1.33","62950797c66ad6f3715bb6e6","6662009ae78f21dd82fcd179","66620c03b9b110fb2637581a","null","","null","","","","","","","","./tasks/HMM-beads/Images/WhiteBeadChoice.png","","","","","","","","","",""
"image-keyboard-response","115","375584","0.0-3.0-4.0-1.0-2.33","62950797c66ad6f3715bb6e6","6662009ae78f21dd82fcd179","66620c03b9b110fb2637581a","null","","null","","","","","","","","./tasks/HMM-beads/Images/WhiteBeadChoiceCorrect.png","","","","","","","","","",""
"image-keyboard-response","116","375913","0.0-3.0-4.0-1.0-0.34","62950797c66ad6f3715bb6e6","6662009ae78f21dd82fcd179","66620c03b9b110fb2637581a","328","","j","","","","","","","","./tasks/HMM-beads/Images/NewTrialWC.png","practice","0","34","1","1","1","1","true","",""
"image-keyboard-response","117","376221","0.0-3.0-4.0-1.0-1.34","62950797c66ad6f3715bb6e6","6662009ae78f21dd82fcd179","66620c03b9b110fb2637581a","null","","null","","","","","","","","./tasks/HMM-beads/Images/WhiteBeadChoice.png","","","","","","","","","",""
"image-keyboard-response","118","376737","0.0-3.0-4.0-1.0-2.34","62950797c66ad6f3715bb6e6","6662009ae78f21dd82fcd179","66620c03b9b110fb2637581a","null","","null","","","","","","","","./tasks/HMM-beads/Images/WhiteBeadChoiceCorrect.png","","","","","","","","","",""
"image-keyboard-response","119","377143","0.0-3.0-4.0-1.0-0.35","62950797c66ad6f3715bb6e6","6662009ae78f21dd82fcd179","66620c03b9b110fb2637581a","406","","j","","","","","","","","./tasks/HMM-beads/Images/NewTrialWC.png","practice","0","35","1","1","1","1","true","",""
"image-keyboard-response","120","377450","0.0-3.0-4.0-1.0-1.35","62950797c66ad6f3715bb6e6","6662009ae78f21dd82fcd179","66620c03b9b110fb2637581a","null","","null","","","","","","","","./tasks/HMM-beads/Images/WhiteBeadChoice.png","","","","","","","","","",""
"image-keyboard-response","121","377959","0.0-3.0-4.0-1.0-2.35","62950797c66ad6f3715bb6e6","6662009ae78f21dd82fcd179","66620c03b9b110fb2637581a","null","","null","","","","","","","","./tasks/HMM-beads/Images/WhiteBeadChoiceCorrect.png","","","","","","","","","",""
"image-keyboard-response","122","378339","0.0-3.0-4.0-1.0-0.36","62950797c66ad6f3715bb6e6","6662009ae78f21dd82fcd179","66620c03b9b110fb2637581a","380","","j","","","","","","","","./tasks/HMM-beads/Images/NewTrialWC.png","practice","0","36","1","0","1","1","false","",""
"image-keyboard-response","123","378645","0.0-3.0-4.0-1.0-1.36","62950797c66ad6f3715bb6e6","6662009ae78f21dd82fcd179","66620c03b9b110fb2637581a","null","","null","","","","","","","","./tasks/HMM-beads/Images/WhiteBeadChoice.png","","","","","","","","","",""
"image-keyboard-response","124","379154","0.0-3.0-4.0-1.0-2.36","62950797c66ad6f3715bb6e6","6662009ae78f21dd82fcd179","66620c03b9b110fb2637581a","null","","null","","","","","","","","./tasks/HMM-beads/Images/WhiteBeadChoiceWrong.png","","","","","","","","","",""
"image-keyboard-response","125","379522","0.0-3.0-4.0-1.0-0.37","62950797c66ad6f3715bb6e6","6662009ae78f21dd82fcd179","66620c03b9b110fb2637581a","368","","j","","","","","","","","./tasks/HMM-beads/Images/NewTrialBC.png","practice","0","37","1","1","0","1","true","",""
"image-keyboard-response","126","379829","0.0-3.0-4.0-1.0-1.37","62950797c66ad6f3715bb6e6","6662009ae78f21dd82fcd179","66620c03b9b110fb2637581a","null","","null","","","","","","","","./tasks/HMM-beads/Images/WhiteBeadChoice.png","","","","","","","","","",""
"image-keyboard-response","127","380341","0.0-3.0-4.0-1.0-2.37","62950797c66ad6f3715bb6e6","6662009ae78f21dd82fcd179","66620c03b9b110fb2637581a","null","","null","","","","","","","","./tasks/HMM-beads/Images/WhiteBeadChoiceCorrect.png","","","","","","","","","",""
"image-keyboard-response","128","380665","0.0-3.0-4.0-1.0-0.38","62950797c66ad6f3715bb6e6","6662009ae78f21dd82fcd179","66620c03b9b110fb2637581a","323","","j","","","","","","","","./tasks/HMM-beads/Images/NewTrialWC.png","practice","0","38","1","1","1","1","true","",""
"image-keyboard-response","129","380971","0.0-3.0-4.0-1.0-1.38","62950797c66ad6f3715bb6e6","6662009ae78f21dd82fcd179","66620c03b9b110fb2637581a","null","","null","","","","","","","","./tasks/HMM-beads/Images/WhiteBeadChoice.png","","","","","","","","","",""
"image-keyboard-response","130","381480","0.0-3.0-4.0-1.0-2.38","62950797c66ad6f3715bb6e6","6662009ae78f21dd82fcd179","66620c03b9b110fb2637581a","null","","null","","","","","","","","./tasks/HMM-beads/Images/WhiteBeadChoiceCorrect.png","","","","","","","","","",""
"image-keyboard-response","131","381787","0.0-3.0-4.0-1.0-0.39","62950797c66ad6f3715bb6e6","6662009ae78f21dd82fcd179","66620c03b9b110fb2637581a","302","","j","","","","","","","","./tasks/HMM-beads/Images/NewTrialWC.png","practice","0","39","1","1","1","1","true","",""
"image-keyboard-response","132","382096","0.0-3.0-4.0-1.0-1.39","62950797c66ad6f3715bb6e6","6662009ae78f21dd82fcd179","66620c03b9b110fb2637581a","null","","null","","","","","","","","./tasks/HMM-beads/Images/WhiteBeadChoice.png","","","","","","","","","",""
"image-keyboard-response","133","382605","0.0-3.0-4.0-1.0-2.39","62950797c66ad6f3715bb6e6","6662009ae78f21dd82fcd179","66620c03b9b110fb2637581a","null","","null","","","","","","","","./tasks/HMM-beads/Images/WhiteBeadChoiceCorrect.png","","","","","","","","","",""
"html-keyboard-response","134","389604","0.0-3.0-4.0-2.0","62950797c66ad6f3715bb6e6","6662009ae78f21dd82fcd179","66620c03b9b110fb2637581a","6998",""," ","","","","","","","","","","","","","","","","","",""
"instructions","135","417434","0.0-3.0-5.0","62950797c66ad6f3715bb6e6","6662009ae78f21dd82fcd179","66620c03b9b110fb2637581a","27830","","","","[{""page_index"":0,""viewing_time"":22815},{""page_index"":1,""viewing_time"":5014}]","","","","","","","","","","","","","","","",""
"html-keyboard-response","136","432792","0.0-3.0-6.0-0.0","62950797c66ad6f3715bb6e6","6662009ae78f21dd82fcd179","66620c03b9b110fb2637581a","15352",""," ","","","","","","","","<div align=center>In this block, there will be a <b>1% chance</b> that the jar on the next trial will be different from the jar on the current trial.<br><br></div>","","","","","","","","","",""
"image-keyboard-response","137","440663","0.0-3.0-6.0-1.0-0.0","62950797c66ad6f3715bb6e6","6662009ae78f21dd82fcd179","66620c03b9b110fb2637581a","7870","","f","","","","","","","","./tasks/HMM-beads/Images/NoChoice.png","lowH","1","0","1","0","9","0","true","",""
"image-keyboard-response","138","440966","0.0-3.0-6.0-1.0-1.0","62950797c66ad6f3715bb6e6","6662009ae78f21dd82fcd179","66620c03b9b110fb2637581a","null","","null","","","","","","","","./tasks/HMM-beads/Images/BlackBeadChoice.png","","","","","","","","","",""
"image-keyboard-response","139","441468","0.0-3.0-6.0-1.0-2.0","62950797c66ad6f3715bb6e6","6662009ae78f21dd82fcd179","66620c03b9b110fb2637581a","null","","null","","","","","","","","./tasks/HMM-beads/Images/BlackBeadChoiceCorrect.png","","","","","","","","","",""
"image-keyboard-response","140","442174","0.0-3.0-6.0-1.0-0.1","62950797c66ad6f3715bb6e6","6662009ae78f21dd82fcd179","66620c03b9b110fb2637581a","706","","f","","","","","","","","./tasks/HMM-beads/Images/NewTrialBC.png","lowH","1","1","1","1","0","0","false","",""
"image-keyboard-response","141","442480","0.0-3.0-6.0-1.0-1.1","62950797c66ad6f3715bb6e6","6662009ae78f21dd82fcd179","66620c03b9b110fb2637581a","null","","null","","","","","","","","./tasks/HMM-beads/Images/BlackBeadChoice.png","","","","","","","","","",""
"image-keyboard-response","142","442989","0.0-3.0-6.0-1.0-2.1","62950797c66ad6f3715bb6e6","6662009ae78f21dd82fcd179","66620c03b9b110fb2637581a","null","","null","","","","","","","","./tasks/HMM-beads/Images/BlackBeadChoiceWrong.png","","","","","","","","","",""
"image-keyboard-response","143","443513","0.0-3.0-6.0-1.0-0.2","62950797c66ad6f3715bb6e6","6662009ae78f21dd82fcd179","66620c03b9b110fb2637581a","524","","f","","","","","","","","./tasks/HMM-beads/Images/NewTrialWC.png","lowH","1","2","1","1","1","0","false","",""
"image-keyboard-response","144","443820","0.0-3.0-6.0-1.0-1.2","62950797c66ad6f3715bb6e6","6662009ae78f21dd82fcd179","66620c03b9b110fb2637581a","null","","null","","","","","","","","./tasks/HMM-beads/Images/BlackBeadChoice.png","","","","","","","","","",""
"image-keyboard-response","145","444329","0.0-3.0-6.0-1.0-2.2","62950797c66ad6f3715bb6e6","6662009ae78f21dd82fcd179","66620c03b9b110fb2637581a","null","","null","","","","","","","","./tasks/HMM-beads/Images/BlackBeadChoiceWrong.png","","","","","","","","","",""
"image-keyboard-response","146","444864","0.0-3.0-6.0-1.0-0.3","62950797c66ad6f3715bb6e6","6662009ae78f21dd82fcd179","66620c03b9b110fb2637581a","534","","f","","","","","","","","./tasks/HMM-beads/Images/NewTrialWC.png","lowH","1","3","1","1","1","0","false","",""
"image-keyboard-response","147","445168","0.0-3.0-6.0-1.0-1.3","62950797c66ad6f3715bb6e6","6662009ae78f21dd82fcd179","66620c03b9b110fb2637581a","null","","null","","","","","","","","./tasks/HMM-beads/Images/BlackBeadChoice.png","","","","","","","","","",""
"image-keyboard-response","148","445676","0.0-3.0-6.0-1.0-2.3","62950797c66ad6f3715bb6e6","6662009ae78f21dd82fcd179","66620c03b9b110fb2637581a","null","","null","","","","","","","","./tasks/HMM-beads/Images/BlackBeadChoiceWrong.png","","","","","","","","","",""
"image-keyboard-response","149","446456","0.0-3.0-6.0-1.0-0.4","62950797c66ad6f3715bb6e6","6662009ae78f21dd82fcd179","66620c03b9b110fb2637581a","780","","j","","","","","","","","./tasks/HMM-beads/Images/NewTrialWC.png","lowH","1","4","1","1","1","1","true","",""
"image-keyboard-response","150","446765","0.0-3.0-6.0-1.0-1.4","62950797c66ad6f3715bb6e6","6662009ae78f21dd82fcd179","66620c03b9b110fb2637581a","null","","null","","","","","","","","./tasks/HMM-beads/Images/WhiteBeadChoice.png","","","","","","","","","",""
"image-keyboard-response","151","447274","0.0-3.0-6.0-1.0-2.4","62950797c66ad6f3715bb6e6","6662009ae78f21dd82fcd179","66620c03b9b110fb2637581a","null","","null","","","","","","","","./tasks/HMM-beads/Images/WhiteBeadChoiceCorrect.png","","","","","","","","","",""
"image-keyboard-response","152","447592","0.0-3.0-6.0-1.0-0.5","62950797c66ad6f3715bb6e6","6662009ae78f21dd82fcd179","66620c03b9b110fb2637581a","319","","j","","","","","","","","./tasks/HMM-beads/Images/NewTrialWC.png","lowH","1","5","1","1","1","1","true","",""
"image-keyboard-response","153","447897","0.0-3.0-6.0-1.0-1.5","62950797c66ad6f3715bb6e6","6662009ae78f21dd82fcd179","66620c03b9b110fb2637581a","null","","null","","","","","","","","./tasks/HMM-beads/Images/WhiteBeadChoice.png","","","","","","","","","",""
"image-keyboard-response","154","448406","0.0-3.0-6.0-1.0-2.5","62950797c66ad6f3715bb6e6","6662009ae78f21dd82fcd179","66620c03b9b110fb2637581a","null","","null","","","","","","","","./tasks/HMM-beads/Images/WhiteBeadChoiceCorrect.png","","","","","","","","","",""
"image-keyboard-response","155","448722","0.0-3.0-6.0-1.0-0.6","62950797c66ad6f3715bb6e6","6662009ae78f21dd82fcd179","66620c03b9b110fb2637581a","316","","j","","","","","","","","./tasks/HMM-beads/Images/NewTrialWC.png","lowH","1","6","1","0","1","1","false","",""
"image-keyboard-response","156","449029","0.0-3.0-6.0-1.0-1.6","62950797c66ad6f3715bb6e6","6662009ae78f21dd82fcd179","66620c03b9b110fb2637581a","null","","null","","","","","","","","./tasks/HMM-beads/Images/WhiteBeadChoice.png","","","","","","","","","",""
"image-keyboard-response","157","449538","0.0-3.0-6.0-1.0-2.6","62950797c66ad6f3715bb6e6","6662009ae78f21dd82fcd179","66620c03b9b110fb2637581a","null","","null","","","","","","","","./tasks/HMM-beads/Images/WhiteBeadChoiceWrong.png","","","","","","","","","",""
"image-keyboard-response","158","450020","0.0-3.0-6.0-1.0-0.7","62950797c66ad6f3715bb6e6","6662009ae78f21dd82fcd179","66620c03b9b110fb2637581a","482","","j","","","","","","","","./tasks/HMM-beads/Images/NewTrialBC.png","lowH","1","7","1","1","0","1","true","",""
"image-keyboard-response","159","450327","0.0-3.0-6.0-1.0-1.7","62950797c66ad6f3715bb6e6","6662009ae78f21dd82fcd179","66620c03b9b110fb2637581a","null","","null","","","","","","","","./tasks/HMM-beads/Images/WhiteBeadChoice.png","","","","","","","","","",""
"image-keyboard-response","160","450836","0.0-3.0-6.0-1.0-2.7","62950797c66ad6f3715bb6e6","6662009ae78f21dd82fcd179","66620c03b9b110fb2637581a","null","","null","","","","","","","","./tasks/HMM-beads/Images/WhiteBeadChoiceCorrect.png","","","","","","","","","",""
"image-keyboard-response","161","451182","0.0-3.0-6.0-1.0-0.8","62950797c66ad6f3715bb6e6","6662009ae78f21dd82fcd179","66620c03b9b110fb2637581a","346","","j","","","","","","","","./tasks/HMM-beads/Images/NewTrialWC.png","lowH","1","8","1","1","1","1","true","",""
"image-keyboard-response","162","451494","0.0-3.0-6.0-1.0-1.8","62950797c66ad6f3715bb6e6","6662009ae78f21dd82fcd179","66620c03b9b110fb2637581a","null","","null","","","","","","","","./tasks/HMM-beads/Images/WhiteBeadChoice.png","","","","","","","","","",""
"image-keyboard-response","163","452003","0.0-3.0-6.0-1.0-2.8","62950797c66ad6f3715bb6e6","6662009ae78f21dd82fcd179","66620c03b9b110fb2637581a","null","","null","","","","","","","","./tasks/HMM-beads/Images/WhiteBeadChoiceCorrect.png","","","","","","","","","",""
"image-keyboard-response","164","452299","0.0-3.0-6.0-1.0-0.9","62950797c66ad6f3715bb6e6","6662009ae78f21dd82fcd179","66620c03b9b110fb2637581a","295","","j","","","","","","","","./tasks/HMM-beads/Images/NewTrialWC.png","lowH","1","9","1","1","1","1","true","",""
"image-keyboard-response","165","452605","0.0-3.0-6.0-1.0-1.9","62950797c66ad6f3715bb6e6","6662009ae78f21dd82fcd179","66620c03b9b110fb2637581a","null","","null","","","","","","","","./tasks/HMM-beads/Images/WhiteBeadChoice.png","","","","","","","","","",""
"image-keyboard-response","166","453118","0.0-3.0-6.0-1.0-2.9","62950797c66ad6f3715bb6e6","6662009ae78f21dd82fcd179","66620c03b9b110fb2637581a","null","","null","","","","","","","","./tasks/HMM-beads/Images/WhiteBeadChoiceCorrect.png","","","","","","","","","",""
"image-keyboard-response","167","453401","0.0-3.0-6.0-1.0-0.10","62950797c66ad6f3715bb6e6","6662009ae78f21dd82fcd179","66620c03b9b110fb2637581a","282","","j","","","","","","","","./tasks/HMM-beads/Images/NewTrialWC.png","lowH","1","10","1","1","1","1","true","",""
"image-keyboard-response","168","453710","0.0-3.0-6.0-1.0-1.10","62950797c66ad6f3715bb6e6","6662009ae78f21dd82fcd179","66620c03b9b110fb2637581a","null","","null","","","","","","","","./tasks/HMM-beads/Images/WhiteBeadChoice.png","","","","","","","","","",""
"image-keyboard-response","169","454218","0.0-3.0-6.0-1.0-2.10","62950797c66ad6f3715bb6e6","6662009ae78f21dd82fcd179","66620c03b9b110fb2637581a","null","","null","","","","","","","","./tasks/HMM-beads/Images/WhiteBeadChoiceCorrect.png","","","","","","","","","",""
"image-keyboard-response","170","454490","0.0-3.0-6.0-1.0-0.11","62950797c66ad6f3715bb6e6","6662009ae78f21dd82fcd179","66620c03b9b110fb2637581a","271","","j","","","","","","","","./tasks/HMM-beads/Images/NewTrialWC.png","lowH","1","11","1","1","1","1","true","",""
"image-keyboard-response","171","454800","0.0-3.0-6.0-1.0-1.11","62950797c66ad6f3715bb6e6","6662009ae78f21dd82fcd179","66620c03b9b110fb2637581a","null","","null","","","","","","","","./tasks/HMM-beads/Images/WhiteBeadChoice.png","","","","","","","","","",""
"image-keyboard-response","172","455309","0.0-3.0-6.0-1.0-2.11","62950797c66ad6f3715bb6e6","6662009ae78f21dd82fcd179","66620c03b9b110fb2637581a","null","","null","","","","","","","","./tasks/HMM-beads/Images/WhiteBeadChoiceCorrect.png","","","","","","","","","",""
"image-keyboard-response","173","455579","0.0-3.0-6.0-1.0-0.12","62950797c66ad6f3715bb6e6","6662009ae78f21dd82fcd179","66620c03b9b110fb2637581a","269","","j","","","","","","","","./tasks/HMM-beads/Images/NewTrialWC.png","lowH","1","12","1","1","1","1","true","",""
"image-keyboard-response","174","455883","0.0-3.0-6.0-1.0-1.12","62950797c66ad6f3715bb6e6","6662009ae78f21dd82fcd179","66620c03b9b110fb2637581a","null","","null","","","","","","","","./tasks/HMM-beads/Images/WhiteBeadChoice.png","","","","","","","","","",""
"image-keyboard-response","175","456399","0.0-3.0-6.0-1.0-2.12","62950797c66ad6f3715bb6e6","6662009ae78f21dd82fcd179","66620c03b9b110fb2637581a","null","","null","","","","","","","","./tasks/HMM-beads/Images/WhiteBeadChoiceCorrect.png","","","","","","","","","",""
"image-keyboard-response","176","456642","0.0-3.0-6.0-1.0-0.13","62950797c66ad6f3715bb6e6","6662009ae78f21dd82fcd179","66620c03b9b110fb2637581a","242","","j","","","","","","","","./tasks/HMM-beads/Images/NewTrialWC.png","lowH","1","13","1","0","1","1","false","",""
"image-keyboard-response","177","456946","0.0-3.0-6.0-1.0-1.13","62950797c66ad6f3715bb6e6","6662009ae78f21dd82fcd179","66620c03b9b110fb2637581a","null","","null","","","","","","","","./tasks/HMM-beads/Images/WhiteBeadChoice.png","","","","","","","","","",""
"image-keyboard-response","178","457455","0.0-3.0-6.0-1.0-2.13","62950797c66ad6f3715bb6e6","6662009ae78f21dd82fcd179","66620c03b9b110fb2637581a","null","","null","","","","","","","","./tasks/HMM-beads/Images/WhiteBeadChoiceWrong.png","","","","","","","","","",""
"image-keyboard-response","179","457879","0.0-3.0-6.0-1.0-0.14","62950797c66ad6f3715bb6e6","6662009ae78f21dd82fcd179","66620c03b9b110fb2637581a","424","","j","","","","","","","","./tasks/HMM-beads/Images/NewTrialBC.png","lowH","1","14","1","0","0","1","false","",""
"image-keyboard-response","180","458182","0.0-3.0-6.0-1.0-1.14","62950797c66ad6f3715bb6e6","6662009ae78f21dd82fcd179","66620c03b9b110fb2637581a","null","","null","","","","","","","","./tasks/HMM-beads/Images/WhiteBeadChoice.png","","","","","","","","","",""
"image-keyboard-response","181","458691","0.0-3.0-6.0-1.0-2.14","62950797c66ad6f3715bb6e6","6662009ae78f21dd82fcd179","66620c03b9b110fb2637581a","null","","null","","","","","","","","./tasks/HMM-beads/Images/WhiteBeadChoiceWrong.png","","","","","","","","","",""
"image-keyboard-response","182","460897","0.0-3.0-6.0-1.0-0.15","62950797c66ad6f3715bb6e6","6662009ae78f21dd82fcd179","66620c03b9b110fb2637581a","2205","","j","","","","","","","","./tasks/HMM-beads/Images/NewTrialBC.png","lowH","1","15","1","1","0","1","true","",""
"image-keyboard-response","183","461203","0.0-3.0-6.0-1.0-1.15","62950797c66ad6f3715bb6e6","6662009ae78f21dd82fcd179","66620c03b9b110fb2637581a","null","","null","","","","","","","","./tasks/HMM-beads/Images/WhiteBeadChoice.png","","","","","","","","","",""
"image-keyboard-response","184","461712","0.0-3.0-6.0-1.0-2.15","62950797c66ad6f3715bb6e6","6662009ae78f21dd82fcd179","66620c03b9b110fb2637581a","null","","null","","","","","","","","./tasks/HMM-beads/Images/WhiteBeadChoiceCorrect.png","","","","","","","","","",""
"image-keyboard-response","185","462033","0.0-3.0-6.0-1.0-0.16","62950797c66ad6f3715bb6e6","6662009ae78f21dd82fcd179","66620c03b9b110fb2637581a","320","","j","","","","","","","","./tasks/HMM-beads/Images/NewTrialWC.png","lowH","1","16","1","1","1","1","true","",""
"image-keyboard-response","186","462342","0.0-3.0-6.0-1.0-1.16","62950797c66ad6f3715bb6e6","6662009ae78f21dd82fcd179","66620c03b9b110fb2637581a","null","","null","","","","","","","","./tasks/HMM-beads/Images/WhiteBeadChoice.png","","","","","","","","","",""
"image-keyboard-response","187","462851","0.0-3.0-6.0-1.0-2.16","62950797c66ad6f3715bb6e6","6662009ae78f21dd82fcd179","66620c03b9b110fb2637581a","null","","null","","","","","","","","./tasks/HMM-beads/Images/WhiteBeadChoiceCorrect.png","","","","","","","","","",""
"image-keyboard-response","188","463129","0.0-3.0-6.0-1.0-0.17","62950797c66ad6f3715bb6e6","6662009ae78f21dd82fcd179","66620c03b9b110fb2637581a","273","","j","","","","","","","","./tasks/HMM-beads/Images/NewTrialWC.png","lowH","1","17","1","1","1","1","true","",""
"image-keyboard-response","189","463432","0.0-3.0-6.0-1.0-1.17","62950797c66ad6f3715bb6e6","6662009ae78f21dd82fcd179","66620c03b9b110fb2637581a","null","","null","","","","","","","","./tasks/HMM-beads/Images/WhiteBeadChoice.png","","","","","","","","","",""
"image-keyboard-response","190","463941","0.0-3.0-6.0-1.0-2.17","62950797c66ad6f3715bb6e6","6662009ae78f21dd82fcd179","66620c03b9b110fb2637581a","null","","null","","","","","","","","./tasks/HMM-beads/Images/WhiteBeadChoiceCorrect.png","","","","","","","","","",""
"image-keyboard-response","191","464198","0.0-3.0-6.0-1.0-0.18","62950797c66ad6f3715bb6e6","6662009ae78f21dd82fcd179","66620c03b9b110fb2637581a","256","","j","","","","","","","","./tasks/HMM-beads/Images/NewTrialWC.png","lowH","1","18","1","1","1","1","true","",""
"image-keyboard-response","192","464502","0.0-3.0-6.0-1.0-1.18","62950797c66ad6f3715bb6e6","6662009ae78f21dd82fcd179","66620c03b9b110fb2637581a","null","","null","","","","","","","","./tasks/HMM-beads/Images/WhiteBeadChoice.png","","","","","","","","","",""
"image-keyboard-response","193","465010","0.0-3.0-6.0-1.0-2.18","62950797c66ad6f3715bb6e6","6662009ae78f21dd82fcd179","66620c03b9b110fb2637581a","null","","null","","","","","","","","./tasks/HMM-beads/Images/WhiteBeadChoiceCorrect.png","","","","","","","","","",""
"image-keyboard-response","194","465267","0.0-3.0-6.0-1.0-0.19","62950797c66ad6f3715bb6e6","6662009ae78f21dd82fcd179","66620c03b9b110fb2637581a","256","","j","","","","","","","","./tasks/HMM-beads/Images/NewTrialWC.png","lowH","1","19","1","1","1","1","true","",""
"image-keyboard-response","195","465571","0.0-3.0-6.0-1.0-1.19","62950797c66ad6f3715bb6e6","6662009ae78f21dd82fcd179","66620c03b9b110fb2637581a","null","","null","","","","","","","","./tasks/HMM-beads/Images/WhiteBeadChoice.png","","","","","","","","","",""
"image-keyboard-response","196","466080","0.0-3.0-6.0-1.0-2.19","62950797c66ad6f3715bb6e6","6662009ae78f21dd82fcd179","66620c03b9b110fb2637581a","null","","null","","","","","","","","./tasks/HMM-beads/Images/WhiteBeadChoiceCorrect.png","","","","","","","","","",""
"image-keyboard-response","197","466383","0.0-3.0-6.0-1.0-0.20","62950797c66ad6f3715bb6e6","6662009ae78f21dd82fcd179","66620c03b9b110fb2637581a","302","","j","","","","","","","","./tasks/HMM-beads/Images/NewTrialWC.png","lowH","1","20","1","1","1","1","true","",""
"image-keyboard-response","198","466689","0.0-3.0-6.0-1.0-1.20","62950797c66ad6f3715bb6e6","6662009ae78f21dd82fcd179","66620c03b9b110fb2637581a","null","","null","","","","","","","","./tasks/HMM-beads/Images/WhiteBeadChoice.png","","","","","","","","","",""
"image-keyboard-response","199","467198","0.0-3.0-6.0-1.0-2.20","62950797c66ad6f3715bb6e6","6662009ae78f21dd82fcd179","66620c03b9b110fb2637581a","null","","null","","","","","","","","./tasks/HMM-beads/Images/WhiteBeadChoiceCorrect.png","","","","","","","","","",""
"image-keyboard-response","200","467499","0.0-3.0-6.0-1.0-0.21","62950797c66ad6f3715bb6e6","6662009ae78f21dd82fcd179","66620c03b9b110fb2637581a","300","","j","","","","","","","","./tasks/HMM-beads/Images/NewTrialWC.png","lowH","1","21","1","1","1","1","true","",""
"image-keyboard-response","201","467808","0.0-3.0-6.0-1.0-1.21","62950797c66ad6f3715bb6e6","6662009ae78f21dd82fcd179","66620c03b9b110fb2637581a","null","","null","","","","","","","","./tasks/HMM-beads/Images/WhiteBeadChoice.png","","","","","","","","","",""
"image-keyboard-response","202","468316","0.0-3.0-6.0-1.0-2.21","62950797c66ad6f3715bb6e6","6662009ae78f21dd82fcd179","66620c03b9b110fb2637581a","null","","null","","","","","","","","./tasks/HMM-beads/Images/WhiteBeadChoiceCorrect.png","","","","","","","","","",""
"image-keyboard-response","203","468588","0.0-3.0-6.0-1.0-0.22","62950797c66ad6f3715bb6e6","6662009ae78f21dd82fcd179","66620c03b9b110fb2637581a","271","","j","","","","","","","","./tasks/HMM-beads/Images/NewTrialWC.png","lowH","1","22","1","1","1","1","true","",""
"image-keyboard-response","204","468891","0.0-3.0-6.0-1.0-1.22","62950797c66ad6f3715bb6e6","6662009ae78f21dd82fcd179","66620c03b9b110fb2637581a","null","","null","","","","","","","","./tasks/HMM-beads/Images/WhiteBeadChoice.png","","","","","","","","","",""
"image-keyboard-response","205","469400","0.0-3.0-6.0-1.0-2.22","62950797c66ad6f3715bb6e6","6662009ae78f21dd82fcd179","66620c03b9b110fb2637581a","null","","null","","","","","","","","./tasks/HMM-beads/Images/WhiteBeadChoiceCorrect.png","","","","","","","","","",""
"image-keyboard-response","206","469596","0.0-3.0-6.0-1.0-0.23","62950797c66ad6f3715bb6e6","6662009ae78f21dd82fcd179","66620c03b9b110fb2637581a","196","","j","","","","","","","","./tasks/HMM-beads/Images/NewTrialWC.png","lowH","1","23","1","1","1","1","true","",""
"image-keyboard-response","207","469905","0.0-3.0-6.0-1.0-1.23","62950797c66ad6f3715bb6e6","6662009ae78f21dd82fcd179","66620c03b9b110fb2637581a","null","","null","","","","","","","","./tasks/HMM-beads/Images/WhiteBeadChoice.png","","","","","","","","","",""
"image-keyboard-response","208","470414","0.0-3.0-6.0-1.0-2.23","62950797c66ad6f3715bb6e6","6662009ae78f21dd82fcd179","66620c03b9b110fb2637581a","null","","null","","","","","","","","./tasks/HMM-beads/Images/WhiteBeadChoiceCorrect.png","","","","","","","","","",""
"image-keyboard-response","209","470679","0.0-3.0-6.0-1.0-0.24","62950797c66ad6f3715bb6e6","6662009ae78f21dd82fcd179","66620c03b9b110fb2637581a","265","","j","","","","","","","","./tasks/HMM-beads/Images/NewTrialWC.png","lowH","1","24","1","0","1","1","false","",""
"image-keyboard-response","210","470988","0.0-3.0-6.0-1.0-1.24","62950797c66ad6f3715bb6e6","6662009ae78f21dd82fcd179","66620c03b9b110fb2637581a","null","","null","","","","","","","","./tasks/HMM-beads/Images/WhiteBeadChoice.png","","","","","","","","","",""
"image-keyboard-response","211","471497","0.0-3.0-6.0-1.0-2.24","62950797c66ad6f3715bb6e6","6662009ae78f21dd82fcd179","66620c03b9b110fb2637581a","null","","null","","","","","","","","./tasks/HMM-beads/Images/WhiteBeadChoiceWrong.png","","","","","","","","","",""
"image-keyboard-response","212","471747","0.0-3.0-6.0-1.0-0.25","62950797c66ad6f3715bb6e6","6662009ae78f21dd82fcd179","66620c03b9b110fb2637581a","249","","j","","","","","","","","./tasks/HMM-beads/Images/NewTrialBC.png","lowH","1","25","1","1","0","1","true","",""
"image-keyboard-response","213","472051","0.0-3.0-6.0-1.0-1.25","62950797c66ad6f3715bb6e6","6662009ae78f21dd82fcd179","66620c03b9b110fb2637581a","null","","null","","","","","","","","./tasks/HMM-beads/Images/WhiteBeadChoice.png","","","","","","","","","",""
"image-keyboard-response","214","472566","0.0-3.0-6.0-1.0-2.25","62950797c66ad6f3715bb6e6","6662009ae78f21dd82fcd179","66620c03b9b110fb2637581a","null","","null","","","","","","","","./tasks/HMM-beads/Images/WhiteBeadChoiceCorrect.png","","","","","","","","","",""
"image-keyboard-response","215","472675","0.0-3.0-6.0-1.0-0.26","62950797c66ad6f3715bb6e6","6662009ae78f21dd82fcd179","66620c03b9b110fb2637581a","108","","j","","","","","","","","./tasks/HMM-beads/Images/NewTrialWC.png","lowH","1","26","1","0","1","1","false","",""
"image-keyboard-response","216","472981","0.0-3.0-6.0-1.0-1.26","62950797c66ad6f3715bb6e6","6662009ae78f21dd82fcd179","66620c03b9b110fb2637581a","null","","null","","","","","","","","./tasks/HMM-beads/Images/WhiteBeadChoice.png","","","","","","","","","",""
"image-keyboard-response","217","473490","0.0-3.0-6.0-1.0-2.26","62950797c66ad6f3715bb6e6","6662009ae78f21dd82fcd179","66620c03b9b110fb2637581a","null","","null","","","","","","","","./tasks/HMM-beads/Images/WhiteBeadChoiceWrong.png","","","","","","","","","",""
"image-keyboard-response","218","473650","0.0-3.0-6.0-1.0-0.27","62950797c66ad6f3715bb6e6","6662009ae78f21dd82fcd179","66620c03b9b110fb2637581a","159","","j","","","","","","","","./tasks/HMM-beads/Images/NewTrialBC.png","lowH","1","27","1","1","0","1","true","",""
"image-keyboard-response","219","473954","0.0-3.0-6.0-1.0-1.27","62950797c66ad6f3715bb6e6","6662009ae78f21dd82fcd179","66620c03b9b110fb2637581a","null","","null","","","","","","","","./tasks/HMM-beads/Images/WhiteBeadChoice.png","","","","","","","","","",""
"image-keyboard-response","220","474462","0.0-3.0-6.0-1.0-2.27","62950797c66ad6f3715bb6e6","6662009ae78f21dd82fcd179","66620c03b9b110fb2637581a","null","","null","","","","","","","","./tasks/HMM-beads/Images/WhiteBeadChoiceCorrect.png","","","","","","","","","",""
"image-keyboard-response","221","474524","0.0-3.0-6.0-1.0-0.28","62950797c66ad6f3715bb6e6","6662009ae78f21dd82fcd179","66620c03b9b110fb2637581a","61","","j","","","","","","","","./tasks/HMM-beads/Images/NewTrialWC.png","lowH","1","28","1","1","1","1","true","",""
"image-keyboard-response","222","474829","0.0-3.0-6.0-1.0-1.28","62950797c66ad6f3715bb6e6","6662009ae78f21dd82fcd179","66620c03b9b110fb2637581a","null","","null","","","","","","","","./tasks/HMM-beads/Images/WhiteBeadChoice.png","","","","","","","","","",""
"image-keyboard-response","223","475335","0.0-3.0-6.0-1.0-2.28","62950797c66ad6f3715bb6e6","6662009ae78f21dd82fcd179","66620c03b9b110fb2637581a","null","","null","","","","","","","","./tasks/HMM-beads/Images/WhiteBeadChoiceCorrect.png","","","","","","","","","",""
"image-keyboard-response","224","476648","0.0-3.0-6.0-1.0-0.29","62950797c66ad6f3715bb6e6","6662009ae78f21dd82fcd179","66620c03b9b110fb2637581a","1312","","j","","","","","","","","./tasks/HMM-beads/Images/NewTrialWC.png","lowH","1","29","1","1","1","1","true","",""
"image-keyboard-response","225","476954","0.0-3.0-6.0-1.0-1.29","62950797c66ad6f3715bb6e6","6662009ae78f21dd82fcd179","66620c03b9b110fb2637581a","null","","null","","","","","","","","./tasks/HMM-beads/Images/WhiteBeadChoice.png","","","","","","","","","",""
"image-keyboard-response","226","477462","0.0-3.0-6.0-1.0-2.29","62950797c66ad6f3715bb6e6","6662009ae78f21dd82fcd179","66620c03b9b110fb2637581a","null","","null","","","","","","","","./tasks/HMM-beads/Images/WhiteBeadChoiceCorrect.png","","","","","","","","","",""
"image-keyboard-response","227","477657","0.0-3.0-6.0-1.0-0.30","62950797c66ad6f3715bb6e6","6662009ae78f21dd82fcd179","66620c03b9b110fb2637581a","189","","j","","","","","","","","./tasks/HMM-beads/Images/NewTrialWC.png","lowH","1","30","1","1","1","1","true","",""
"image-keyboard-response","228","477961","0.0-3.0-6.0-1.0-1.30","62950797c66ad6f3715bb6e6","6662009ae78f21dd82fcd179","66620c03b9b110fb2637581a","null","","null","","","","","","","","./tasks/HMM-beads/Images/WhiteBeadChoice.png","","","","","","","","","",""
"image-keyboard-response","229","478469","0.0-3.0-6.0-1.0-2.30","62950797c66ad6f3715bb6e6","6662009ae78f21dd82fcd179","66620c03b9b110fb2637581a","null","","null","","","","","","","","./tasks/HMM-beads/Images/WhiteBeadChoiceCorrect.png","","","","","","","","","",""
"image-keyboard-response","230","478618","0.0-3.0-6.0-1.0-0.31","62950797c66ad6f3715bb6e6","6662009ae78f21dd82fcd179","66620c03b9b110fb2637581a","148","","j","","","","","","","","./tasks/HMM-beads/Images/NewTrialWC.png","lowH","1","31","1","1","1","1","true","",""
"image-keyboard-response","231","478926","0.0-3.0-6.0-1.0-1.31","62950797c66ad6f3715bb6e6","6662009ae78f21dd82fcd179","66620c03b9b110fb2637581a","null","","null","","","","","","","","./tasks/HMM-beads/Images/WhiteBeadChoice.png","","","","","","","","","",""
"image-keyboard-response","232","479435","0.0-3.0-6.0-1.0-2.31","62950797c66ad6f3715bb6e6","6662009ae78f21dd82fcd179","66620c03b9b110fb2637581a","null","","null","","","","","","","","./tasks/HMM-beads/Images/WhiteBeadChoiceCorrect.png","","","","","","","","","",""
"image-keyboard-response","233","479593","0.0-3.0-6.0-1.0-0.32","62950797c66ad6f3715bb6e6","6662009ae78f21dd82fcd179","66620c03b9b110fb2637581a","157","","j","","","","","","","","./tasks/HMM-beads/Images/NewTrialWC.png","lowH","1","32","1","1","1","1","true","",""
"image-keyboard-response","234","479898","0.0-3.0-6.0-1.0-1.32","62950797c66ad6f3715bb6e6","6662009ae78f21dd82fcd179","66620c03b9b110fb2637581a","null","","null","","","","","","","","./tasks/HMM-beads/Images/WhiteBeadChoice.png","","","","","","","","","",""
"image-keyboard-response","235","480407","0.0-3.0-6.0-1.0-2.32","62950797c66ad6f3715bb6e6","6662009ae78f21dd82fcd179","66620c03b9b110fb2637581a","null","","null","","","","","","","","./tasks/HMM-beads/Images/WhiteBeadChoiceCorrect.png","","","","","","","","","",""
"image-keyboard-response","236","480547","0.0-3.0-6.0-1.0-0.33","62950797c66ad6f3715bb6e6","6662009ae78f21dd82fcd179","66620c03b9b110fb2637581a","139","","j","","","","","","","","./tasks/HMM-beads/Images/NewTrialWC.png","lowH","1","33","1","1","1","1","true","",""
"image-keyboard-response","237","480850","0.0-3.0-6.0-1.0-1.33","62950797c66ad6f3715bb6e6","6662009ae78f21dd82fcd179","66620c03b9b110fb2637581a","null","","null","","","","","","","","./tasks/HMM-beads/Images/WhiteBeadChoice.png","","","","","","","","","",""
"image-keyboard-response","238","481358","0.0-3.0-6.0-1.0-2.33","62950797c66ad6f3715bb6e6","6662009ae78f21dd82fcd179","66620c03b9b110fb2637581a","null","","null","","","","","","","","./tasks/HMM-beads/Images/WhiteBeadChoiceCorrect.png","","","","","","","","","",""
"image-keyboard-response","239","481515","0.0-3.0-6.0-1.0-0.34","62950797c66ad6f3715bb6e6","6662009ae78f21dd82fcd179","66620c03b9b110fb2637581a","156","","j","","","","","","","","./tasks/HMM-beads/Images/NewTrialWC.png","lowH","1","34","1","1","1","1","true","",""
"image-keyboard-response","240","481822","0.0-3.0-6.0-1.0-1.34","62950797c66ad6f3715bb6e6","6662009ae78f21dd82fcd179","66620c03b9b110fb2637581a","null","","null","","","","","","","","./tasks/HMM-beads/Images/WhiteBeadChoice.png","","","","","","","","","",""
"image-keyboard-response","241","482324","0.0-3.0-6.0-1.0-2.34","62950797c66ad6f3715bb6e6","6662009ae78f21dd82fcd179","66620c03b9b110fb2637581a","null","","null","","","","","","","","./tasks/HMM-beads/Images/WhiteBeadChoiceCorrect.png","","","","","","","","","",""
"image-keyboard-response","242","482464","0.0-3.0-6.0-1.0-0.35","62950797c66ad6f3715bb6e6","6662009ae78f21dd82fcd179","66620c03b9b110fb2637581a","145","","j","","","","","","","","./tasks/HMM-beads/Images/NewTrialWC.png","lowH","1","35","1","1","1","1","true","",""
"image-keyboard-response","243","482777","0.0-3.0-6.0-1.0-1.35","62950797c66ad6f3715bb6e6","6662009ae78f21dd82fcd179","66620c03b9b110fb2637581a","null","","null","","","","","","","","./tasks/HMM-beads/Images/WhiteBeadChoice.png","","","","","","","","","",""
"image-keyboard-response","244","483293","0.0-3.0-6.0-1.0-2.35","62950797c66ad6f3715bb6e6","6662009ae78f21dd82fcd179","66620c03b9b110fb2637581a","null","","null","","","","","","","","./tasks/HMM-beads/Images/WhiteBeadChoiceCorrect.png","","","","","","","","","",""
"image-keyboard-response","245","483573","0.0-3.0-6.0-1.0-0.36","62950797c66ad6f3715bb6e6","6662009ae78f21dd82fcd179","66620c03b9b110fb2637581a","280","","j","","","","","","","","./tasks/HMM-beads/Images/NewTrialWC.png","lowH","1","36","1","1","1","1","true","",""
"image-keyboard-response","246","483890","0.0-3.0-6.0-1.0-1.36","62950797c66ad6f3715bb6e6","6662009ae78f21dd82fcd179","66620c03b9b110fb2637581a","null","","null","","","","","","","","./tasks/HMM-beads/Images/WhiteBeadChoice.png","","","","","","","","","",""
"image-keyboard-response","247","484403","0.0-3.0-6.0-1.0-2.36","62950797c66ad6f3715bb6e6","6662009ae78f21dd82fcd179","66620c03b9b110fb2637581a","null","","null","","","","","","","","./tasks/HMM-beads/Images/WhiteBeadChoiceCorrect.png","","","","","","","","","",""
"image-keyboard-response","248","484568","0.0-3.0-6.0-1.0-0.37","62950797c66ad6f3715bb6e6","6662009ae78f21dd82fcd179","66620c03b9b110fb2637581a","165","","j","","","","","","","","./tasks/HMM-beads/Images/NewTrialWC.png","lowH","1","37","1","1","1","1","true","",""
"image-keyboard-response","249","484881","0.0-3.0-6.0-1.0-1.37","62950797c66ad6f3715bb6e6","6662009ae78f21dd82fcd179","66620c03b9b110fb2637581a","null","","null","","","","","","","","./tasks/HMM-beads/Images/WhiteBeadChoice.png","","","","","","","","","",""
"image-keyboard-response","250","485397","0.0-3.0-6.0-1.0-2.37","62950797c66ad6f3715bb6e6","6662009ae78f21dd82fcd179","66620c03b9b110fb2637581a","null","","null","","","","","","","","./tasks/HMM-beads/Images/WhiteBeadChoiceCorrect.png","","","","","","","","","",""
"image-keyboard-response","251","485598","0.0-3.0-6.0-1.0-0.38","62950797c66ad6f3715bb6e6","6662009ae78f21dd82fcd179","66620c03b9b110fb2637581a","200","","j","","","","","","","","./tasks/HMM-beads/Images/NewTrialWC.png","lowH","1","38","1","1","1","1","true","",""
"image-keyboard-response","252","485908","0.0-3.0-6.0-1.0-1.38","62950797c66ad6f3715bb6e6","6662009ae78f21dd82fcd179","66620c03b9b110fb2637581a","null","","null","","","","","","","","./tasks/HMM-beads/Images/WhiteBeadChoice.png","","","","","","","","","",""
"image-keyboard-response","253","486416","0.0-3.0-6.0-1.0-2.38","62950797c66ad6f3715bb6e6","6662009ae78f21dd82fcd179","66620c03b9b110fb2637581a","null","","null","","","","","","","","./tasks/HMM-beads/Images/WhiteBeadChoiceCorrect.png","","","","","","","","","",""
"image-keyboard-response","254","486511","0.0-3.0-6.0-1.0-0.39","62950797c66ad6f3715bb6e6","6662009ae78f21dd82fcd179","66620c03b9b110fb2637581a","95","","j","","","","","","","","./tasks/HMM-beads/Images/NewTrialWC.png","lowH","1","39","1","1","1","1","true","",""
"image-keyboard-response","255","486826","0.0-3.0-6.0-1.0-1.39","62950797c66ad6f3715bb6e6","6662009ae78f21dd82fcd179","66620c03b9b110fb2637581a","null","","null","","","","","","","","./tasks/HMM-beads/Images/WhiteBeadChoice.png","","","","","","","","","",""
"image-keyboard-response","256","487341","0.0-3.0-6.0-1.0-2.39","62950797c66ad6f3715bb6e6","6662009ae78f21dd82fcd179","66620c03b9b110fb2637581a","null","","null","","","","","","","","./tasks/HMM-beads/Images/WhiteBeadChoiceCorrect.png","","","","","","","","","",""
"image-keyboard-response","257","487466","0.0-3.0-6.0-1.0-0.40","62950797c66ad6f3715bb6e6","6662009ae78f21dd82fcd179","66620c03b9b110fb2637581a","124","","j","","","","","","","","./tasks/HMM-beads/Images/NewTrialWC.png","lowH","1","40","1","1","1","1","true","",""
"image-keyboard-response","258","487769","0.0-3.0-6.0-1.0-1.40","62950797c66ad6f3715bb6e6","6662009ae78f21dd82fcd179","66620c03b9b110fb2637581a","null","","null","","","","","","","","./tasks/HMM-beads/Images/WhiteBeadChoice.png","","","","","","","","","",""
"image-keyboard-response","259","488270","0.0-3.0-6.0-1.0-2.40","62950797c66ad6f3715bb6e6","6662009ae78f21dd82fcd179","66620c03b9b110fb2637581a","null","","null","","","","","","","","./tasks/HMM-beads/Images/WhiteBeadChoiceCorrect.png","","","","","","","","","",""
"image-keyboard-response","260","488434","0.0-3.0-6.0-1.0-0.41","62950797c66ad6f3715bb6e6","6662009ae78f21dd82fcd179","66620c03b9b110fb2637581a","164","","j","","","","","","","","./tasks/HMM-beads/Images/NewTrialWC.png","lowH","1","41","1","1","1","1","true","",""
"image-keyboard-response","261","488750","0.0-3.0-6.0-1.0-1.41","62950797c66ad6f3715bb6e6","6662009ae78f21dd82fcd179","66620c03b9b110fb2637581a","null","","null","","","","","","","","./tasks/HMM-beads/Images/WhiteBeadChoice.png","","","","","","","","","",""
"image-keyboard-response","262","489265","0.0-3.0-6.0-1.0-2.41","62950797c66ad6f3715bb6e6","6662009ae78f21dd82fcd179","66620c03b9b110fb2637581a","null","","null","","","","","","","","./tasks/HMM-beads/Images/WhiteBeadChoiceCorrect.png","","","","","","","","","",""
"image-keyboard-response","263","489408","0.0-3.0-6.0-1.0-0.42","62950797c66ad6f3715bb6e6","6662009ae78f21dd82fcd179","66620c03b9b110fb2637581a","143","","j","","","","","","","","./tasks/HMM-beads/Images/NewTrialWC.png","lowH","1","42","1","1","1","1","true","",""
"image-keyboard-response","264","489722","0.0-3.0-6.0-1.0-1.42","62950797c66ad6f3715bb6e6","6662009ae78f21dd82fcd179","66620c03b9b110fb2637581a","null","","null","","","","","","","","./tasks/HMM-beads/Images/WhiteBeadChoice.png","","","","","","","","","",""
"image-keyboard-response","265","490237","0.0-3.0-6.0-1.0-2.42","62950797c66ad6f3715bb6e6","6662009ae78f21dd82fcd179","66620c03b9b110fb2637581a","null","","null","","","","","","","","./tasks/HMM-beads/Images/WhiteBeadChoiceCorrect.png","","","","","","","","","",""
"image-keyboard-response","266","490403","0.0-3.0-6.0-1.0-0.43","62950797c66ad6f3715bb6e6","6662009ae78f21dd82fcd179","66620c03b9b110fb2637581a","161","","j","","","","","","","","./tasks/HMM-beads/Images/NewTrialWC.png","lowH","1","43","1","1","1","1","true","",""
"image-keyboard-response","267","490714","0.0-3.0-6.0-1.0-1.43","62950797c66ad6f3715bb6e6","6662009ae78f21dd82fcd179","66620c03b9b110fb2637581a","null","","null","","","","","","","","./tasks/HMM-beads/Images/WhiteBeadChoice.png","","","","","","","","","",""
"image-keyboard-response","268","491215","0.0-3.0-6.0-1.0-2.43","62950797c66ad6f3715bb6e6","6662009ae78f21dd82fcd179","66620c03b9b110fb2637581a","null","","null","","","","","","","","./tasks/HMM-beads/Images/WhiteBeadChoiceCorrect.png","","","","","","","","","",""
"image-keyboard-response","269","491391","0.0-3.0-6.0-1.0-0.44","62950797c66ad6f3715bb6e6","6662009ae78f21dd82fcd179","66620c03b9b110fb2637581a","176","","j","","","","","","","","./tasks/HMM-beads/Images/NewTrialWC.png","lowH","1","44","1","1","1","1","true","",""
"image-keyboard-response","270","491692","0.0-3.0-6.0-1.0-1.44","62950797c66ad6f3715bb6e6","6662009ae78f21dd82fcd179","66620c03b9b110fb2637581a","null","","null","","","","","","","","./tasks/HMM-beads/Images/WhiteBeadChoice.png","","","","","","","","","",""
"image-keyboard-response","271","492194","0.0-3.0-6.0-1.0-2.44","62950797c66ad6f3715bb6e6","6662009ae78f21dd82fcd179","66620c03b9b110fb2637581a","null","","null","","","","","","","","./tasks/HMM-beads/Images/WhiteBeadChoiceCorrect.png","","","","","","","","","",""
"image-keyboard-response","272","492474","0.0-3.0-6.0-1.0-0.45","62950797c66ad6f3715bb6e6","6662009ae78f21dd82fcd179","66620c03b9b110fb2637581a","280","","j","","","","","","","","./tasks/HMM-beads/Images/NewTrialWC.png","lowH","1","45","1","1","1","1","true","",""
"image-keyboard-response","273","492776","0.0-3.0-6.0-1.0-1.45","62950797c66ad6f3715bb6e6","6662009ae78f21dd82fcd179","66620c03b9b110fb2637581a","null","","null","","","","","","","","./tasks/HMM-beads/Images/WhiteBeadChoice.png","","","","","","","","","",""
"image-keyboard-response","274","493277","0.0-3.0-6.0-1.0-2.45","62950797c66ad6f3715bb6e6","6662009ae78f21dd82fcd179","66620c03b9b110fb2637581a","null","","null","","","","","","","","./tasks/HMM-beads/Images/WhiteBeadChoiceCorrect.png","","","","","","","","","",""
"image-keyboard-response","275","493523","0.0-3.0-6.0-1.0-0.46","62950797c66ad6f3715bb6e6","6662009ae78f21dd82fcd179","66620c03b9b110fb2637581a","246","","j","","","","","","","","./tasks/HMM-beads/Images/NewTrialWC.png","lowH","1","46","1","1","1","1","true","",""
"image-keyboard-response","276","493840","0.0-3.0-6.0-1.0-1.46","62950797c66ad6f3715bb6e6","6662009ae78f21dd82fcd179","66620c03b9b110fb2637581a","null","","null","","","","","","","","./tasks/HMM-beads/Images/WhiteBeadChoice.png","","","","","","","","","",""
"image-keyboard-response","277","494356","0.0-3.0-6.0-1.0-2.46","62950797c66ad6f3715bb6e6","6662009ae78f21dd82fcd179","66620c03b9b110fb2637581a","null","","null","","","","","","","","./tasks/HMM-beads/Images/WhiteBeadChoiceCorrect.png","","","","","","","","","",""
"image-keyboard-response","278","494551","0.0-3.0-6.0-1.0-0.47","62950797c66ad6f3715bb6e6","6662009ae78f21dd82fcd179","66620c03b9b110fb2637581a","195","","j","","","","","","","","./tasks/HMM-beads/Images/NewTrialWC.png","lowH","1","47","1","0","1","1","false","",""
"image-keyboard-response","279","494859","0.0-3.0-6.0-1.0-1.47","62950797c66ad6f3715bb6e6","6662009ae78f21dd82fcd179","66620c03b9b110fb2637581a","null","","null","","","","","","","","./tasks/HMM-beads/Images/WhiteBeadChoice.png","","","","","","","","","",""
"image-keyboard-response","280","495361","0.0-3.0-6.0-1.0-2.47","62950797c66ad6f3715bb6e6","6662009ae78f21dd82fcd179","66620c03b9b110fb2637581a","null","","null","","","","","","","","./tasks/HMM-beads/Images/WhiteBeadChoiceWrong.png","","","","","","","","","",""
"image-keyboard-response","281","495722","0.0-3.0-6.0-1.0-0.48","62950797c66ad6f3715bb6e6","6662009ae78f21dd82fcd179","66620c03b9b110fb2637581a","360","","j","","","","","","","","./tasks/HMM-beads/Images/NewTrialBC.png","lowH","1","48","1","0","0","1","false","",""
"image-keyboard-response","282","496035","0.0-3.0-6.0-1.0-1.48","62950797c66ad6f3715bb6e6","6662009ae78f21dd82fcd179","66620c03b9b110fb2637581a","null","","null","","","","","","","","./tasks/HMM-beads/Images/WhiteBeadChoice.png","","","","","","","","","",""
"image-keyboard-response","283","496550","0.0-3.0-6.0-1.0-2.48","62950797c66ad6f3715bb6e6","6662009ae78f21dd82fcd179","66620c03b9b110fb2637581a","null","","null","","","","","","","","./tasks/HMM-beads/Images/WhiteBeadChoiceWrong.png","","","","","","","","","",""
"image-keyboard-response","284","496756","0.0-3.0-6.0-1.0-0.49","62950797c66ad6f3715bb6e6","6662009ae78f21dd82fcd179","66620c03b9b110fb2637581a","206","","j","","","","","","","","./tasks/HMM-beads/Images/NewTrialBC.png","lowH","1","49","1","0","0","1","false","",""
"image-keyboard-response","285","497069","0.0-3.0-6.0-1.0-1.49","62950797c66ad6f3715bb6e6","6662009ae78f21dd82fcd179","66620c03b9b110fb2637581a","null","","null","","","","","","","","./tasks/HMM-beads/Images/WhiteBeadChoice.png","","","","","","","","","",""
"image-keyboard-response","286","497578","0.0-3.0-6.0-1.0-2.49","62950797c66ad6f3715bb6e6","6662009ae78f21dd82fcd179","66620c03b9b110fb2637581a","null","","null","","","","","","","","./tasks/HMM-beads/Images/WhiteBeadChoiceWrong.png","","","","","","","","","",""
"image-keyboard-response","287","498657","0.0-3.0-6.0-1.0-0.50","62950797c66ad6f3715bb6e6","6662009ae78f21dd82fcd179","66620c03b9b110fb2637581a","1079","","f","","","","","","","","./tasks/HMM-beads/Images/NewTrialBC.png","lowH","1","50","1","1","0","0","false","",""
"image-keyboard-response","288","498972","0.0-3.0-6.0-1.0-1.50","62950797c66ad6f3715bb6e6","6662009ae78f21dd82fcd179","66620c03b9b110fb2637581a","null","","null","","","","","","","","./tasks/HMM-beads/Images/BlackBeadChoice.png","","","","","","","","","",""
"image-keyboard-response","289","499480","0.0-3.0-6.0-1.0-2.50","62950797c66ad6f3715bb6e6","6662009ae78f21dd82fcd179","66620c03b9b110fb2637581a","null","","null","","","","","","","","./tasks/HMM-beads/Images/BlackBeadChoiceWrong.png","","","","","","","","","",""
"image-keyboard-response","290","499746","0.0-3.0-6.0-1.0-0.51","62950797c66ad6f3715bb6e6","6662009ae78f21dd82fcd179","66620c03b9b110fb2637581a","266","","f","","","","","","","","./tasks/HMM-beads/Images/NewTrialWC.png","lowH","1","51","1","1","1","0","false","",""
"image-keyboard-response","291","500063","0.0-3.0-6.0-1.0-1.51","62950797c66ad6f3715bb6e6","6662009ae78f21dd82fcd179","66620c03b9b110fb2637581a","null","","null","","","","","","","","./tasks/HMM-beads/Images/BlackBeadChoice.png","","","","","","","","","",""
"image-keyboard-response","292","500569","0.0-3.0-6.0-1.0-2.51","62950797c66ad6f3715bb6e6","6662009ae78f21dd82fcd179","66620c03b9b110fb2637581a","null","","null","","","","","","","","./tasks/HMM-beads/Images/BlackBeadChoiceWrong.png","","","","","","","","","",""
"image-keyboard-response","293","500969","0.0-3.0-6.0-1.0-0.52","62950797c66ad6f3715bb6e6","6662009ae78f21dd82fcd179","66620c03b9b110fb2637581a","400","","f","","","","","","","","./tasks/HMM-beads/Images/NewTrialWC.png","lowH","1","52","1","1","1","0","false","",""
"image-keyboard-response","294","501285","0.0-3.0-6.0-1.0-1.52","62950797c66ad6f3715bb6e6","6662009ae78f21dd82fcd179","66620c03b9b110fb2637581a","null","","null","","","","","","","","./tasks/HMM-beads/Images/BlackBeadChoice.png","","","","","","","","","",""
"image-keyboard-response","295","501800","0.0-3.0-6.0-1.0-2.52","62950797c66ad6f3715bb6e6","6662009ae78f21dd82fcd179","66620c03b9b110fb2637581a","null","","null","","","","","","","","./tasks/HMM-beads/Images/BlackBeadChoiceWrong.png","","","","","","","","","",""
"image-keyboard-response","296","501964","0.0-3.0-6.0-1.0-0.53","62950797c66ad6f3715bb6e6","6662009ae78f21dd82fcd179","66620c03b9b110fb2637581a","163","","j","","","","","","","","./tasks/HMM-beads/Images/NewTrialWC.png","lowH","1","53","1","1","1","1","true","",""
"image-keyboard-response","297","502278","0.0-3.0-6.0-1.0-1.53","62950797c66ad6f3715bb6e6","6662009ae78f21dd82fcd179","66620c03b9b110fb2637581a","null","","null","","","","","","","","./tasks/HMM-beads/Images/WhiteBeadChoice.png","","","","","","","","","",""
"image-keyboard-response","298","502794","0.0-3.0-6.0-1.0-2.53","62950797c66ad6f3715bb6e6","6662009ae78f21dd82fcd179","66620c03b9b110fb2637581a","null","","null","","","","","","","","./tasks/HMM-beads/Images/WhiteBeadChoiceCorrect.png","","","","","","","","","",""
"image-keyboard-response","299","503086","0.0-3.0-6.0-1.0-0.54","62950797c66ad6f3715bb6e6","6662009ae78f21dd82fcd179","66620c03b9b110fb2637581a","292","","j","","","","","","","","./tasks/HMM-beads/Images/NewTrialWC.png","lowH","1","54","1","1","1","1","true","",""
"image-keyboard-response","300","503387","0.0-3.0-6.0-1.0-1.54","62950797c66ad6f3715bb6e6","6662009ae78f21dd82fcd179","66620c03b9b110fb2637581a","null","","null","","","","","","","","./tasks/HMM-beads/Images/WhiteBeadChoice.png","","","","","","","","","",""
"image-keyboard-response","301","503889","0.0-3.0-6.0-1.0-2.54","62950797c66ad6f3715bb6e6","6662009ae78f21dd82fcd179","66620c03b9b110fb2637581a","null","","null","","","","","","","","./tasks/HMM-beads/Images/WhiteBeadChoiceCorrect.png","","","","","","","","","",""
"image-keyboard-response","302","504262","0.0-3.0-6.0-1.0-0.55","62950797c66ad6f3715bb6e6","6662009ae78f21dd82fcd179","66620c03b9b110fb2637581a","373","","j","","","","","","","","./tasks/HMM-beads/Images/NewTrialWC.png","lowH","1","55","1","1","1","1","true","",""
"image-keyboard-response","303","504577","0.0-3.0-6.0-1.0-1.55","62950797c66ad6f3715bb6e6","6662009ae78f21dd82fcd179","66620c03b9b110fb2637581a","null","","null","","","","","","","","./tasks/HMM-beads/Images/WhiteBeadChoice.png","","","","","","","","","",""
"image-keyboard-response","304","505092","0.0-3.0-6.0-1.0-2.55","62950797c66ad6f3715bb6e6","6662009ae78f21dd82fcd179","66620c03b9b110fb2637581a","null","","null","","","","","","","","./tasks/HMM-beads/Images/WhiteBeadChoiceCorrect.png","","","","","","","","","",""
"image-keyboard-response","305","505425","0.0-3.0-6.0-1.0-0.56","62950797c66ad6f3715bb6e6","6662009ae78f21dd82fcd179","66620c03b9b110fb2637581a","333","","j","","","","","","","","./tasks/HMM-beads/Images/NewTrialWC.png","lowH","1","56","1","1","1","1","true","",""
"image-keyboard-response","306","505736","0.0-3.0-6.0-1.0-1.56","62950797c66ad6f3715bb6e6","6662009ae78f21dd82fcd179","66620c03b9b110fb2637581a","null","","null","","","","","","","","./tasks/HMM-beads/Images/WhiteBeadChoice.png","","","","","","","","","",""
"image-keyboard-response","307","506236","0.0-3.0-6.0-1.0-2.56","62950797c66ad6f3715bb6e6","6662009ae78f21dd82fcd179","66620c03b9b110fb2637581a","null","","null","","","","","","","","./tasks/HMM-beads/Images/WhiteBeadChoiceCorrect.png","","","","","","","","","",""
"image-keyboard-response","308","506595","0.0-3.0-6.0-1.0-0.57","62950797c66ad6f3715bb6e6","6662009ae78f21dd82fcd179","66620c03b9b110fb2637581a","358","","j","","","","","","","","./tasks/HMM-beads/Images/NewTrialWC.png","lowH","1","57","1","1","1","1","true","",""
"image-keyboard-response","309","506910","0.0-3.0-6.0-1.0-1.57","62950797c66ad6f3715bb6e6","6662009ae78f21dd82fcd179","66620c03b9b110fb2637581a","null","","null","","","","","","","","./tasks/HMM-beads/Images/WhiteBeadChoice.png","","","","","","","","","",""
"image-keyboard-response","310","507426","0.0-3.0-6.0-1.0-2.57","62950797c66ad6f3715bb6e6","6662009ae78f21dd82fcd179","66620c03b9b110fb2637581a","null","","null","","","","","","","","./tasks/HMM-beads/Images/WhiteBeadChoiceCorrect.png","","","","","","","","","",""
"image-keyboard-response","311","507770","0.0-3.0-6.0-1.0-0.58","62950797c66ad6f3715bb6e6","6662009ae78f21dd82fcd179","66620c03b9b110fb2637581a","344","","j","","","","","","","","./tasks/HMM-beads/Images/NewTrialWC.png","lowH","1","58","1","1","1","1","true","",""
"image-keyboard-response","312","508084","0.0-3.0-6.0-1.0-1.58","62950797c66ad6f3715bb6e6","6662009ae78f21dd82fcd179","66620c03b9b110fb2637581a","null","","null","","","","","","","","./tasks/HMM-beads/Images/WhiteBeadChoice.png","","","","","","","","","",""
"image-keyboard-response","313","508585","0.0-3.0-6.0-1.0-2.58","62950797c66ad6f3715bb6e6","6662009ae78f21dd82fcd179","66620c03b9b110fb2637581a","null","","null","","","","","","","","./tasks/HMM-beads/Images/WhiteBeadChoiceCorrect.png","","","","","","","","","",""
"image-keyboard-response","314","508933","0.0-3.0-6.0-1.0-0.59","62950797c66ad6f3715bb6e6","6662009ae78f21dd82fcd179","66620c03b9b110fb2637581a","348","","j","","","","","","","","./tasks/HMM-beads/Images/NewTrialWC.png","lowH","1","59","1","0","1","1","false","",""
"image-keyboard-response","315","509235","0.0-3.0-6.0-1.0-1.59","62950797c66ad6f3715bb6e6","6662009ae78f21dd82fcd179","66620c03b9b110fb2637581a","null","","null","","","","","","","","./tasks/HMM-beads/Images/WhiteBeadChoice.png","","","","","","","","","",""
"image-keyboard-response","316","509737","0.0-3.0-6.0-1.0-2.59","62950797c66ad6f3715bb6e6","6662009ae78f21dd82fcd179","66620c03b9b110fb2637581a","null","","null","","","","","","","","./tasks/HMM-beads/Images/WhiteBeadChoiceWrong.png","","","","","","","","","",""
"image-keyboard-response","317","510176","0.0-3.0-6.0-1.0-0.60","62950797c66ad6f3715bb6e6","6662009ae78f21dd82fcd179","66620c03b9b110fb2637581a","439","","j","","","","","","","","./tasks/HMM-beads/Images/NewTrialBC.png","lowH","1","60","1","1","0","1","true","",""
"image-keyboard-response","318","510494","0.0-3.0-6.0-1.0-1.60","62950797c66ad6f3715bb6e6","6662009ae78f21dd82fcd179","66620c03b9b110fb2637581a","null","","null","","","","","","","","./tasks/HMM-beads/Images/WhiteBeadChoice.png","","","","","","","","","",""
"image-keyboard-response","319","511009","0.0-3.0-6.0-1.0-2.60","62950797c66ad6f3715bb6e6","6662009ae78f21dd82fcd179","66620c03b9b110fb2637581a","null","","null","","","","","","","","./tasks/HMM-beads/Images/WhiteBeadChoiceCorrect.png","","","","","","","","","",""
"image-keyboard-response","320","511353","0.0-3.0-6.0-1.0-0.61","62950797c66ad6f3715bb6e6","6662009ae78f21dd82fcd179","66620c03b9b110fb2637581a","344","","j","","","","","","","","./tasks/HMM-beads/Images/NewTrialWC.png","lowH","1","61","1","1","1","1","true","",""
"image-keyboard-response","321","511667","0.0-3.0-6.0-1.0-1.61","62950797c66ad6f3715bb6e6","6662009ae78f21dd82fcd179","66620c03b9b110fb2637581a","null","","null","","","","","","","","./tasks/HMM-beads/Images/WhiteBeadChoice.png","","","","","","","","","",""
"image-keyboard-response","322","512183","0.0-3.0-6.0-1.0-2.61","62950797c66ad6f3715bb6e6","6662009ae78f21dd82fcd179","66620c03b9b110fb2637581a","null","","null","","","","","","","","./tasks/HMM-beads/Images/WhiteBeadChoiceCorrect.png","","","","","","","","","",""
"image-keyboard-response","323","512536","0.0-3.0-6.0-1.0-0.62","62950797c66ad6f3715bb6e6","6662009ae78f21dd82fcd179","66620c03b9b110fb2637581a","353","","j","","","","","","","","./tasks/HMM-beads/Images/NewTrialWC.png","lowH","1","62","1","0","1","1","false","",""
"image-keyboard-response","324","512847","0.0-3.0-6.0-1.0-1.62","62950797c66ad6f3715bb6e6","6662009ae78f21dd82fcd179","66620c03b9b110fb2637581a","null","","null","","","","","","","","./tasks/HMM-beads/Images/WhiteBeadChoice.png","","","","","","","","","",""
"image-keyboard-response","325","513348","0.0-3.0-6.0-1.0-2.62","62950797c66ad6f3715bb6e6","6662009ae78f21dd82fcd179","66620c03b9b110fb2637581a","null","","null","","","","","","","","./tasks/HMM-beads/Images/WhiteBeadChoiceWrong.png","","","","","","","","","",""
"image-keyboard-response","326","513692","0.0-3.0-6.0-1.0-0.63","62950797c66ad6f3715bb6e6","6662009ae78f21dd82fcd179","66620c03b9b110fb2637581a","344","","j","","","","","","","","./tasks/HMM-beads/Images/NewTrialBC.png","lowH","1","63","1","1","0","1","true","",""
"image-keyboard-response","327","514008","0.0-3.0-6.0-1.0-1.63","62950797c66ad6f3715bb6e6","6662009ae78f21dd82fcd179","66620c03b9b110fb2637581a","null","","null","","","","","","","","./tasks/HMM-beads/Images/WhiteBeadChoice.png","","","","","","","","","",""
"image-keyboard-response","328","514523","0.0-3.0-6.0-1.0-2.63","62950797c66ad6f3715bb6e6","6662009ae78f21dd82fcd179","66620c03b9b110fb2637581a","null","","null","","","","","","","","./tasks/HMM-beads/Images/WhiteBeadChoiceCorrect.png","","","","","","","","","",""
"image-keyboard-response","329","514808","0.0-3.0-6.0-1.0-0.64","62950797c66ad6f3715bb6e6","6662009ae78f21dd82fcd179","66620c03b9b110fb2637581a","285","","j","","","","","","","","./tasks/HMM-beads/Images/NewTrialWC.png","lowH","1","64","1","1","1","1","true","",""
"image-keyboard-response","330","515110","0.0-3.0-6.0-1.0-1.64","62950797c66ad6f3715bb6e6","6662009ae78f21dd82fcd179","66620c03b9b110fb2637581a","null","","null","","","","","","","","./tasks/HMM-beads/Images/WhiteBeadChoice.png","","","","","","","","","",""
"image-keyboard-response","331","515619","0.0-3.0-6.0-1.0-2.64","62950797c66ad6f3715bb6e6","6662009ae78f21dd82fcd179","66620c03b9b110fb2637581a","null","","null","","","","","","","","./tasks/HMM-beads/Images/WhiteBeadChoiceCorrect.png","","","","","","","","","",""
"image-keyboard-response","332","515991","0.0-3.0-6.0-1.0-0.65","62950797c66ad6f3715bb6e6","6662009ae78f21dd82fcd179","66620c03b9b110fb2637581a","372","","j","","","","","","","","./tasks/HMM-beads/Images/NewTrialWC.png","lowH","1","65","1","1","1","1","true","",""
"image-keyboard-response","333","516306","0.0-3.0-6.0-1.0-1.65","62950797c66ad6f3715bb6e6","6662009ae78f21dd82fcd179","66620c03b9b110fb2637581a","null","","null","","","","","","","","./tasks/HMM-beads/Images/WhiteBeadChoice.png","","","","","","","","","",""
"image-keyboard-response","334","516822","0.0-3.0-6.0-1.0-2.65","62950797c66ad6f3715bb6e6","6662009ae78f21dd82fcd179","66620c03b9b110fb2637581a","null","","null","","","","","","","","./tasks/HMM-beads/Images/WhiteBeadChoiceCorrect.png","","","","","","","","","",""
"image-keyboard-response","335","517175","0.0-3.0-6.0-1.0-0.66","62950797c66ad6f3715bb6e6","6662009ae78f21dd82fcd179","66620c03b9b110fb2637581a","352","","j","","","","","","","","./tasks/HMM-beads/Images/NewTrialWC.png","lowH","1","66","1","1","1","1","true","",""
"image-keyboard-response","336","517487","0.0-3.0-6.0-1.0-1.66","62950797c66ad6f3715bb6e6","6662009ae78f21dd82fcd179","66620c03b9b110fb2637581a","null","","null","","","","","","","","./tasks/HMM-beads/Images/WhiteBeadChoice.png","","","","","","","","","",""
"image-keyboard-response","337","518003","0.0-3.0-6.0-1.0-2.66","62950797c66ad6f3715bb6e6","6662009ae78f21dd82fcd179","66620c03b9b110fb2637581a","null","","null","","","","","","","","./tasks/HMM-beads/Images/WhiteBeadChoiceCorrect.png","","","","","","","","","",""
"image-keyboard-response","338","518364","0.0-3.0-6.0-1.0-0.67","62950797c66ad6f3715bb6e6","6662009ae78f21dd82fcd179","66620c03b9b110fb2637581a","361","","j","","","","","","","","./tasks/HMM-beads/Images/NewTrialWC.png","lowH","1","67","1","0","1","1","false","",""
"image-keyboard-response","339","518666","0.0-3.0-6.0-1.0-1.67","62950797c66ad6f3715bb6e6","6662009ae78f21dd82fcd179","66620c03b9b110fb2637581a","null","","null","","","","","","","","./tasks/HMM-beads/Images/WhiteBeadChoice.png","","","","","","","","","",""
"image-keyboard-response","340","519168","0.0-3.0-6.0-1.0-2.67","62950797c66ad6f3715bb6e6","6662009ae78f21dd82fcd179","66620c03b9b110fb2637581a","null","","null","","","","","","","","./tasks/HMM-beads/Images/WhiteBeadChoiceWrong.png","","","","","","","","","",""
"image-keyboard-response","341","519520","0.0-3.0-6.0-1.0-0.68","62950797c66ad6f3715bb6e6","6662009ae78f21dd82fcd179","66620c03b9b110fb2637581a","352","","j","","","","","","","","./tasks/HMM-beads/Images/NewTrialBC.png","lowH","1","68","1","1","0","1","true","",""
"image-keyboard-response","342","519834","0.0-3.0-6.0-1.0-1.68","62950797c66ad6f3715bb6e6","6662009ae78f21dd82fcd179","66620c03b9b110fb2637581a","null","","null","","","","","","","","./tasks/HMM-beads/Images/WhiteBeadChoice.png","","","","","","","","","",""
"image-keyboard-response","343","520350","0.0-3.0-6.0-1.0-2.68","62950797c66ad6f3715bb6e6","6662009ae78f21dd82fcd179","66620c03b9b110fb2637581a","null","","null","","","","","","","","./tasks/HMM-beads/Images/WhiteBeadChoiceCorrect.png","","","","","","","","","",""
"image-keyboard-response","344","520716","0.0-3.0-6.0-1.0-0.69","62950797c66ad6f3715bb6e6","6662009ae78f21dd82fcd179","66620c03b9b110fb2637581a","362","","j","","","","","","","","./tasks/HMM-beads/Images/NewTrialWC.png","lowH","1","69","0","1","1","1","true","",""
"image-keyboard-response","345","521029","0.0-3.0-6.0-1.0-1.69","62950797c66ad6f3715bb6e6","6662009ae78f21dd82fcd179","66620c03b9b110fb2637581a","null","","null","","","","","","","","./tasks/HMM-beads/Images/WhiteBeadChoice.png","","","","","","","","","",""
"image-keyboard-response","346","521544","0.0-3.0-6.0-1.0-2.69","62950797c66ad6f3715bb6e6","6662009ae78f21dd82fcd179","66620c03b9b110fb2637581a","null","","null","","","","","","","","./tasks/HMM-beads/Images/WhiteBeadChoiceCorrect.png","","","","","","","","","",""
"image-keyboard-response","347","521919","0.0-3.0-6.0-1.0-0.70","62950797c66ad6f3715bb6e6","6662009ae78f21dd82fcd179","66620c03b9b110fb2637581a","375","","j","","","","","","","","./tasks/HMM-beads/Images/NewTrialWC.png","lowH","1","70","0","1","1","1","true","",""
"image-keyboard-response","348","522222","0.0-3.0-6.0-1.0-1.70","62950797c66ad6f3715bb6e6","6662009ae78f21dd82fcd179","66620c03b9b110fb2637581a","null","","null","","","","","","","","./tasks/HMM-beads/Images/WhiteBeadChoice.png","","","","","","","","","",""
"image-keyboard-response","349","522723","0.0-3.0-6.0-1.0-2.70","62950797c66ad6f3715bb6e6","6662009ae78f21dd82fcd179","66620c03b9b110fb2637581a","null","","null","","","","","","","","./tasks/HMM-beads/Images/WhiteBeadChoiceCorrect.png","","","","","","","","","",""
"image-keyboard-response","350","523196","0.0-3.0-6.0-1.0-0.71","62950797c66ad6f3715bb6e6","6662009ae78f21dd82fcd179","66620c03b9b110fb2637581a","473","","j","","","","","","","","./tasks/HMM-beads/Images/NewTrialWC.png","lowH","1","71","0","0","1","1","false","",""
"image-keyboard-response","351","523507","0.0-3.0-6.0-1.0-1.71","62950797c66ad6f3715bb6e6","6662009ae78f21dd82fcd179","66620c03b9b110fb2637581a","null","","null","","","","","","","","./tasks/HMM-beads/Images/WhiteBeadChoice.png","","","","","","","","","",""
"image-keyboard-response","352","524008","0.0-3.0-6.0-1.0-2.71","62950797c66ad6f3715bb6e6","6662009ae78f21dd82fcd179","66620c03b9b110fb2637581a","null","","null","","","","","","","","./tasks/HMM-beads/Images/WhiteBeadChoiceWrong.png","","","","","","","","","",""
"image-keyboard-response","353","524635","0.0-3.0-6.0-1.0-0.72","62950797c66ad6f3715bb6e6","6662009ae78f21dd82fcd179","66620c03b9b110fb2637581a","627","","j","","","","","","","","./tasks/HMM-beads/Images/NewTrialBC.png","lowH","1","72","0","0","0","1","false","",""
"image-keyboard-response","354","524937","0.0-3.0-6.0-1.0-1.72","62950797c66ad6f3715bb6e6","6662009ae78f21dd82fcd179","66620c03b9b110fb2637581a","null","","null","","","","","","","","./tasks/HMM-beads/Images/WhiteBeadChoice.png","","","","","","","","","",""
"image-keyboard-response","355","525439","0.0-3.0-6.0-1.0-2.72","62950797c66ad6f3715bb6e6","6662009ae78f21dd82fcd179","66620c03b9b110fb2637581a","null","","null","","","","","","","","./tasks/HMM-beads/Images/WhiteBeadChoiceWrong.png","","","","","","","","","",""
"image-keyboard-response","356","525852","0.0-3.0-6.0-1.0-0.73","62950797c66ad6f3715bb6e6","6662009ae78f21dd82fcd179","66620c03b9b110fb2637581a","413","","j","","","","","","","","./tasks/HMM-beads/Images/NewTrialBC.png","lowH","1","73","0","1","0","1","true","",""
"image-keyboard-response","357","526159","0.0-3.0-6.0-1.0-1.73","62950797c66ad6f3715bb6e6","6662009ae78f21dd82fcd179","66620c03b9b110fb2637581a","null","","null","","","","","","","","./tasks/HMM-beads/Images/WhiteBeadChoice.png","","","","","","","","","",""
"image-keyboard-response","358","526661","0.0-3.0-6.0-1.0-2.73","62950797c66ad6f3715bb6e6","6662009ae78f21dd82fcd179","66620c03b9b110fb2637581a","null","","null","","","","","","","","./tasks/HMM-beads/Images/WhiteBeadChoiceCorrect.png","","","","","","","","","",""
"image-keyboard-response","359","527035","0.0-3.0-6.0-1.0-0.74","62950797c66ad6f3715bb6e6","6662009ae78f21dd82fcd179","66620c03b9b110fb2637581a","374","","j","","","","","","","","./tasks/HMM-beads/Images/NewTrialWC.png","lowH","1","74","0","0","1","1","false","",""
"image-keyboard-response","360","527349","0.0-3.0-6.0-1.0-1.74","62950797c66ad6f3715bb6e6","6662009ae78f21dd82fcd179","66620c03b9b110fb2637581a","null","","null","","","","","","","","./tasks/HMM-beads/Images/WhiteBeadChoice.png","","","","","","","","","",""
"image-keyboard-response","361","527864","0.0-3.0-6.0-1.0-2.74","62950797c66ad6f3715bb6e6","6662009ae78f21dd82fcd179","66620c03b9b110fb2637581a","null","","null","","","","","","","","./tasks/HMM-beads/Images/WhiteBeadChoiceWrong.png","","","","","","","","","",""
"image-keyboard-response","362","528185","0.0-3.0-6.0-1.0-0.75","62950797c66ad6f3715bb6e6","6662009ae78f21dd82fcd179","66620c03b9b110fb2637581a","320","","j","","","","","","","","./tasks/HMM-beads/Images/NewTrialBC.png","lowH","1","75","0","1","0","1","true","",""
"image-keyboard-response","363","528486","0.0-3.0-6.0-1.0-1.75","62950797c66ad6f3715bb6e6","6662009ae78f21dd82fcd179","66620c03b9b110fb2637581a","null","","null","","","","","","","","./tasks/HMM-beads/Images/WhiteBeadChoice.png","","","","","","","","","",""
"image-keyboard-response","364","528987","0.0-3.0-6.0-1.0-2.75","62950797c66ad6f3715bb6e6","6662009ae78f21dd82fcd179","66620c03b9b110fb2637581a","null","","null","","","","","","","","./tasks/HMM-beads/Images/WhiteBeadChoiceCorrect.png","","","","","","","","","",""
"image-keyboard-response","365","529367","0.0-3.0-6.0-1.0-0.76","62950797c66ad6f3715bb6e6","6662009ae78f21dd82fcd179","66620c03b9b110fb2637581a","379","","j","","","","","","","","./tasks/HMM-beads/Images/NewTrialWC.png","lowH","1","76","0","1","1","1","true","",""
"image-keyboard-response","366","529682","0.0-3.0-6.0-1.0-1.76","62950797c66ad6f3715bb6e6","6662009ae78f21dd82fcd179","66620c03b9b110fb2637581a","null","","null","","","","","","","","./tasks/HMM-beads/Images/WhiteBeadChoice.png","","","","","","","","","",""
"image-keyboard-response","367","530198","0.0-3.0-6.0-1.0-2.76","62950797c66ad6f3715bb6e6","6662009ae78f21dd82fcd179","66620c03b9b110fb2637581a","null","","null","","","","","","","","./tasks/HMM-beads/Images/WhiteBeadChoiceCorrect.png","","","","","","","","","",""
"image-keyboard-response","368","530584","0.0-3.0-6.0-1.0-0.77","62950797c66ad6f3715bb6e6","6662009ae78f21dd82fcd179","66620c03b9b110fb2637581a","386","","j","","","","","","","","./tasks/HMM-beads/Images/NewTrialWC.png","lowH","1","77","0","0","1","1","false","",""
"image-keyboard-response","369","530897","0.0-3.0-6.0-1.0-1.77","62950797c66ad6f3715bb6e6","6662009ae78f21dd82fcd179","66620c03b9b110fb2637581a","null","","null","","","","","","","","./tasks/HMM-beads/Images/WhiteBeadChoice.png","","","","","","","","","",""
"image-keyboard-response","370","531404","0.0-3.0-6.0-1.0-2.77","62950797c66ad6f3715bb6e6","6662009ae78f21dd82fcd179","66620c03b9b110fb2637581a","null","","null","","","","","","","","./tasks/HMM-beads/Images/WhiteBeadChoiceWrong.png","","","","","","","","","",""
"image-keyboard-response","371","531794","0.0-3.0-6.0-1.0-0.78","62950797c66ad6f3715bb6e6","6662009ae78f21dd82fcd179","66620c03b9b110fb2637581a","390","","j","","","","","","","","./tasks/HMM-beads/Images/NewTrialBC.png","lowH","1","78","0","0","0","1","false","",""
"image-keyboard-response","372","532105","0.0-3.0-6.0-1.0-1.78","62950797c66ad6f3715bb6e6","6662009ae78f21dd82fcd179","66620c03b9b110fb2637581a","null","","null","","","","","","","","./tasks/HMM-beads/Images/WhiteBeadChoice.png","","","","","","","","","",""
"image-keyboard-response","373","532606","0.0-3.0-6.0-1.0-2.78","62950797c66ad6f3715bb6e6","6662009ae78f21dd82fcd179","66620c03b9b110fb2637581a","null","","null","","","","","","","","./tasks/HMM-beads/Images/WhiteBeadChoiceWrong.png","","","","","","","","","",""
