"trial_type","trial_index","time_elapsed","internal_node_id","subject_id","study_id","session_id","rt","url","response","question_order","view_history","success","timeout","failed_images","failed_audio","failed_video","stimulus","block","block_rep","trial_number","jar","bead","previous_bead","choice","correct","lowH_score","total_bonus"
"pavlovia","0","1086","0.0-0.0","5bed01c8306ec30001fb80e2","6662009ae78f21dd82fcd179","66620ab74a9e6c43497fb90a","","","","","","","","","","","","","","","","","","","","",""
"external-html","1","7150","0.0-1.0-0.0","5bed01c8306ec30001fb80e2","6662009ae78f21dd82fcd179","66620ab74a9e6c43497fb90a","5931","new_consent.html","","","","","","","","","","","","","","","","","","",""
"survey-multi-choice","2","12365","0.0-1.0-1.0","5bed01c8306ec30001fb80e2","6662009ae78f21dd82fcd179","66620ab74a9e6c43497fb90a","5213","","{""Q0"":""Female"",""Q1"":""White""}","[0,1]","","","","","","","","","","","","","","","","",""
"survey-text","3","15519","0.0-1.0-2.0","5bed01c8306ec30001fb80e2","6662009ae78f21dd82fcd179","66620ab74a9e6c43497fb90a","3149","","{""Q0"":""40""}","","","","","","","","","","","","","","","","","",""
"instructions","4","16843","0.0-2.0","5bed01c8306ec30001fb80e2","6662009ae78f21dd82fcd179","66620ab74a9e6c43497fb90a","1221","","","","[{""page_index"":0,""viewing_time"":1221}]","","","","","","","","","","","","","","","",""
"preload","5","18039","0.0-3.0-0.0","5bed01c8306ec30001fb80e2","6662009ae78f21dd82fcd179","66620ab74a9e6c43497fb90a","","","","","","true","false","[]","[]","[]","","","","","","","","","","",""
"instructions","6","195134","0.0-3.0-1.0","5bed01c8306ec30001fb80e2","6662009ae78f21dd82fcd179","66620ab74a9e6c43497fb90a","177087","","","","[{""page_index"":0,""viewing_time"":59712},{""page_index"":1,""viewing_time"":9510},{""page_index"":2,""viewing_time"":26442},{""page_index"":3,""viewing_time"":1388},{""page_index"":4,""viewing_time"":4522},{""page_index"":5,""viewing_time"":23844},{""page_index"":6,""viewing_time"":8196},{""page_index"":7,""viewing_time"":14656},{""page_index"":8,""viewing_time"":3788},{""page_index"":9,""viewing_time"":6972},{""page_index"":10,""viewing_time"":16412},{""page_index"":11,""viewing_time"":1646}]","","","","","","","","","","","","","","","",""
"html-button-response","7","197709","0.0-3.0-2.0-0.0-0.0","5bed01c8306ec30001fb80e2","6662009ae78f21dd82fcd179","66620ab74a9e6c43497fb90a","2574","","1","","","","","","","","<div align=center>Your goal is to predict…?<br><br></div>","","","","","","","","","",""
"html-button-response","8","205488","0.0-3.0-2.0-1.0-0.0","5bed01c8306ec30001fb80e2","6662009ae78f21dd82fcd179","66620ab74a9e6c43497fb90a","4834","","2","","","","","","","","<div align=center>In the jar with mostly white beads, there are ___% white beads and ___% black beads?<br><br></div>","","","","","","","","","",""
"html-button-response","9","209916","0.0-3.0-2.0-2.0-0.0","5bed01c8306ec30001fb80e2","6662009ae78f21dd82fcd179","66620ab74a9e6c43497fb90a","3475","","0","","","","","","","","<div align=center>When there is a 1% probability that the jars will switch, the next bead will most likely be drawn from the…<br><br></div>","","","","","","","","","",""
"html-button-response","10","213867","0.0-3.0-2.0-3.0-0.0","5bed01c8306ec30001fb80e2","6662009ae78f21dd82fcd179","66620ab74a9e6c43497fb90a","2796","","1","","","","","","","","<div align=center>When there is a 99% probability that the jars will switch, the next bead will most likely be drawn from the…<br><br></div>","","","","","","","","","",""
"instructions","11","229358","0.0-3.0-3.0","5bed01c8306ec30001fb80e2","6662009ae78f21dd82fcd179","66620ab74a9e6c43497fb90a","14511","","","","[{""page_index"":0,""viewing_time"":14511}]","","","","","","","","","","","","","","","",""
"html-keyboard-response","12","243212","0.0-3.0-4.0-0.0","5bed01c8306ec30001fb80e2","6662009ae78f21dd82fcd179","66620ab74a9e6c43497fb90a","13853",""," ","","","","","","","","<div align=center>In this practice block, there will be a <b>1% chance</b> that the jar on the next trial will be different from the jar on the current trial.<br><br></div>","","","","","","","","","",""
"image-keyboard-response","13","246500","0.0-3.0-4.0-1.0-0.0","5bed01c8306ec30001fb80e2","6662009ae78f21dd82fcd179","66620ab74a9e6c43497fb90a","3287","","f","","","","","","","","./tasks/HMM-beads/Images/NoChoice.png","practice","0","0","0","0","9","0","true","",""
"image-keyboard-response","14","246816","0.0-3.0-4.0-1.0-1.0","5bed01c8306ec30001fb80e2","6662009ae78f21dd82fcd179","66620ab74a9e6c43497fb90a","null","","null","","","","","","","","./tasks/HMM-beads/Images/BlackBeadChoice.png","","","","","","","","","",""
"image-keyboard-response","15","247332","0.0-3.0-4.0-1.0-2.0","5bed01c8306ec30001fb80e2","6662009ae78f21dd82fcd179","66620ab74a9e6c43497fb90a","null","","null","","","","","","","","./tasks/HMM-beads/Images/BlackBeadChoiceCorrect.png","","","","","","","","","",""
"image-keyboard-response","16","249144","0.0-3.0-4.0-1.0-0.1","5bed01c8306ec30001fb80e2","6662009ae78f21dd82fcd179","66620ab74a9e6c43497fb90a","1810","","f","","","","","","","","./tasks/HMM-beads/Images/NewTrialBC.png","practice","0","1","0","0","0","0","true","",""
"image-keyboard-response","17","249449","0.0-3.0-4.0-1.0-1.1","5bed01c8306ec30001fb80e2","6662009ae78f21dd82fcd179","66620ab74a9e6c43497fb90a","null","","null","","","","","","","","./tasks/HMM-beads/Images/BlackBeadChoice.png","","","","","","","","","",""
"image-keyboard-response","18","249951","0.0-3.0-4.0-1.0-2.1","5bed01c8306ec30001fb80e2","6662009ae78f21dd82fcd179","66620ab74a9e6c43497fb90a","null","","null","","","","","","","","./tasks/HMM-beads/Images/BlackBeadChoiceCorrect.png","","","","","","","","","",""
"image-keyboard-response","19","251504","0.0-3.0-4.0-1.0-0.2","5bed01c8306ec30001fb80e2","6662009ae78f21dd82fcd179","66620ab74a9e6c43497fb90a","1552","","f","","","","","","","","./tasks/HMM-beads/Images/NewTrialBC.png","practice","0","2","0","1","0","0","false","",""
"image-keyboard-response","20","251816","0.0-3.0-4.0-1.0-1.2","5bed01c8306ec30001fb80e2","6662009ae78f21dd82fcd179","66620ab74a9e6c43497fb90a","null","","null","","","","","","","","./tasks/HMM-beads/Images/BlackBeadChoice.png","","","","","","","","","",""
"image-keyboard-response","21","252317","0.0-3.0-4.0-1.0-2.2","5bed01c8306ec30001fb80e2","6662009ae78f21dd82fcd179","66620ab74a9e6c43497fb90a","null","","null","","","","","","","","./tasks/HMM-beads/Images/BlackBeadChoiceWrong.png","","","","","","","","","",""
"image-keyboard-response","22","253617","0.0-3.0-4.0-1.0-0.3","5bed01c8306ec30001fb80e2","6662009ae78f21dd82fcd179","66620ab74a9e6c43497fb90a","1299","","f","","","","","","","","./tasks/HMM-beads/Images/NewTrialWC.png","practice","0","3","0","0","1","0","true","",""
"image-keyboard-response","23","253932","0.0-3.0-4.0-1.0-1.3","5bed01c8306ec30001fb80e2","6662009ae78f21dd82fcd179","66620ab74a9e6c43497fb90a","null","","null","","","","","","","","./tasks/HMM-beads/Images/BlackBeadChoice.png","","","","","","","","","",""
"image-keyboard-response","24","254434","0.0-3.0-4.0-1.0-2.3","5bed01c8306ec30001fb80e2","6662009ae78f21dd82fcd179","66620ab74a9e6c43497fb90a","null","","null","","","","","","","","./tasks/HMM-beads/Images/BlackBeadChoiceCorrect.png","","","","","","","","","",""
"image-keyboard-response","25","255238","0.0-3.0-4.0-1.0-0.4","5bed01c8306ec30001fb80e2","6662009ae78f21dd82fcd179","66620ab74a9e6c43497fb90a","803","","f","","","","","","","","./tasks/HMM-beads/Images/NewTrialBC.png","practice","0","4","0","0","0","0","true","",""
"image-keyboard-response","26","255550","0.0-3.0-4.0-1.0-1.4","5bed01c8306ec30001fb80e2","6662009ae78f21dd82fcd179","66620ab74a9e6c43497fb90a","null","","null","","","","","","","","./tasks/HMM-beads/Images/BlackBeadChoice.png","","","","","","","","","",""
"image-keyboard-response","27","256067","0.0-3.0-4.0-1.0-2.4","5bed01c8306ec30001fb80e2","6662009ae78f21dd82fcd179","66620ab74a9e6c43497fb90a","null","","null","","","","","","","","./tasks/HMM-beads/Images/BlackBeadChoiceCorrect.png","","","","","","","","","",""
"image-keyboard-response","28","256518","0.0-3.0-4.0-1.0-0.5","5bed01c8306ec30001fb80e2","6662009ae78f21dd82fcd179","66620ab74a9e6c43497fb90a","449","","f","","","","","","","","./tasks/HMM-beads/Images/NewTrialBC.png","practice","0","5","0","1","0","0","false","",""
"image-keyboard-response","29","256832","0.0-3.0-4.0-1.0-1.5","5bed01c8306ec30001fb80e2","6662009ae78f21dd82fcd179","66620ab74a9e6c43497fb90a","null","","null","","","","","","","","./tasks/HMM-beads/Images/BlackBeadChoice.png","","","","","","","","","",""
"image-keyboard-response","30","257334","0.0-3.0-4.0-1.0-2.5","5bed01c8306ec30001fb80e2","6662009ae78f21dd82fcd179","66620ab74a9e6c43497fb90a","null","","null","","","","","","","","./tasks/HMM-beads/Images/BlackBeadChoiceWrong.png","","","","","","","","","",""
"image-keyboard-response","31","259116","0.0-3.0-4.0-1.0-0.6","5bed01c8306ec30001fb80e2","6662009ae78f21dd82fcd179","66620ab74a9e6c43497fb90a","1781","","f","","","","","","","","./tasks/HMM-beads/Images/NewTrialWC.png","practice","0","6","0","0","1","0","true","",""
"image-keyboard-response","32","259417","0.0-3.0-4.0-1.0-1.6","5bed01c8306ec30001fb80e2","6662009ae78f21dd82fcd179","66620ab74a9e6c43497fb90a","null","","null","","","","","","","","./tasks/HMM-beads/Images/BlackBeadChoice.png","","","","","","","","","",""
"image-keyboard-response","33","259933","0.0-3.0-4.0-1.0-2.6","5bed01c8306ec30001fb80e2","6662009ae78f21dd82fcd179","66620ab74a9e6c43497fb90a","null","","null","","","","","","","","./tasks/HMM-beads/Images/BlackBeadChoiceCorrect.png","","","","","","","","","",""
"image-keyboard-response","34","260244","0.0-3.0-4.0-1.0-0.7","5bed01c8306ec30001fb80e2","6662009ae78f21dd82fcd179","66620ab74a9e6c43497fb90a","311","","f","","","","","","","","./tasks/HMM-beads/Images/NewTrialBC.png","practice","0","7","0","0","0","0","true","",""
"image-keyboard-response","35","260549","0.0-3.0-4.0-1.0-1.7","5bed01c8306ec30001fb80e2","6662009ae78f21dd82fcd179","66620ab74a9e6c43497fb90a","null","","null","","","","","","","","./tasks/HMM-beads/Images/BlackBeadChoice.png","","","","","","","","","",""
"image-keyboard-response","36","261066","0.0-3.0-4.0-1.0-2.7","5bed01c8306ec30001fb80e2","6662009ae78f21dd82fcd179","66620ab74a9e6c43497fb90a","null","","null","","","","","","","","./tasks/HMM-beads/Images/BlackBeadChoiceCorrect.png","","","","","","","","","",""
"image-keyboard-response","37","261488","0.0-3.0-4.0-1.0-0.8","5bed01c8306ec30001fb80e2","6662009ae78f21dd82fcd179","66620ab74a9e6c43497fb90a","421","","f","","","","","","","","./tasks/HMM-beads/Images/NewTrialBC.png","practice","0","8","0","0","0","0","true","",""
"image-keyboard-response","38","261798","0.0-3.0-4.0-1.0-1.8","5bed01c8306ec30001fb80e2","6662009ae78f21dd82fcd179","66620ab74a9e6c43497fb90a","null","","null","","","","","","","","./tasks/HMM-beads/Images/BlackBeadChoice.png","","","","","","","","","",""
"image-keyboard-response","39","262315","0.0-3.0-4.0-1.0-2.8","5bed01c8306ec30001fb80e2","6662009ae78f21dd82fcd179","66620ab74a9e6c43497fb90a","null","","null","","","","","","","","./tasks/HMM-beads/Images/BlackBeadChoiceCorrect.png","","","","","","","","","",""
"image-keyboard-response","40","262513","0.0-3.0-4.0-1.0-0.9","5bed01c8306ec30001fb80e2","6662009ae78f21dd82fcd179","66620ab74a9e6c43497fb90a","197","","f","","","","","","","","./tasks/HMM-beads/Images/NewTrialBC.png","practice","0","9","0","1","0","0","false","",""
"image-keyboard-response","41","262834","0.0-3.0-4.0-1.0-1.9","5bed01c8306ec30001fb80e2","6662009ae78f21dd82fcd179","66620ab74a9e6c43497fb90a","null","","null","","","","","","","","./tasks/HMM-beads/Images/BlackBeadChoice.png","","","","","","","","","",""
"image-keyboard-response","42","263349","0.0-3.0-4.0-1.0-2.9","5bed01c8306ec30001fb80e2","6662009ae78f21dd82fcd179","66620ab74a9e6c43497fb90a","null","","null","","","","","","","","./tasks/HMM-beads/Images/BlackBeadChoiceWrong.png","","","","","","","","","",""
"image-keyboard-response","43","263622","0.0-3.0-4.0-1.0-0.10","5bed01c8306ec30001fb80e2","6662009ae78f21dd82fcd179","66620ab74a9e6c43497fb90a","273","","f","","","","","","","","./tasks/HMM-beads/Images/NewTrialWC.png","practice","0","10","0","0","1","0","true","",""
"image-keyboard-response","44","263933","0.0-3.0-4.0-1.0-1.10","5bed01c8306ec30001fb80e2","6662009ae78f21dd82fcd179","66620ab74a9e6c43497fb90a","null","","null","","","","","","","","./tasks/HMM-beads/Images/BlackBeadChoice.png","","","","","","","","","",""
"image-keyboard-response","45","264449","0.0-3.0-4.0-1.0-2.10","5bed01c8306ec30001fb80e2","6662009ae78f21dd82fcd179","66620ab74a9e6c43497fb90a","null","","null","","","","","","","","./tasks/HMM-beads/Images/BlackBeadChoiceCorrect.png","","","","","","","","","",""
"image-keyboard-response","46","264457","0.0-3.0-4.0-1.0-0.11","5bed01c8306ec30001fb80e2","6662009ae78f21dd82fcd179","66620ab74a9e6c43497fb90a","7","","f","","","","","","","","./tasks/HMM-beads/Images/NewTrialBC.png","practice","0","11","0","1","0","0","false","",""
"image-keyboard-response","47","264765","0.0-3.0-4.0-1.0-1.11","5bed01c8306ec30001fb80e2","6662009ae78f21dd82fcd179","66620ab74a9e6c43497fb90a","null","","null","","","","","","","","./tasks/HMM-beads/Images/BlackBeadChoice.png","","","","","","","","","",""
"image-keyboard-response","48","265282","0.0-3.0-4.0-1.0-2.11","5bed01c8306ec30001fb80e2","6662009ae78f21dd82fcd179","66620ab74a9e6c43497fb90a","null","","null","","","","","","","","./tasks/HMM-beads/Images/BlackBeadChoiceWrong.png","","","","","","","","","",""
"image-keyboard-response","49","265378","0.0-3.0-4.0-1.0-0.12","5bed01c8306ec30001fb80e2","6662009ae78f21dd82fcd179","66620ab74a9e6c43497fb90a","96","","f","","","","","","","","./tasks/HMM-beads/Images/NewTrialWC.png","practice","0","12","0","0","1","0","true","",""
"image-keyboard-response","50","265682","0.0-3.0-4.0-1.0-1.12","5bed01c8306ec30001fb80e2","6662009ae78f21dd82fcd179","66620ab74a9e6c43497fb90a","null","","null","","","","","","","","./tasks/HMM-beads/Images/BlackBeadChoice.png","","","","","","","","","",""
"image-keyboard-response","51","266199","0.0-3.0-4.0-1.0-2.12","5bed01c8306ec30001fb80e2","6662009ae78f21dd82fcd179","66620ab74a9e6c43497fb90a","null","","null","","","","","","","","./tasks/HMM-beads/Images/BlackBeadChoiceCorrect.png","","","","","","","","","",""
"image-keyboard-response","52","267430","0.0-3.0-4.0-1.0-0.13","5bed01c8306ec30001fb80e2","6662009ae78f21dd82fcd179","66620ab74a9e6c43497fb90a","1230","","f","","","","","","","","./tasks/HMM-beads/Images/NewTrialBC.png","practice","0","13","0","0","0","0","true","",""
"image-keyboard-response","53","267733","0.0-3.0-4.0-1.0-1.13","5bed01c8306ec30001fb80e2","6662009ae78f21dd82fcd179","66620ab74a9e6c43497fb90a","null","","null","","","","","","","","./tasks/HMM-beads/Images/BlackBeadChoice.png","","","","","","","","","",""
"image-keyboard-response","54","268250","0.0-3.0-4.0-1.0-2.13","5bed01c8306ec30001fb80e2","6662009ae78f21dd82fcd179","66620ab74a9e6c43497fb90a","null","","null","","","","","","","","./tasks/HMM-beads/Images/BlackBeadChoiceCorrect.png","","","","","","","","","",""
"image-keyboard-response","55","268336","0.0-3.0-4.0-1.0-0.14","5bed01c8306ec30001fb80e2","6662009ae78f21dd82fcd179","66620ab74a9e6c43497fb90a","85","","f","","","","","","","","./tasks/HMM-beads/Images/NewTrialBC.png","practice","0","14","0","0","0","0","true","",""
"image-keyboard-response","56","268649","0.0-3.0-4.0-1.0-1.14","5bed01c8306ec30001fb80e2","6662009ae78f21dd82fcd179","66620ab74a9e6c43497fb90a","null","","null","","","","","","","","./tasks/HMM-beads/Images/BlackBeadChoice.png","","","","","","","","","",""
"image-keyboard-response","57","269151","0.0-3.0-4.0-1.0-2.14","5bed01c8306ec30001fb80e2","6662009ae78f21dd82fcd179","66620ab74a9e6c43497fb90a","null","","null","","","","","","","","./tasks/HMM-beads/Images/BlackBeadChoiceCorrect.png","","","","","","","","","",""
"image-keyboard-response","58","269186","0.0-3.0-4.0-1.0-0.15","5bed01c8306ec30001fb80e2","6662009ae78f21dd82fcd179","66620ab74a9e6c43497fb90a","35","","f","","","","","","","","./tasks/HMM-beads/Images/NewTrialBC.png","practice","0","15","0","0","0","0","true","",""
"image-keyboard-response","59","269497","0.0-3.0-4.0-1.0-1.15","5bed01c8306ec30001fb80e2","6662009ae78f21dd82fcd179","66620ab74a9e6c43497fb90a","null","","null","","","","","","","","./tasks/HMM-beads/Images/BlackBeadChoice.png","","","","","","","","","",""
"image-keyboard-response","60","270000","0.0-3.0-4.0-1.0-2.15","5bed01c8306ec30001fb80e2","6662009ae78f21dd82fcd179","66620ab74a9e6c43497fb90a","null","","null","","","","","","","","./tasks/HMM-beads/Images/BlackBeadChoiceCorrect.png","","","","","","","","","",""
"image-keyboard-response","61","270074","0.0-3.0-4.0-1.0-0.16","5bed01c8306ec30001fb80e2","6662009ae78f21dd82fcd179","66620ab74a9e6c43497fb90a","73","","f","","","","","","","","./tasks/HMM-beads/Images/NewTrialBC.png","practice","0","16","0","0","0","0","true","",""
"image-keyboard-response","62","270376","0.0-3.0-4.0-1.0-1.16","5bed01c8306ec30001fb80e2","6662009ae78f21dd82fcd179","66620ab74a9e6c43497fb90a","null","","null","","","","","","","","./tasks/HMM-beads/Images/BlackBeadChoice.png","","","","","","","","","",""
"image-keyboard-response","63","270883","0.0-3.0-4.0-1.0-2.16","5bed01c8306ec30001fb80e2","6662009ae78f21dd82fcd179","66620ab74a9e6c43497fb90a","null","","null","","","","","","","","./tasks/HMM-beads/Images/BlackBeadChoiceCorrect.png","","","","","","","","","",""
"image-keyboard-response","64","270946","0.0-3.0-4.0-1.0-0.17","5bed01c8306ec30001fb80e2","6662009ae78f21dd82fcd179","66620ab74a9e6c43497fb90a","62","","f","","","","","","","","./tasks/HMM-beads/Images/NewTrialBC.png","practice","0","17","0","0","0","0","true","",""
"image-keyboard-response","65","271249","0.0-3.0-4.0-1.0-1.17","5bed01c8306ec30001fb80e2","6662009ae78f21dd82fcd179","66620ab74a9e6c43497fb90a","null","","null","","","","","","","","./tasks/HMM-beads/Images/BlackBeadChoice.png","","","","","","","","","",""
"image-keyboard-response","66","271750","0.0-3.0-4.0-1.0-2.17","5bed01c8306ec30001fb80e2","6662009ae78f21dd82fcd179","66620ab74a9e6c43497fb90a","null","","null","","","","","","","","./tasks/HMM-beads/Images/BlackBeadChoiceCorrect.png","","","","","","","","","",""
"image-keyboard-response","67","271785","0.0-3.0-4.0-1.0-0.18","5bed01c8306ec30001fb80e2","6662009ae78f21dd82fcd179","66620ab74a9e6c43497fb90a","34","","f","","","","","","","","./tasks/HMM-beads/Images/NewTrialBC.png","practice","0","18","0","1","0","0","false","",""
"image-keyboard-response","68","272100","0.0-3.0-4.0-1.0-1.18","5bed01c8306ec30001fb80e2","6662009ae78f21dd82fcd179","66620ab74a9e6c43497fb90a","null","","null","","","","","","","","./tasks/HMM-beads/Images/BlackBeadChoice.png","","","","","","","","","",""
"image-keyboard-response","69","272616","0.0-3.0-4.0-1.0-2.18","5bed01c8306ec30001fb80e2","6662009ae78f21dd82fcd179","66620ab74a9e6c43497fb90a","null","","null","","","","","","","","./tasks/HMM-beads/Images/BlackBeadChoiceWrong.png","","","","","","","","","",""
"image-keyboard-response","70","272796","0.0-3.0-4.0-1.0-0.19","5bed01c8306ec30001fb80e2","6662009ae78f21dd82fcd179","66620ab74a9e6c43497fb90a","179","","f","","","","","","","","./tasks/HMM-beads/Images/NewTrialWC.png","practice","0","19","0","0","1","0","true","",""
"image-keyboard-response","71","273097","0.0-3.0-4.0-1.0-1.19","5bed01c8306ec30001fb80e2","6662009ae78f21dd82fcd179","66620ab74a9e6c43497fb90a","null","","null","","","","","","","","./tasks/HMM-beads/Images/BlackBeadChoice.png","","","","","","","","","",""
"image-keyboard-response","72","273599","0.0-3.0-4.0-1.0-2.19","5bed01c8306ec30001fb80e2","6662009ae78f21dd82fcd179","66620ab74a9e6c43497fb90a","null","","null","","","","","","","","./tasks/HMM-beads/Images/BlackBeadChoiceCorrect.png","","","","","","","","","",""
"image-keyboard-response","73","274636","0.0-3.0-4.0-1.0-0.20","5bed01c8306ec30001fb80e2","6662009ae78f21dd82fcd179","66620ab74a9e6c43497fb90a","1037","","f","","","","","","","","./tasks/HMM-beads/Images/NewTrialBC.png","practice","0","20","0","0","0","0","true","",""
"image-keyboard-response","74","274950","0.0-3.0-4.0-1.0-1.20","5bed01c8306ec30001fb80e2","6662009ae78f21dd82fcd179","66620ab74a9e6c43497fb90a","null","","null","","","","","","","","./tasks/HMM-beads/Images/BlackBeadChoice.png","","","","","","","","","",""
"image-keyboard-response","75","275457","0.0-3.0-4.0-1.0-2.20","5bed01c8306ec30001fb80e2","6662009ae78f21dd82fcd179","66620ab74a9e6c43497fb90a","null","","null","","","","","","","","./tasks/HMM-beads/Images/BlackBeadChoiceCorrect.png","","","","","","","","","",""
"image-keyboard-response","76","276294","0.0-3.0-4.0-1.0-0.21","5bed01c8306ec30001fb80e2","6662009ae78f21dd82fcd179","66620ab74a9e6c43497fb90a","837","","f","","","","","","","","./tasks/HMM-beads/Images/NewTrialBC.png","practice","0","21","0","1","0","0","false","",""
"image-keyboard-response","77","276599","0.0-3.0-4.0-1.0-1.21","5bed01c8306ec30001fb80e2","6662009ae78f21dd82fcd179","66620ab74a9e6c43497fb90a","null","","null","","","","","","","","./tasks/HMM-beads/Images/BlackBeadChoice.png","","","","","","","","","",""
"image-keyboard-response","78","277116","0.0-3.0-4.0-1.0-2.21","5bed01c8306ec30001fb80e2","6662009ae78f21dd82fcd179","66620ab74a9e6c43497fb90a","null","","null","","","","","","","","./tasks/HMM-beads/Images/BlackBeadChoiceWrong.png","","","","","","","","","",""
"image-keyboard-response","79","277147","0.0-3.0-4.0-1.0-0.22","5bed01c8306ec30001fb80e2","6662009ae78f21dd82fcd179","66620ab74a9e6c43497fb90a","30","","f","","","","","","","","./tasks/HMM-beads/Images/NewTrialWC.png","practice","0","22","1","1","1","0","false","",""
"image-keyboard-response","80","277455","0.0-3.0-4.0-1.0-1.22","5bed01c8306ec30001fb80e2","6662009ae78f21dd82fcd179","66620ab74a9e6c43497fb90a","null","","null","","","","","","","","./tasks/HMM-beads/Images/BlackBeadChoice.png","","","","","","","","","",""
"image-keyboard-response","81","277966","0.0-3.0-4.0-1.0-2.22","5bed01c8306ec30001fb80e2","6662009ae78f21dd82fcd179","66620ab74a9e6c43497fb90a","null","","null","","","","","","","","./tasks/HMM-beads/Images/BlackBeadChoiceWrong.png","","","","","","","","","",""
"image-keyboard-response","82","277982","0.0-3.0-4.0-1.0-0.23","5bed01c8306ec30001fb80e2","6662009ae78f21dd82fcd179","66620ab74a9e6c43497fb90a","15","","f","","","","","","","","./tasks/HMM-beads/Images/NewTrialWC.png","practice","0","23","1","0","1","0","true","",""
"image-keyboard-response","83","278299","0.0-3.0-4.0-1.0-1.23","5bed01c8306ec30001fb80e2","6662009ae78f21dd82fcd179","66620ab74a9e6c43497fb90a","null","","null","","","","","","","","./tasks/HMM-beads/Images/BlackBeadChoice.png","","","","","","","","","",""
"image-keyboard-response","84","278802","0.0-3.0-4.0-1.0-2.23","5bed01c8306ec30001fb80e2","6662009ae78f21dd82fcd179","66620ab74a9e6c43497fb90a","null","","null","","","","","","","","./tasks/HMM-beads/Images/BlackBeadChoiceCorrect.png","","","","","","","","","",""
"image-keyboard-response","85","279619","0.0-3.0-4.0-1.0-0.24","5bed01c8306ec30001fb80e2","6662009ae78f21dd82fcd179","66620ab74a9e6c43497fb90a","817","","f","","","","","","","","./tasks/HMM-beads/Images/NewTrialBC.png","practice","0","24","1","1","0","0","false","",""
"image-keyboard-response","86","279932","0.0-3.0-4.0-1.0-1.24","5bed01c8306ec30001fb80e2","6662009ae78f21dd82fcd179","66620ab74a9e6c43497fb90a","null","","null","","","","","","","","./tasks/HMM-beads/Images/BlackBeadChoice.png","","","","","","","","","",""
"image-keyboard-response","87","280434","0.0-3.0-4.0-1.0-2.24","5bed01c8306ec30001fb80e2","6662009ae78f21dd82fcd179","66620ab74a9e6c43497fb90a","null","","null","","","","","","","","./tasks/HMM-beads/Images/BlackBeadChoiceWrong.png","","","","","","","","","",""
"image-keyboard-response","88","280439","0.0-3.0-4.0-1.0-0.25","5bed01c8306ec30001fb80e2","6662009ae78f21dd82fcd179","66620ab74a9e6c43497fb90a","5","","f","","","","","","","","./tasks/HMM-beads/Images/NewTrialWC.png","practice","0","25","1","1","1","0","false","",""
"image-keyboard-response","89","280750","0.0-3.0-4.0-1.0-1.25","5bed01c8306ec30001fb80e2","6662009ae78f21dd82fcd179","66620ab74a9e6c43497fb90a","null","","null","","","","","","","","./tasks/HMM-beads/Images/BlackBeadChoice.png","","","","","","","","","",""
"image-keyboard-response","90","281266","0.0-3.0-4.0-1.0-2.25","5bed01c8306ec30001fb80e2","6662009ae78f21dd82fcd179","66620ab74a9e6c43497fb90a","null","","null","","","","","","","","./tasks/HMM-beads/Images/BlackBeadChoiceWrong.png","","","","","","","","","",""
"image-keyboard-response","91","281689","0.0-3.0-4.0-1.0-0.26","5bed01c8306ec30001fb80e2","6662009ae78f21dd82fcd179","66620ab74a9e6c43497fb90a","422","","j","","","","","","","","./tasks/HMM-beads/Images/NewTrialWC.png","practice","0","26","1","1","1","1","true","",""
"image-keyboard-response","92","282000","0.0-3.0-4.0-1.0-1.26","5bed01c8306ec30001fb80e2","6662009ae78f21dd82fcd179","66620ab74a9e6c43497fb90a","null","","null","","","","","","","","./tasks/HMM-beads/Images/WhiteBeadChoice.png","","","","","","","","","",""
"image-keyboard-response","93","282516","0.0-3.0-4.0-1.0-2.26","5bed01c8306ec30001fb80e2","6662009ae78f21dd82fcd179","66620ab74a9e6c43497fb90a","null","","null","","","","","","","","./tasks/HMM-beads/Images/WhiteBeadChoiceCorrect.png","","","","","","","","","",""
"image-keyboard-response","94","283225","0.0-3.0-4.0-1.0-0.27","5bed01c8306ec30001fb80e2","6662009ae78f21dd82fcd179","66620ab74a9e6c43497fb90a","709","","j","","","","","","","","./tasks/HMM-beads/Images/NewTrialWC.png","practice","0","27","1","1","1","1","true","",""
"image-keyboard-response","95","283532","0.0-3.0-4.0-1.0-1.27","5bed01c8306ec30001fb80e2","6662009ae78f21dd82fcd179","66620ab74a9e6c43497fb90a","null","","null","","","","","","","","./tasks/HMM-beads/Images/WhiteBeadChoice.png","","","","","","","","","",""
"image-keyboard-response","96","284049","0.0-3.0-4.0-1.0-2.27","5bed01c8306ec30001fb80e2","6662009ae78f21dd82fcd179","66620ab74a9e6c43497fb90a","null","","null","","","","","","","","./tasks/HMM-beads/Images/WhiteBeadChoiceCorrect.png","","","","","","","","","",""
"image-keyboard-response","97","284764","0.0-3.0-4.0-1.0-0.28","5bed01c8306ec30001fb80e2","6662009ae78f21dd82fcd179","66620ab74a9e6c43497fb90a","714","","j","","","","","","","","./tasks/HMM-beads/Images/NewTrialWC.png","practice","0","28","1","0","1","1","false","",""
"image-keyboard-response","98","285066","0.0-3.0-4.0-1.0-1.28","5bed01c8306ec30001fb80e2","6662009ae78f21dd82fcd179","66620ab74a9e6c43497fb90a","null","","null","","","","","","","","./tasks/HMM-beads/Images/WhiteBeadChoice.png","","","","","","","","","",""
"image-keyboard-response","99","285567","0.0-3.0-4.0-1.0-2.28","5bed01c8306ec30001fb80e2","6662009ae78f21dd82fcd179","66620ab74a9e6c43497fb90a","null","","null","","","","","","","","./tasks/HMM-beads/Images/WhiteBeadChoiceWrong.png","","","","","","","","","",""
"image-keyboard-response","100","286180","0.0-3.0-4.0-1.0-0.29","5bed01c8306ec30001fb80e2","6662009ae78f21dd82fcd179","66620ab74a9e6c43497fb90a","612","","j","","","","","","","","./tasks/HMM-beads/Images/NewTrialBC.png","practice","0","29","1","1","0","1","true","",""
"image-keyboard-response","101","286482","0.0-3.0-4.0-1.0-1.29","5bed01c8306ec30001fb80e2","6662009ae78f21dd82fcd179","66620ab74a9e6c43497fb90a","null","","null","","","","","","","","./tasks/HMM-beads/Images/WhiteBeadChoice.png","","","","","","","","","",""
"image-keyboard-response","102","286998","0.0-3.0-4.0-1.0-2.29","5bed01c8306ec30001fb80e2","6662009ae78f21dd82fcd179","66620ab74a9e6c43497fb90a","null","","null","","","","","","","","./tasks/HMM-beads/Images/WhiteBeadChoiceCorrect.png","","","","","","","","","",""
"image-keyboard-response","103","287410","0.0-3.0-4.0-1.0-0.30","5bed01c8306ec30001fb80e2","6662009ae78f21dd82fcd179","66620ab74a9e6c43497fb90a","412","","j","","","","","","","","./tasks/HMM-beads/Images/NewTrialWC.png","practice","0","30","1","0","1","1","false","",""
"image-keyboard-response","104","287717","0.0-3.0-4.0-1.0-1.30","5bed01c8306ec30001fb80e2","6662009ae78f21dd82fcd179","66620ab74a9e6c43497fb90a","null","","null","","","","","","","","./tasks/HMM-beads/Images/WhiteBeadChoice.png","","","","","","","","","",""
"image-keyboard-response","105","288232","0.0-3.0-4.0-1.0-2.30","5bed01c8306ec30001fb80e2","6662009ae78f21dd82fcd179","66620ab74a9e6c43497fb90a","null","","null","","","","","","","","./tasks/HMM-beads/Images/WhiteBeadChoiceWrong.png","","","","","","","","","",""
"image-keyboard-response","106","288416","0.0-3.0-4.0-1.0-0.31","5bed01c8306ec30001fb80e2","6662009ae78f21dd82fcd179","66620ab74a9e6c43497fb90a","183","","j","","","","","","","","./tasks/HMM-beads/Images/NewTrialBC.png","practice","0","31","1","1","0","1","true","",""
"image-keyboard-response","107","288717","0.0-3.0-4.0-1.0-1.31","5bed01c8306ec30001fb80e2","6662009ae78f21dd82fcd179","66620ab74a9e6c43497fb90a","null","","null","","","","","","","","./tasks/HMM-beads/Images/WhiteBeadChoice.png","","","","","","","","","",""
"image-keyboard-response","108","289233","0.0-3.0-4.0-1.0-2.31","5bed01c8306ec30001fb80e2","6662009ae78f21dd82fcd179","66620ab74a9e6c43497fb90a","null","","null","","","","","","","","./tasks/HMM-beads/Images/WhiteBeadChoiceCorrect.png","","","","","","","","","",""
"image-keyboard-response","109","289493","0.0-3.0-4.0-1.0-0.32","5bed01c8306ec30001fb80e2","6662009ae78f21dd82fcd179","66620ab74a9e6c43497fb90a","259","","j","","","","","","","","./tasks/HMM-beads/Images/NewTrialWC.png","practice","0","32","1","1","1","1","true","",""
"image-keyboard-response","110","289800","0.0-3.0-4.0-1.0-1.32","5bed01c8306ec30001fb80e2","6662009ae78f21dd82fcd179","66620ab74a9e6c43497fb90a","null","","null","","","","","","","","./tasks/HMM-beads/Images/WhiteBeadChoice.png","","","","","","","","","",""
"image-keyboard-response","111","290316","0.0-3.0-4.0-1.0-2.32","5bed01c8306ec30001fb80e2","6662009ae78f21dd82fcd179","66620ab74a9e6c43497fb90a","null","","null","","","","","","","","./tasks/HMM-beads/Images/WhiteBeadChoiceCorrect.png","","","","","","","","","",""
"image-keyboard-response","112","290976","0.0-3.0-4.0-1.0-0.33","5bed01c8306ec30001fb80e2","6662009ae78f21dd82fcd179","66620ab74a9e6c43497fb90a","660","","j","","","","","","","","./tasks/HMM-beads/Images/NewTrialWC.png","practice","0","33","1","1","1","1","true","",""
"image-keyboard-response","113","291282","0.0-3.0-4.0-1.0-1.33","5bed01c8306ec30001fb80e2","6662009ae78f21dd82fcd179","66620ab74a9e6c43497fb90a","null","","null","","","","","","","","./tasks/HMM-beads/Images/WhiteBeadChoice.png","","","","","","","","","",""
"image-keyboard-response","114","291784","0.0-3.0-4.0-1.0-2.33","5bed01c8306ec30001fb80e2","6662009ae78f21dd82fcd179","66620ab74a9e6c43497fb90a","null","","null","","","","","","","","./tasks/HMM-beads/Images/WhiteBeadChoiceCorrect.png","","","","","","","","","",""
"image-keyboard-response","115","292251","0.0-3.0-4.0-1.0-0.34","5bed01c8306ec30001fb80e2","6662009ae78f21dd82fcd179","66620ab74a9e6c43497fb90a","467","","j","","","","","","","","./tasks/HMM-beads/Images/NewTrialWC.png","practice","0","34","1","1","1","1","true","",""
"image-keyboard-response","116","292567","0.0-3.0-4.0-1.0-1.34","5bed01c8306ec30001fb80e2","6662009ae78f21dd82fcd179","66620ab74a9e6c43497fb90a","null","","null","","","","","","","","./tasks/HMM-beads/Images/WhiteBeadChoice.png","","","","","","","","","",""
"image-keyboard-response","117","293083","0.0-3.0-4.0-1.0-2.34","5bed01c8306ec30001fb80e2","6662009ae78f21dd82fcd179","66620ab74a9e6c43497fb90a","null","","null","","","","","","","","./tasks/HMM-beads/Images/WhiteBeadChoiceCorrect.png","","","","","","","","","",""
"image-keyboard-response","118","293520","0.0-3.0-4.0-1.0-0.35","5bed01c8306ec30001fb80e2","6662009ae78f21dd82fcd179","66620ab74a9e6c43497fb90a","437","","j","","","","","","","","./tasks/HMM-beads/Images/NewTrialWC.png","practice","0","35","1","1","1","1","true","",""
"image-keyboard-response","119","293833","0.0-3.0-4.0-1.0-1.35","5bed01c8306ec30001fb80e2","6662009ae78f21dd82fcd179","66620ab74a9e6c43497fb90a","null","","null","","","","","","","","./tasks/HMM-beads/Images/WhiteBeadChoice.png","","","","","","","","","",""
"image-keyboard-response","120","294334","0.0-3.0-4.0-1.0-2.35","5bed01c8306ec30001fb80e2","6662009ae78f21dd82fcd179","66620ab74a9e6c43497fb90a","null","","null","","","","","","","","./tasks/HMM-beads/Images/WhiteBeadChoiceCorrect.png","","","","","","","","","",""
"image-keyboard-response","121","294849","0.0-3.0-4.0-1.0-0.36","5bed01c8306ec30001fb80e2","6662009ae78f21dd82fcd179","66620ab74a9e6c43497fb90a","514","","j","","","","","","","","./tasks/HMM-beads/Images/NewTrialWC.png","practice","0","36","1","0","1","1","false","",""
"image-keyboard-response","122","295150","0.0-3.0-4.0-1.0-1.36","5bed01c8306ec30001fb80e2","6662009ae78f21dd82fcd179","66620ab74a9e6c43497fb90a","null","","null","","","","","","","","./tasks/HMM-beads/Images/WhiteBeadChoice.png","","","","","","","","","",""
"image-keyboard-response","123","295652","0.0-3.0-4.0-1.0-2.36","5bed01c8306ec30001fb80e2","6662009ae78f21dd82fcd179","66620ab74a9e6c43497fb90a","null","","null","","","","","","","","./tasks/HMM-beads/Images/WhiteBeadChoiceWrong.png","","","","","","","","","",""
"image-keyboard-response","124","295947","0.0-3.0-4.0-1.0-0.37","5bed01c8306ec30001fb80e2","6662009ae78f21dd82fcd179","66620ab74a9e6c43497fb90a","293","","j","","","","","","","","./tasks/HMM-beads/Images/NewTrialBC.png","practice","0","37","1","1","0","1","true","",""
"image-keyboard-response","125","296249","0.0-3.0-4.0-1.0-1.37","5bed01c8306ec30001fb80e2","6662009ae78f21dd82fcd179","66620ab74a9e6c43497fb90a","null","","null","","","","","","","","./tasks/HMM-beads/Images/WhiteBeadChoice.png","","","","","","","","","",""
"image-keyboard-response","126","296766","0.0-3.0-4.0-1.0-2.37","5bed01c8306ec30001fb80e2","6662009ae78f21dd82fcd179","66620ab74a9e6c43497fb90a","null","","null","","","","","","","","./tasks/HMM-beads/Images/WhiteBeadChoiceCorrect.png","","","","","","","","","",""
"image-keyboard-response","127","296965","0.0-3.0-4.0-1.0-0.38","5bed01c8306ec30001fb80e2","6662009ae78f21dd82fcd179","66620ab74a9e6c43497fb90a","199","","j","","","","","","","","./tasks/HMM-beads/Images/NewTrialWC.png","practice","0","38","1","1","1","1","true","",""
"image-keyboard-response","128","297267","0.0-3.0-4.0-1.0-1.38","5bed01c8306ec30001fb80e2","6662009ae78f21dd82fcd179","66620ab74a9e6c43497fb90a","null","","null","","","","","","","","./tasks/HMM-beads/Images/WhiteBeadChoice.png","","","","","","","","","",""
"image-keyboard-response","129","297768","0.0-3.0-4.0-1.0-2.38","5bed01c8306ec30001fb80e2","6662009ae78f21dd82fcd179","66620ab74a9e6c43497fb90a","null","","null","","","","","","","","./tasks/HMM-beads/Images/WhiteBeadChoiceCorrect.png","","","","","","","","","",""
"image-keyboard-response","130","297941","0.0-3.0-4.0-1.0-0.39","5bed01c8306ec30001fb80e2","6662009ae78f21dd82fcd179","66620ab74a9e6c43497fb90a","172","","j","","","","","","","","./tasks/HMM-beads/Images/NewTrialWC.png","practice","0","39","1","1","1","1","true","",""
"image-keyboard-response","131","298249","0.0-3.0-4.0-1.0-1.39","5bed01c8306ec30001fb80e2","6662009ae78f21dd82fcd179","66620ab74a9e6c43497fb90a","null","","null","","","","","","","","./tasks/HMM-beads/Images/WhiteBeadChoice.png","","","","","","","","","",""
"image-keyboard-response","132","298766","0.0-3.0-4.0-1.0-2.39","5bed01c8306ec30001fb80e2","6662009ae78f21dd82fcd179","66620ab74a9e6c43497fb90a","null","","null","","","","","","","","./tasks/HMM-beads/Images/WhiteBeadChoiceCorrect.png","","","","","","","","","",""
"html-keyboard-response","133","302151","0.0-3.0-4.0-2.0","5bed01c8306ec30001fb80e2","6662009ae78f21dd82fcd179","66620ab74a9e6c43497fb90a","3384",""," ","","","","","","","","","","","","","","","","","",""
"instructions","134","424406","0.0-3.0-5.0","5bed01c8306ec30001fb80e2","6662009ae78f21dd82fcd179","66620ab74a9e6c43497fb90a","122254","","","","[{""page_index"":0,""viewing_time"":120142},{""page_index"":1,""viewing_time"":2112}]","","","","","","","","","","","","","","","",""
"html-keyboard-response","135","426751","0.0-3.0-6.0-0.0","5bed01c8306ec30001fb80e2","6662009ae78f21dd82fcd179","66620ab74a9e6c43497fb90a","2345",""," ","","","","","","","","<div align=center>In this block, there will be a <b>1% chance</b> that the jar on the next trial will be different from the jar on the current trial.<br><br></div>","","","","","","","","","",""
"image-keyboard-response","136","427964","0.0-3.0-6.0-1.0-0.0","5bed01c8306ec30001fb80e2","6662009ae78f21dd82fcd179","66620ab74a9e6c43497fb90a","1213","","f","","","","","","","","./tasks/HMM-beads/Images/NoChoice.png","lowH","1","0","1","0","9","0","true","",""
"image-keyboard-response","137","428266","0.0-3.0-6.0-1.0-1.0","5bed01c8306ec30001fb80e2","6662009ae78f21dd82fcd179","66620ab74a9e6c43497fb90a","null","","null","","","","","","","","./tasks/HMM-beads/Images/BlackBeadChoice.png","","","","","","","","","",""
"image-keyboard-response","138","428767","0.0-3.0-6.0-1.0-2.0","5bed01c8306ec30001fb80e2","6662009ae78f21dd82fcd179","66620ab74a9e6c43497fb90a","null","","null","","","","","","","","./tasks/HMM-beads/Images/BlackBeadChoiceCorrect.png","","","","","","","","","",""
"image-keyboard-response","139","428903","0.0-3.0-6.0-1.0-0.1","5bed01c8306ec30001fb80e2","6662009ae78f21dd82fcd179","66620ab74a9e6c43497fb90a","135","","f","","","","","","","","./tasks/HMM-beads/Images/NewTrialBC.png","lowH","1","1","1","1","0","0","false","",""
"image-keyboard-response","140","429218","0.0-3.0-6.0-1.0-1.1","5bed01c8306ec30001fb80e2","6662009ae78f21dd82fcd179","66620ab74a9e6c43497fb90a","null","","null","","","","","","","","./tasks/HMM-beads/Images/BlackBeadChoice.png","","","","","","","","","",""
"image-keyboard-response","141","429719","0.0-3.0-6.0-1.0-2.1","5bed01c8306ec30001fb80e2","6662009ae78f21dd82fcd179","66620ab74a9e6c43497fb90a","null","","null","","","","","","","","./tasks/HMM-beads/Images/BlackBeadChoiceWrong.png","","","","","","","","","",""
"image-keyboard-response","142","429807","0.0-3.0-6.0-1.0-0.2","5bed01c8306ec30001fb80e2","6662009ae78f21dd82fcd179","66620ab74a9e6c43497fb90a","87","","f","","","","","","","","./tasks/HMM-beads/Images/NewTrialWC.png","lowH","1","2","1","1","1","0","false","",""
"image-keyboard-response","143","430117","0.0-3.0-6.0-1.0-1.2","5bed01c8306ec30001fb80e2","6662009ae78f21dd82fcd179","66620ab74a9e6c43497fb90a","null","","null","","","","","","","","./tasks/HMM-beads/Images/BlackBeadChoice.png","","","","","","","","","",""
"image-keyboard-response","144","430618","0.0-3.0-6.0-1.0-2.2","5bed01c8306ec30001fb80e2","6662009ae78f21dd82fcd179","66620ab74a9e6c43497fb90a","null","","null","","","","","","","","./tasks/HMM-beads/Images/BlackBeadChoiceWrong.png","","","","","","","","","",""
"image-keyboard-response","145","430627","0.0-3.0-6.0-1.0-0.3","5bed01c8306ec30001fb80e2","6662009ae78f21dd82fcd179","66620ab74a9e6c43497fb90a","8","","f","","","","","","","","./tasks/HMM-beads/Images/NewTrialWC.png","lowH","1","3","1","1","1","0","false","",""
"image-keyboard-response","146","430933","0.0-3.0-6.0-1.0-1.3","5bed01c8306ec30001fb80e2","6662009ae78f21dd82fcd179","66620ab74a9e6c43497fb90a","null","","null","","","","","","","","./tasks/HMM-beads/Images/BlackBeadChoice.png","","","","","","","","","",""
"image-keyboard-response","147","431435","0.0-3.0-6.0-1.0-2.3","5bed01c8306ec30001fb80e2","6662009ae78f21dd82fcd179","66620ab74a9e6c43497fb90a","null","","null","","","","","","","","./tasks/HMM-beads/Images/BlackBeadChoiceWrong.png","","","","","","","","","",""
"image-keyboard-response","148","432230","0.0-3.0-6.0-1.0-0.4","5bed01c8306ec30001fb80e2","6662009ae78f21dd82fcd179","66620ab74a9e6c43497fb90a","794","","j","","","","","","","","./tasks/HMM-beads/Images/NewTrialWC.png","lowH","1","4","1","1","1","1","true","",""
"image-keyboard-response","149","432534","0.0-3.0-6.0-1.0-1.4","5bed01c8306ec30001fb80e2","6662009ae78f21dd82fcd179","66620ab74a9e6c43497fb90a","null","","null","","","","","","","","./tasks/HMM-beads/Images/WhiteBeadChoice.png","","","","","","","","","",""
"image-keyboard-response","150","433050","0.0-3.0-6.0-1.0-2.4","5bed01c8306ec30001fb80e2","6662009ae78f21dd82fcd179","66620ab74a9e6c43497fb90a","null","","null","","","","","","","","./tasks/HMM-beads/Images/WhiteBeadChoiceCorrect.png","","","","","","","","","",""
"image-keyboard-response","151","433562","0.0-3.0-6.0-1.0-0.5","5bed01c8306ec30001fb80e2","6662009ae78f21dd82fcd179","66620ab74a9e6c43497fb90a","510","","j","","","","","","","","./tasks/HMM-beads/Images/NewTrialWC.png","lowH","1","5","1","1","1","1","true","",""
"image-keyboard-response","152","433867","0.0-3.0-6.0-1.0-1.5","5bed01c8306ec30001fb80e2","6662009ae78f21dd82fcd179","66620ab74a9e6c43497fb90a","null","","null","","","","","","","","./tasks/HMM-beads/Images/WhiteBeadChoice.png","","","","","","","","","",""
"image-keyboard-response","153","434382","0.0-3.0-6.0-1.0-2.5","5bed01c8306ec30001fb80e2","6662009ae78f21dd82fcd179","66620ab74a9e6c43497fb90a","null","","null","","","","","","","","./tasks/HMM-beads/Images/WhiteBeadChoiceCorrect.png","","","","","","","","","",""
"image-keyboard-response","154","434847","0.0-3.0-6.0-1.0-0.6","5bed01c8306ec30001fb80e2","6662009ae78f21dd82fcd179","66620ab74a9e6c43497fb90a","463","","j","","","","","","","","./tasks/HMM-beads/Images/NewTrialWC.png","lowH","1","6","1","0","1","1","false","",""
"image-keyboard-response","155","435150","0.0-3.0-6.0-1.0-1.6","5bed01c8306ec30001fb80e2","6662009ae78f21dd82fcd179","66620ab74a9e6c43497fb90a","null","","null","","","","","","","","./tasks/HMM-beads/Images/WhiteBeadChoice.png","","","","","","","","","",""
"image-keyboard-response","156","435666","0.0-3.0-6.0-1.0-2.6","5bed01c8306ec30001fb80e2","6662009ae78f21dd82fcd179","66620ab74a9e6c43497fb90a","null","","null","","","","","","","","./tasks/HMM-beads/Images/WhiteBeadChoiceWrong.png","","","","","","","","","",""
"image-keyboard-response","157","435873","0.0-3.0-6.0-1.0-0.7","5bed01c8306ec30001fb80e2","6662009ae78f21dd82fcd179","66620ab74a9e6c43497fb90a","206","","j","","","","","","","","./tasks/HMM-beads/Images/NewTrialBC.png","lowH","1","7","1","1","0","1","true","",""
"image-keyboard-response","158","436183","0.0-3.0-6.0-1.0-1.7","5bed01c8306ec30001fb80e2","6662009ae78f21dd82fcd179","66620ab74a9e6c43497fb90a","null","","null","","","","","","","","./tasks/HMM-beads/Images/WhiteBeadChoice.png","","","","","","","","","",""
"image-keyboard-response","159","436699","0.0-3.0-6.0-1.0-2.7","5bed01c8306ec30001fb80e2","6662009ae78f21dd82fcd179","66620ab74a9e6c43497fb90a","null","","null","","","","","","","","./tasks/HMM-beads/Images/WhiteBeadChoiceCorrect.png","","","","","","","","","",""
"image-keyboard-response","160","437103","0.0-3.0-6.0-1.0-0.8","5bed01c8306ec30001fb80e2","6662009ae78f21dd82fcd179","66620ab74a9e6c43497fb90a","404","","j","","","","","","","","./tasks/HMM-beads/Images/NewTrialWC.png","lowH","1","8","1","1","1","1","true","",""
"image-keyboard-response","161","437416","0.0-3.0-6.0-1.0-1.8","5bed01c8306ec30001fb80e2","6662009ae78f21dd82fcd179","66620ab74a9e6c43497fb90a","null","","null","","","","","","","","./tasks/HMM-beads/Images/WhiteBeadChoice.png","","","","","","","","","",""
"image-keyboard-response","162","437917","0.0-3.0-6.0-1.0-2.8","5bed01c8306ec30001fb80e2","6662009ae78f21dd82fcd179","66620ab74a9e6c43497fb90a","null","","null","","","","","","","","./tasks/HMM-beads/Images/WhiteBeadChoiceCorrect.png","","","","","","","","","",""
"image-keyboard-response","163","438319","0.0-3.0-6.0-1.0-0.9","5bed01c8306ec30001fb80e2","6662009ae78f21dd82fcd179","66620ab74a9e6c43497fb90a","400","","j","","","","","","","","./tasks/HMM-beads/Images/NewTrialWC.png","lowH","1","9","1","1","1","1","true","",""
"image-keyboard-response","164","438633","0.0-3.0-6.0-1.0-1.9","5bed01c8306ec30001fb80e2","6662009ae78f21dd82fcd179","66620ab74a9e6c43497fb90a","null","","null","","","","","","","","./tasks/HMM-beads/Images/WhiteBeadChoice.png","","","","","","","","","",""
"image-keyboard-response","165","439134","0.0-3.0-6.0-1.0-2.9","5bed01c8306ec30001fb80e2","6662009ae78f21dd82fcd179","66620ab74a9e6c43497fb90a","null","","null","","","","","","","","./tasks/HMM-beads/Images/WhiteBeadChoiceCorrect.png","","","","","","","","","",""
"image-keyboard-response","166","439675","0.0-3.0-6.0-1.0-0.10","5bed01c8306ec30001fb80e2","6662009ae78f21dd82fcd179","66620ab74a9e6c43497fb90a","540","","j","","","","","","","","./tasks/HMM-beads/Images/NewTrialWC.png","lowH","1","10","1","1","1","1","true","",""
"image-keyboard-response","167","439983","0.0-3.0-6.0-1.0-1.10","5bed01c8306ec30001fb80e2","6662009ae78f21dd82fcd179","66620ab74a9e6c43497fb90a","null","","null","","","","","","","","./tasks/HMM-beads/Images/WhiteBeadChoice.png","","","","","","","","","",""
"image-keyboard-response","168","440499","0.0-3.0-6.0-1.0-2.10","5bed01c8306ec30001fb80e2","6662009ae78f21dd82fcd179","66620ab74a9e6c43497fb90a","null","","null","","","","","","","","./tasks/HMM-beads/Images/WhiteBeadChoiceCorrect.png","","","","","","","","","",""
"image-keyboard-response","169","441420","0.0-3.0-6.0-1.0-0.11","5bed01c8306ec30001fb80e2","6662009ae78f21dd82fcd179","66620ab74a9e6c43497fb90a","921","","j","","","","","","","","./tasks/HMM-beads/Images/NewTrialWC.png","lowH","1","11","1","1","1","1","true","",""
"image-keyboard-response","170","441733","0.0-3.0-6.0-1.0-1.11","5bed01c8306ec30001fb80e2","6662009ae78f21dd82fcd179","66620ab74a9e6c43497fb90a","null","","null","","","","","","","","./tasks/HMM-beads/Images/WhiteBeadChoice.png","","","","","","","","","",""
"image-keyboard-response","171","442234","0.0-3.0-6.0-1.0-2.11","5bed01c8306ec30001fb80e2","6662009ae78f21dd82fcd179","66620ab74a9e6c43497fb90a","null","","null","","","","","","","","./tasks/HMM-beads/Images/WhiteBeadChoiceCorrect.png","","","","","","","","","",""
"image-keyboard-response","172","443008","0.0-3.0-6.0-1.0-0.12","5bed01c8306ec30001fb80e2","6662009ae78f21dd82fcd179","66620ab74a9e6c43497fb90a","773","","j","","","","","","","","./tasks/HMM-beads/Images/NewTrialWC.png","lowH","1","12","1","1","1","1","true","",""
"image-keyboard-response","173","443317","0.0-3.0-6.0-1.0-1.12","5bed01c8306ec30001fb80e2","6662009ae78f21dd82fcd179","66620ab74a9e6c43497fb90a","null","","null","","","","","","","","./tasks/HMM-beads/Images/WhiteBeadChoice.png","","","","","","","","","",""
"image-keyboard-response","174","443834","0.0-3.0-6.0-1.0-2.12","5bed01c8306ec30001fb80e2","6662009ae78f21dd82fcd179","66620ab74a9e6c43497fb90a","null","","null","","","","","","","","./tasks/HMM-beads/Images/WhiteBeadChoiceCorrect.png","","","","","","","","","",""
"image-keyboard-response","175","444548","0.0-3.0-6.0-1.0-0.13","5bed01c8306ec30001fb80e2","6662009ae78f21dd82fcd179","66620ab74a9e6c43497fb90a","714","","j","","","","","","","","./tasks/HMM-beads/Images/NewTrialWC.png","lowH","1","13","1","0","1","1","false","",""
"image-keyboard-response","176","444851","0.0-3.0-6.0-1.0-1.13","5bed01c8306ec30001fb80e2","6662009ae78f21dd82fcd179","66620ab74a9e6c43497fb90a","null","","null","","","","","","","","./tasks/HMM-beads/Images/WhiteBeadChoice.png","","","","","","","","","",""
"image-keyboard-response","177","445367","0.0-3.0-6.0-1.0-2.13","5bed01c8306ec30001fb80e2","6662009ae78f21dd82fcd179","66620ab74a9e6c43497fb90a","null","","null","","","","","","","","./tasks/HMM-beads/Images/WhiteBeadChoiceWrong.png","","","","","","","","","",""
"image-keyboard-response","178","445369","0.0-3.0-6.0-1.0-0.14","5bed01c8306ec30001fb80e2","6662009ae78f21dd82fcd179","66620ab74a9e6c43497fb90a","1","","j","","","","","","","","./tasks/HMM-beads/Images/NewTrialBC.png","lowH","1","14","1","0","0","1","false","",""
"image-keyboard-response","179","445683","0.0-3.0-6.0-1.0-1.14","5bed01c8306ec30001fb80e2","6662009ae78f21dd82fcd179","66620ab74a9e6c43497fb90a","null","","null","","","","","","","","./tasks/HMM-beads/Images/WhiteBeadChoice.png","","","","","","","","","",""
"image-keyboard-response","180","446184","0.0-3.0-6.0-1.0-2.14","5bed01c8306ec30001fb80e2","6662009ae78f21dd82fcd179","66620ab74a9e6c43497fb90a","null","","null","","","","","","","","./tasks/HMM-beads/Images/WhiteBeadChoiceWrong.png","","","","","","","","","",""
"image-keyboard-response","181","446289","0.0-3.0-6.0-1.0-0.15","5bed01c8306ec30001fb80e2","6662009ae78f21dd82fcd179","66620ab74a9e6c43497fb90a","104","","f","","","","","","","","./tasks/HMM-beads/Images/NewTrialBC.png","lowH","1","15","1","1","0","0","false","",""
"image-keyboard-response","182","446600","0.0-3.0-6.0-1.0-1.15","5bed01c8306ec30001fb80e2","6662009ae78f21dd82fcd179","66620ab74a9e6c43497fb90a","null","","null","","","","","","","","./tasks/HMM-beads/Images/BlackBeadChoice.png","","","","","","","","","",""
"image-keyboard-response","183","447101","0.0-3.0-6.0-1.0-2.15","5bed01c8306ec30001fb80e2","6662009ae78f21dd82fcd179","66620ab74a9e6c43497fb90a","null","","null","","","","","","","","./tasks/HMM-beads/Images/BlackBeadChoiceWrong.png","","","","","","","","","",""
"image-keyboard-response","184","447759","0.0-3.0-6.0-1.0-0.16","5bed01c8306ec30001fb80e2","6662009ae78f21dd82fcd179","66620ab74a9e6c43497fb90a","657","","f","","","","","","","","./tasks/HMM-beads/Images/NewTrialWC.png","lowH","1","16","1","1","1","0","false","",""
"image-keyboard-response","185","448066","0.0-3.0-6.0-1.0-1.16","5bed01c8306ec30001fb80e2","6662009ae78f21dd82fcd179","66620ab74a9e6c43497fb90a","null","","null","","","","","","","","./tasks/HMM-beads/Images/BlackBeadChoice.png","","","","","","","","","",""
"image-keyboard-response","186","448583","0.0-3.0-6.0-1.0-2.16","5bed01c8306ec30001fb80e2","6662009ae78f21dd82fcd179","66620ab74a9e6c43497fb90a","null","","null","","","","","","","","./tasks/HMM-beads/Images/BlackBeadChoiceWrong.png","","","","","","","","","",""
"image-keyboard-response","187","448784","0.0-3.0-6.0-1.0-0.17","5bed01c8306ec30001fb80e2","6662009ae78f21dd82fcd179","66620ab74a9e6c43497fb90a","200","","j","","","","","","","","./tasks/HMM-beads/Images/NewTrialWC.png","lowH","1","17","1","1","1","1","true","",""
"image-keyboard-response","188","449101","0.0-3.0-6.0-1.0-1.17","5bed01c8306ec30001fb80e2","6662009ae78f21dd82fcd179","66620ab74a9e6c43497fb90a","null","","null","","","","","","","","./tasks/HMM-beads/Images/WhiteBeadChoice.png","","","","","","","","","",""
"image-keyboard-response","189","449617","0.0-3.0-6.0-1.0-2.17","5bed01c8306ec30001fb80e2","6662009ae78f21dd82fcd179","66620ab74a9e6c43497fb90a","null","","null","","","","","","","","./tasks/HMM-beads/Images/WhiteBeadChoiceCorrect.png","","","","","","","","","",""
"image-keyboard-response","190","450061","0.0-3.0-6.0-1.0-0.18","5bed01c8306ec30001fb80e2","6662009ae78f21dd82fcd179","66620ab74a9e6c43497fb90a","443","","j","","","","","","","","./tasks/HMM-beads/Images/NewTrialWC.png","lowH","1","18","1","1","1","1","true","",""
"image-keyboard-response","191","450368","0.0-3.0-6.0-1.0-1.18","5bed01c8306ec30001fb80e2","6662009ae78f21dd82fcd179","66620ab74a9e6c43497fb90a","null","","null","","","","","","","","./tasks/HMM-beads/Images/WhiteBeadChoice.png","","","","","","","","","",""
"image-keyboard-response","192","450884","0.0-3.0-6.0-1.0-2.18","5bed01c8306ec30001fb80e2","6662009ae78f21dd82fcd179","66620ab74a9e6c43497fb90a","null","","null","","","","","","","","./tasks/HMM-beads/Images/WhiteBeadChoiceCorrect.png","","","","","","","","","",""
"image-keyboard-response","193","451364","0.0-3.0-6.0-1.0-0.19","5bed01c8306ec30001fb80e2","6662009ae78f21dd82fcd179","66620ab74a9e6c43497fb90a","479","","j","","","","","","","","./tasks/HMM-beads/Images/NewTrialWC.png","lowH","1","19","1","1","1","1","true","",""
"image-keyboard-response","194","451667","0.0-3.0-6.0-1.0-1.19","5bed01c8306ec30001fb80e2","6662009ae78f21dd82fcd179","66620ab74a9e6c43497fb90a","null","","null","","","","","","","","./tasks/HMM-beads/Images/WhiteBeadChoice.png","","","","","","","","","",""
"image-keyboard-response","195","452184","0.0-3.0-6.0-1.0-2.19","5bed01c8306ec30001fb80e2","6662009ae78f21dd82fcd179","66620ab74a9e6c43497fb90a","null","","null","","","","","","","","./tasks/HMM-beads/Images/WhiteBeadChoiceCorrect.png","","","","","","","","","",""
"image-keyboard-response","196","452579","0.0-3.0-6.0-1.0-0.20","5bed01c8306ec30001fb80e2","6662009ae78f21dd82fcd179","66620ab74a9e6c43497fb90a","394","","j","","","","","","","","./tasks/HMM-beads/Images/NewTrialWC.png","lowH","1","20","1","1","1","1","true","",""
"image-keyboard-response","197","452883","0.0-3.0-6.0-1.0-1.20","5bed01c8306ec30001fb80e2","6662009ae78f21dd82fcd179","66620ab74a9e6c43497fb90a","null","","null","","","","","","","","./tasks/HMM-beads/Images/WhiteBeadChoice.png","","","","","","","","","",""
"image-keyboard-response","198","453400","0.0-3.0-6.0-1.0-2.20","5bed01c8306ec30001fb80e2","6662009ae78f21dd82fcd179","66620ab74a9e6c43497fb90a","null","","null","","","","","","","","./tasks/HMM-beads/Images/WhiteBeadChoiceCorrect.png","","","","","","","","","",""
"image-keyboard-response","199","453758","0.0-3.0-6.0-1.0-0.21","5bed01c8306ec30001fb80e2","6662009ae78f21dd82fcd179","66620ab74a9e6c43497fb90a","358","","j","","","","","","","","./tasks/HMM-beads/Images/NewTrialWC.png","lowH","1","21","1","1","1","1","true","",""
"image-keyboard-response","200","454067","0.0-3.0-6.0-1.0-1.21","5bed01c8306ec30001fb80e2","6662009ae78f21dd82fcd179","66620ab74a9e6c43497fb90a","null","","null","","","","","","","","./tasks/HMM-beads/Images/WhiteBeadChoice.png","","","","","","","","","",""
"image-keyboard-response","201","454583","0.0-3.0-6.0-1.0-2.21","5bed01c8306ec30001fb80e2","6662009ae78f21dd82fcd179","66620ab74a9e6c43497fb90a","null","","null","","","","","","","","./tasks/HMM-beads/Images/WhiteBeadChoiceCorrect.png","","","","","","","","","",""
"image-keyboard-response","202","454952","0.0-3.0-6.0-1.0-0.22","5bed01c8306ec30001fb80e2","6662009ae78f21dd82fcd179","66620ab74a9e6c43497fb90a","368","","j","","","","","","","","./tasks/HMM-beads/Images/NewTrialWC.png","lowH","1","22","1","1","1","1","true","",""
"image-keyboard-response","203","455267","0.0-3.0-6.0-1.0-1.22","5bed01c8306ec30001fb80e2","6662009ae78f21dd82fcd179","66620ab74a9e6c43497fb90a","null","","null","","","","","","","","./tasks/HMM-beads/Images/WhiteBeadChoice.png","","","","","","","","","",""
"image-keyboard-response","204","455768","0.0-3.0-6.0-1.0-2.22","5bed01c8306ec30001fb80e2","6662009ae78f21dd82fcd179","66620ab74a9e6c43497fb90a","null","","null","","","","","","","","./tasks/HMM-beads/Images/WhiteBeadChoiceCorrect.png","","","","","","","","","",""
"image-keyboard-response","205","456114","0.0-3.0-6.0-1.0-0.23","5bed01c8306ec30001fb80e2","6662009ae78f21dd82fcd179","66620ab74a9e6c43497fb90a","345","","j","","","","","","","","./tasks/HMM-beads/Images/NewTrialWC.png","lowH","1","23","1","1","1","1","true","",""
"image-keyboard-response","206","456418","0.0-3.0-6.0-1.0-1.23","5bed01c8306ec30001fb80e2","6662009ae78f21dd82fcd179","66620ab74a9e6c43497fb90a","null","","null","","","","","","","","./tasks/HMM-beads/Images/WhiteBeadChoice.png","","","","","","","","","",""
"image-keyboard-response","207","456933","0.0-3.0-6.0-1.0-2.23","5bed01c8306ec30001fb80e2","6662009ae78f21dd82fcd179","66620ab74a9e6c43497fb90a","null","","null","","","","","","","","./tasks/HMM-beads/Images/WhiteBeadChoiceCorrect.png","","","","","","","","","",""
"image-keyboard-response","208","457298","0.0-3.0-6.0-1.0-0.24","5bed01c8306ec30001fb80e2","6662009ae78f21dd82fcd179","66620ab74a9e6c43497fb90a","363","","j","","","","","","","","./tasks/HMM-beads/Images/NewTrialWC.png","lowH","1","24","1","0","1","1","false","",""
"image-keyboard-response","209","457601","0.0-3.0-6.0-1.0-1.24","5bed01c8306ec30001fb80e2","6662009ae78f21dd82fcd179","66620ab74a9e6c43497fb90a","null","","null","","","","","","","","./tasks/HMM-beads/Images/WhiteBeadChoice.png","","","","","","","","","",""
"image-keyboard-response","210","458117","0.0-3.0-6.0-1.0-2.24","5bed01c8306ec30001fb80e2","6662009ae78f21dd82fcd179","66620ab74a9e6c43497fb90a","null","","null","","","","","","","","./tasks/HMM-beads/Images/WhiteBeadChoiceWrong.png","","","","","","","","","",""
"image-keyboard-response","211","458983","0.0-3.0-6.0-1.0-0.25","5bed01c8306ec30001fb80e2","6662009ae78f21dd82fcd179","66620ab74a9e6c43497fb90a","866","","f","","","","","","","","./tasks/HMM-beads/Images/NewTrialBC.png","lowH","1","25","1","1","0","0","false","",""
"image-keyboard-response","212","459301","0.0-3.0-6.0-1.0-1.25","5bed01c8306ec30001fb80e2","6662009ae78f21dd82fcd179","66620ab74a9e6c43497fb90a","null","","null","","","","","","","","./tasks/HMM-beads/Images/BlackBeadChoice.png","","","","","","","","","",""
"image-keyboard-response","213","459817","0.0-3.0-6.0-1.0-2.25","5bed01c8306ec30001fb80e2","6662009ae78f21dd82fcd179","66620ab74a9e6c43497fb90a","null","","null","","","","","","","","./tasks/HMM-beads/Images/BlackBeadChoiceWrong.png","","","","","","","","","",""
"image-keyboard-response","214","460421","0.0-3.0-6.0-1.0-0.26","5bed01c8306ec30001fb80e2","6662009ae78f21dd82fcd179","66620ab74a9e6c43497fb90a","603","","f","","","","","","","","./tasks/HMM-beads/Images/NewTrialWC.png","lowH","1","26","1","0","1","0","true","",""
"image-keyboard-response","215","460734","0.0-3.0-6.0-1.0-1.26","5bed01c8306ec30001fb80e2","6662009ae78f21dd82fcd179","66620ab74a9e6c43497fb90a","null","","null","","","","","","","","./tasks/HMM-beads/Images/BlackBeadChoice.png","","","","","","","","","",""
"image-keyboard-response","216","461251","0.0-3.0-6.0-1.0-2.26","5bed01c8306ec30001fb80e2","6662009ae78f21dd82fcd179","66620ab74a9e6c43497fb90a","null","","null","","","","","","","","./tasks/HMM-beads/Images/BlackBeadChoiceCorrect.png","","","","","","","","","",""
"image-keyboard-response","217","461839","0.0-3.0-6.0-1.0-0.27","5bed01c8306ec30001fb80e2","6662009ae78f21dd82fcd179","66620ab74a9e6c43497fb90a","587","","f","","","","","","","","./tasks/HMM-beads/Images/NewTrialBC.png","lowH","1","27","1","1","0","0","false","",""
"image-keyboard-response","218","462151","0.0-3.0-6.0-1.0-1.27","5bed01c8306ec30001fb80e2","6662009ae78f21dd82fcd179","66620ab74a9e6c43497fb90a","null","","null","","","","","","","","./tasks/HMM-beads/Images/BlackBeadChoice.png","","","","","","","","","",""
"image-keyboard-response","219","462667","0.0-3.0-6.0-1.0-2.27","5bed01c8306ec30001fb80e2","6662009ae78f21dd82fcd179","66620ab74a9e6c43497fb90a","null","","null","","","","","","","","./tasks/HMM-beads/Images/BlackBeadChoiceWrong.png","","","","","","","","","",""
"image-keyboard-response","220","463103","0.0-3.0-6.0-1.0-0.28","5bed01c8306ec30001fb80e2","6662009ae78f21dd82fcd179","66620ab74a9e6c43497fb90a","436","","f","","","","","","","","./tasks/HMM-beads/Images/NewTrialWC.png","lowH","1","28","1","1","1","0","false","",""
"image-keyboard-response","221","463417","0.0-3.0-6.0-1.0-1.28","5bed01c8306ec30001fb80e2","6662009ae78f21dd82fcd179","66620ab74a9e6c43497fb90a","null","","null","","","","","","","","./tasks/HMM-beads/Images/BlackBeadChoice.png","","","","","","","","","",""
"image-keyboard-response","222","463925","0.0-3.0-6.0-1.0-2.28","5bed01c8306ec30001fb80e2","6662009ae78f21dd82fcd179","66620ab74a9e6c43497fb90a","null","","null","","","","","","","","./tasks/HMM-beads/Images/BlackBeadChoiceWrong.png","","","","","","","","","",""
"image-keyboard-response","223","464300","0.0-3.0-6.0-1.0-0.29","5bed01c8306ec30001fb80e2","6662009ae78f21dd82fcd179","66620ab74a9e6c43497fb90a","374","","f","","","","","","","","./tasks/HMM-beads/Images/NewTrialWC.png","lowH","1","29","1","1","1","0","false","",""
"image-keyboard-response","224","464601","0.0-3.0-6.0-1.0-1.29","5bed01c8306ec30001fb80e2","6662009ae78f21dd82fcd179","66620ab74a9e6c43497fb90a","null","","null","","","","","","","","./tasks/HMM-beads/Images/BlackBeadChoice.png","","","","","","","","","",""
"image-keyboard-response","225","465117","0.0-3.0-6.0-1.0-2.29","5bed01c8306ec30001fb80e2","6662009ae78f21dd82fcd179","66620ab74a9e6c43497fb90a","null","","null","","","","","","","","./tasks/HMM-beads/Images/BlackBeadChoiceWrong.png","","","","","","","","","",""
"image-keyboard-response","226","465533","0.0-3.0-6.0-1.0-0.30","5bed01c8306ec30001fb80e2","6662009ae78f21dd82fcd179","66620ab74a9e6c43497fb90a","415","","j","","","","","","","","./tasks/HMM-beads/Images/NewTrialWC.png","lowH","1","30","1","1","1","1","true","",""
"image-keyboard-response","227","465834","0.0-3.0-6.0-1.0-1.30","5bed01c8306ec30001fb80e2","6662009ae78f21dd82fcd179","66620ab74a9e6c43497fb90a","null","","null","","","","","","","","./tasks/HMM-beads/Images/WhiteBeadChoice.png","","","","","","","","","",""
"image-keyboard-response","228","466350","0.0-3.0-6.0-1.0-2.30","5bed01c8306ec30001fb80e2","6662009ae78f21dd82fcd179","66620ab74a9e6c43497fb90a","null","","null","","","","","","","","./tasks/HMM-beads/Images/WhiteBeadChoiceCorrect.png","","","","","","","","","",""
"image-keyboard-response","229","466744","0.0-3.0-6.0-1.0-0.31","5bed01c8306ec30001fb80e2","6662009ae78f21dd82fcd179","66620ab74a9e6c43497fb90a","393","","j","","","","","","","","./tasks/HMM-beads/Images/NewTrialWC.png","lowH","1","31","1","1","1","1","true","",""
"image-keyboard-response","230","467050","0.0-3.0-6.0-1.0-1.31","5bed01c8306ec30001fb80e2","6662009ae78f21dd82fcd179","66620ab74a9e6c43497fb90a","null","","null","","","","","","","","./tasks/HMM-beads/Images/WhiteBeadChoice.png","","","","","","","","","",""
"image-keyboard-response","231","467552","0.0-3.0-6.0-1.0-2.31","5bed01c8306ec30001fb80e2","6662009ae78f21dd82fcd179","66620ab74a9e6c43497fb90a","null","","null","","","","","","","","./tasks/HMM-beads/Images/WhiteBeadChoiceCorrect.png","","","","","","","","","",""
"image-keyboard-response","232","467878","0.0-3.0-6.0-1.0-0.32","5bed01c8306ec30001fb80e2","6662009ae78f21dd82fcd179","66620ab74a9e6c43497fb90a","326","","j","","","","","","","","./tasks/HMM-beads/Images/NewTrialWC.png","lowH","1","32","1","1","1","1","true","",""
"image-keyboard-response","233","468183","0.0-3.0-6.0-1.0-1.32","5bed01c8306ec30001fb80e2","6662009ae78f21dd82fcd179","66620ab74a9e6c43497fb90a","null","","null","","","","","","","","./tasks/HMM-beads/Images/WhiteBeadChoice.png","","","","","","","","","",""
"image-keyboard-response","234","468685","0.0-3.0-6.0-1.0-2.32","5bed01c8306ec30001fb80e2","6662009ae78f21dd82fcd179","66620ab74a9e6c43497fb90a","null","","null","","","","","","","","./tasks/HMM-beads/Images/WhiteBeadChoiceCorrect.png","","","","","","","","","",""
"image-keyboard-response","235","468907","0.0-3.0-6.0-1.0-0.33","5bed01c8306ec30001fb80e2","6662009ae78f21dd82fcd179","66620ab74a9e6c43497fb90a","221","","j","","","","","","","","./tasks/HMM-beads/Images/NewTrialWC.png","lowH","1","33","1","1","1","1","true","",""
"image-keyboard-response","236","469217","0.0-3.0-6.0-1.0-1.33","5bed01c8306ec30001fb80e2","6662009ae78f21dd82fcd179","66620ab74a9e6c43497fb90a","null","","null","","","","","","","","./tasks/HMM-beads/Images/WhiteBeadChoice.png","","","","","","","","","",""
"image-keyboard-response","237","469718","0.0-3.0-6.0-1.0-2.33","5bed01c8306ec30001fb80e2","6662009ae78f21dd82fcd179","66620ab74a9e6c43497fb90a","null","","null","","","","","","","","./tasks/HMM-beads/Images/WhiteBeadChoiceCorrect.png","","","","","","","","","",""
"image-keyboard-response","238","469946","0.0-3.0-6.0-1.0-0.34","5bed01c8306ec30001fb80e2","6662009ae78f21dd82fcd179","66620ab74a9e6c43497fb90a","227","","j","","","","","","","","./tasks/HMM-beads/Images/NewTrialWC.png","lowH","1","34","1","1","1","1","true","",""
"image-keyboard-response","239","470250","0.0-3.0-6.0-1.0-1.34","5bed01c8306ec30001fb80e2","6662009ae78f21dd82fcd179","66620ab74a9e6c43497fb90a","null","","null","","","","","","","","./tasks/HMM-beads/Images/WhiteBeadChoice.png","","","","","","","","","",""
"image-keyboard-response","240","470766","0.0-3.0-6.0-1.0-2.34","5bed01c8306ec30001fb80e2","6662009ae78f21dd82fcd179","66620ab74a9e6c43497fb90a","null","","null","","","","","","","","./tasks/HMM-beads/Images/WhiteBeadChoiceCorrect.png","","","","","","","","","",""
"image-keyboard-response","241","470976","0.0-3.0-6.0-1.0-0.35","5bed01c8306ec30001fb80e2","6662009ae78f21dd82fcd179","66620ab74a9e6c43497fb90a","209","","j","","","","","","","","./tasks/HMM-beads/Images/NewTrialWC.png","lowH","1","35","1","1","1","1","true","",""
"image-keyboard-response","242","471284","0.0-3.0-6.0-1.0-1.35","5bed01c8306ec30001fb80e2","6662009ae78f21dd82fcd179","66620ab74a9e6c43497fb90a","null","","null","","","","","","","","./tasks/HMM-beads/Images/WhiteBeadChoice.png","","","","","","","","","",""
"image-keyboard-response","243","471800","0.0-3.0-6.0-1.0-2.35","5bed01c8306ec30001fb80e2","6662009ae78f21dd82fcd179","66620ab74a9e6c43497fb90a","null","","null","","","","","","","","./tasks/HMM-beads/Images/WhiteBeadChoiceCorrect.png","","","","","","","","","",""
"image-keyboard-response","244","472035","0.0-3.0-6.0-1.0-0.36","5bed01c8306ec30001fb80e2","6662009ae78f21dd82fcd179","66620ab74a9e6c43497fb90a","234","","j","","","","","","","","./tasks/HMM-beads/Images/NewTrialWC.png","lowH","1","36","1","1","1","1","true","",""
"image-keyboard-response","245","472351","0.0-3.0-6.0-1.0-1.36","5bed01c8306ec30001fb80e2","6662009ae78f21dd82fcd179","66620ab74a9e6c43497fb90a","null","","null","","","","","","","","./tasks/HMM-beads/Images/WhiteBeadChoice.png","","","","","","","","","",""
"image-keyboard-response","246","472866","0.0-3.0-6.0-1.0-2.36","5bed01c8306ec30001fb80e2","6662009ae78f21dd82fcd179","66620ab74a9e6c43497fb90a","null","","null","","","","","","","","./tasks/HMM-beads/Images/WhiteBeadChoiceCorrect.png","","","","","","","","","",""
"image-keyboard-response","247","472963","0.0-3.0-6.0-1.0-0.37","5bed01c8306ec30001fb80e2","6662009ae78f21dd82fcd179","66620ab74a9e6c43497fb90a","96","","j","","","","","","","","./tasks/HMM-beads/Images/NewTrialWC.png","lowH","1","37","1","1","1","1","true","",""
"image-keyboard-response","248","473268","0.0-3.0-6.0-1.0-1.37","5bed01c8306ec30001fb80e2","6662009ae78f21dd82fcd179","66620ab74a9e6c43497fb90a","null","","null","","","","","","","","./tasks/HMM-beads/Images/WhiteBeadChoice.png","","","","","","","","","",""
"image-keyboard-response","249","473784","0.0-3.0-6.0-1.0-2.37","5bed01c8306ec30001fb80e2","6662009ae78f21dd82fcd179","66620ab74a9e6c43497fb90a","null","","null","","","","","","","","./tasks/HMM-beads/Images/WhiteBeadChoiceCorrect.png","","","","","","","","","",""
"image-keyboard-response","250","474160","0.0-3.0-6.0-1.0-0.38","5bed01c8306ec30001fb80e2","6662009ae78f21dd82fcd179","66620ab74a9e6c43497fb90a","375","","j","","","","","","","","./tasks/HMM-beads/Images/NewTrialWC.png","lowH","1","38","1","1","1","1","true","",""
"image-keyboard-response","251","474468","0.0-3.0-6.0-1.0-1.38","5bed01c8306ec30001fb80e2","6662009ae78f21dd82fcd179","66620ab74a9e6c43497fb90a","null","","null","","","","","","","","./tasks/HMM-beads/Images/WhiteBeadChoice.png","","","","","","","","","",""
"image-keyboard-response","252","474984","0.0-3.0-6.0-1.0-2.38","5bed01c8306ec30001fb80e2","6662009ae78f21dd82fcd179","66620ab74a9e6c43497fb90a","null","","null","","","","","","","","./tasks/HMM-beads/Images/WhiteBeadChoiceCorrect.png","","","","","","","","","",""
"image-keyboard-response","253","475170","0.0-3.0-6.0-1.0-0.39","5bed01c8306ec30001fb80e2","6662009ae78f21dd82fcd179","66620ab74a9e6c43497fb90a","185","","j","","","","","","","","./tasks/HMM-beads/Images/NewTrialWC.png","lowH","1","39","1","1","1","1","true","",""
"image-keyboard-response","254","475471","0.0-3.0-6.0-1.0-1.39","5bed01c8306ec30001fb80e2","6662009ae78f21dd82fcd179","66620ab74a9e6c43497fb90a","null","","null","","","","","","","","./tasks/HMM-beads/Images/WhiteBeadChoice.png","","","","","","","","","",""
"image-keyboard-response","255","475984","0.0-3.0-6.0-1.0-2.39","5bed01c8306ec30001fb80e2","6662009ae78f21dd82fcd179","66620ab74a9e6c43497fb90a","null","","null","","","","","","","","./tasks/HMM-beads/Images/WhiteBeadChoiceCorrect.png","","","","","","","","","",""
"image-keyboard-response","256","476130","0.0-3.0-6.0-1.0-0.40","5bed01c8306ec30001fb80e2","6662009ae78f21dd82fcd179","66620ab74a9e6c43497fb90a","146","","j","","","","","","","","./tasks/HMM-beads/Images/NewTrialWC.png","lowH","1","40","1","1","1","1","true","",""
"image-keyboard-response","257","476434","0.0-3.0-6.0-1.0-1.40","5bed01c8306ec30001fb80e2","6662009ae78f21dd82fcd179","66620ab74a9e6c43497fb90a","null","","null","","","","","","","","./tasks/HMM-beads/Images/WhiteBeadChoice.png","","","","","","","","","",""
"image-keyboard-response","258","476951","0.0-3.0-6.0-1.0-2.40","5bed01c8306ec30001fb80e2","6662009ae78f21dd82fcd179","66620ab74a9e6c43497fb90a","null","","null","","","","","","","","./tasks/HMM-beads/Images/WhiteBeadChoiceCorrect.png","","","","","","","","","",""
"image-keyboard-response","259","477037","0.0-3.0-6.0-1.0-0.41","5bed01c8306ec30001fb80e2","6662009ae78f21dd82fcd179","66620ab74a9e6c43497fb90a","85","","j","","","","","","","","./tasks/HMM-beads/Images/NewTrialWC.png","lowH","1","41","1","1","1","1","true","",""
"image-keyboard-response","260","477344","0.0-3.0-6.0-1.0-1.41","5bed01c8306ec30001fb80e2","6662009ae78f21dd82fcd179","66620ab74a9e6c43497fb90a","null","","null","","","","","","","","./tasks/HMM-beads/Images/WhiteBeadChoice.png","","","","","","","","","",""
"image-keyboard-response","261","477850","0.0-3.0-6.0-1.0-2.41","5bed01c8306ec30001fb80e2","6662009ae78f21dd82fcd179","66620ab74a9e6c43497fb90a","null","","null","","","","","","","","./tasks/HMM-beads/Images/WhiteBeadChoiceCorrect.png","","","","","","","","","",""
"image-keyboard-response","262","477926","0.0-3.0-6.0-1.0-0.42","5bed01c8306ec30001fb80e2","6662009ae78f21dd82fcd179","66620ab74a9e6c43497fb90a","74","","j","","","","","","","","./tasks/HMM-beads/Images/NewTrialWC.png","lowH","1","42","1","1","1","1","true","",""
"image-keyboard-response","263","478233","0.0-3.0-6.0-1.0-1.42","5bed01c8306ec30001fb80e2","6662009ae78f21dd82fcd179","66620ab74a9e6c43497fb90a","null","","null","","","","","","","","./tasks/HMM-beads/Images/WhiteBeadChoice.png","","","","","","","","","",""
"image-keyboard-response","264","478750","0.0-3.0-6.0-1.0-2.42","5bed01c8306ec30001fb80e2","6662009ae78f21dd82fcd179","66620ab74a9e6c43497fb90a","null","","null","","","","","","","","./tasks/HMM-beads/Images/WhiteBeadChoiceCorrect.png","","","","","","","","","",""
"image-keyboard-response","265","478803","0.0-3.0-6.0-1.0-0.43","5bed01c8306ec30001fb80e2","6662009ae78f21dd82fcd179","66620ab74a9e6c43497fb90a","51","","j","","","","","","","","./tasks/HMM-beads/Images/NewTrialWC.png","lowH","1","43","1","1","1","1","true","",""
"image-keyboard-response","266","479104","0.0-3.0-6.0-1.0-1.43","5bed01c8306ec30001fb80e2","6662009ae78f21dd82fcd179","66620ab74a9e6c43497fb90a","null","","null","","","","","","","","./tasks/HMM-beads/Images/WhiteBeadChoice.png","","","","","","","","","",""
"image-keyboard-response","267","479617","0.0-3.0-6.0-1.0-2.43","5bed01c8306ec30001fb80e2","6662009ae78f21dd82fcd179","66620ab74a9e6c43497fb90a","null","","null","","","","","","","","./tasks/HMM-beads/Images/WhiteBeadChoiceCorrect.png","","","","","","","","","",""
"image-keyboard-response","268","479639","0.0-3.0-6.0-1.0-0.44","5bed01c8306ec30001fb80e2","6662009ae78f21dd82fcd179","66620ab74a9e6c43497fb90a","21","","j","","","","","","","","./tasks/HMM-beads/Images/NewTrialWC.png","lowH","1","44","1","1","1","1","true","",""
"image-keyboard-response","269","479951","0.0-3.0-6.0-1.0-1.44","5bed01c8306ec30001fb80e2","6662009ae78f21dd82fcd179","66620ab74a9e6c43497fb90a","null","","null","","","","","","","","./tasks/HMM-beads/Images/WhiteBeadChoice.png","","","","","","","","","",""
"image-keyboard-response","270","480468","0.0-3.0-6.0-1.0-2.44","5bed01c8306ec30001fb80e2","6662009ae78f21dd82fcd179","66620ab74a9e6c43497fb90a","null","","null","","","","","","","","./tasks/HMM-beads/Images/WhiteBeadChoiceCorrect.png","","","","","","","","","",""
"image-keyboard-response","271","480481","0.0-3.0-6.0-1.0-0.45","5bed01c8306ec30001fb80e2","6662009ae78f21dd82fcd179","66620ab74a9e6c43497fb90a","12","","j","","","","","","","","./tasks/HMM-beads/Images/NewTrialWC.png","lowH","1","45","1","1","1","1","true","",""
"image-keyboard-response","272","480783","0.0-3.0-6.0-1.0-1.45","5bed01c8306ec30001fb80e2","6662009ae78f21dd82fcd179","66620ab74a9e6c43497fb90a","null","","null","","","","","","","","./tasks/HMM-beads/Images/WhiteBeadChoice.png","","","","","","","","","",""
"image-keyboard-response","273","481285","0.0-3.0-6.0-1.0-2.45","5bed01c8306ec30001fb80e2","6662009ae78f21dd82fcd179","66620ab74a9e6c43497fb90a","null","","null","","","","","","","","./tasks/HMM-beads/Images/WhiteBeadChoiceCorrect.png","","","","","","","","","",""
"image-keyboard-response","274","481354","0.0-3.0-6.0-1.0-0.46","5bed01c8306ec30001fb80e2","6662009ae78f21dd82fcd179","66620ab74a9e6c43497fb90a","68","","j","","","","","","","","./tasks/HMM-beads/Images/NewTrialWC.png","lowH","1","46","1","1","1","1","true","",""
"image-keyboard-response","275","481668","0.0-3.0-6.0-1.0-1.46","5bed01c8306ec30001fb80e2","6662009ae78f21dd82fcd179","66620ab74a9e6c43497fb90a","null","","null","","","","","","","","./tasks/HMM-beads/Images/WhiteBeadChoice.png","","","","","","","","","",""
"image-keyboard-response","276","482183","0.0-3.0-6.0-1.0-2.46","5bed01c8306ec30001fb80e2","6662009ae78f21dd82fcd179","66620ab74a9e6c43497fb90a","null","","null","","","","","","","","./tasks/HMM-beads/Images/WhiteBeadChoiceCorrect.png","","","","","","","","","",""
"image-keyboard-response","277","482218","0.0-3.0-6.0-1.0-0.47","5bed01c8306ec30001fb80e2","6662009ae78f21dd82fcd179","66620ab74a9e6c43497fb90a","34","","j","","","","","","","","./tasks/HMM-beads/Images/NewTrialWC.png","lowH","1","47","1","0","1","1","false","",""
"image-keyboard-response","278","482525","0.0-3.0-6.0-1.0-1.47","5bed01c8306ec30001fb80e2","6662009ae78f21dd82fcd179","66620ab74a9e6c43497fb90a","null","","null","","","","","","","","./tasks/HMM-beads/Images/WhiteBeadChoice.png","","","","","","","","","",""
"image-keyboard-response","279","483033","0.0-3.0-6.0-1.0-2.47","5bed01c8306ec30001fb80e2","6662009ae78f21dd82fcd179","66620ab74a9e6c43497fb90a","null","","null","","","","","","","","./tasks/HMM-beads/Images/WhiteBeadChoiceWrong.png","","","","","","","","","",""
"image-keyboard-response","280","483703","0.0-3.0-6.0-1.0-0.48","5bed01c8306ec30001fb80e2","6662009ae78f21dd82fcd179","66620ab74a9e6c43497fb90a","668","","f","","","","","","","","./tasks/HMM-beads/Images/NewTrialBC.png","lowH","1","48","1","0","0","0","true","",""
"image-keyboard-response","281","484018","0.0-3.0-6.0-1.0-1.48","5bed01c8306ec30001fb80e2","6662009ae78f21dd82fcd179","66620ab74a9e6c43497fb90a","null","","null","","","","","","","","./tasks/HMM-beads/Images/BlackBeadChoice.png","","","","","","","","","",""
"image-keyboard-response","282","484533","0.0-3.0-6.0-1.0-2.48","5bed01c8306ec30001fb80e2","6662009ae78f21dd82fcd179","66620ab74a9e6c43497fb90a","null","","null","","","","","","","","./tasks/HMM-beads/Images/BlackBeadChoiceCorrect.png","","","","","","","","","",""
"image-keyboard-response","283","484900","0.0-3.0-6.0-1.0-0.49","5bed01c8306ec30001fb80e2","6662009ae78f21dd82fcd179","66620ab74a9e6c43497fb90a","366","","f","","","","","","","","./tasks/HMM-beads/Images/NewTrialBC.png","lowH","1","49","1","0","0","0","true","",""
"image-keyboard-response","284","485201","0.0-3.0-6.0-1.0-1.49","5bed01c8306ec30001fb80e2","6662009ae78f21dd82fcd179","66620ab74a9e6c43497fb90a","null","","null","","","","","","","","./tasks/HMM-beads/Images/BlackBeadChoice.png","","","","","","","","","",""
"image-keyboard-response","285","485717","0.0-3.0-6.0-1.0-2.49","5bed01c8306ec30001fb80e2","6662009ae78f21dd82fcd179","66620ab74a9e6c43497fb90a","null","","null","","","","","","","","./tasks/HMM-beads/Images/BlackBeadChoiceCorrect.png","","","","","","","","","",""
"image-keyboard-response","286","485738","0.0-3.0-6.0-1.0-0.50","5bed01c8306ec30001fb80e2","6662009ae78f21dd82fcd179","66620ab74a9e6c43497fb90a","20","","f","","","","","","","","./tasks/HMM-beads/Images/NewTrialBC.png","lowH","1","50","1","1","0","0","false","",""
"image-keyboard-response","287","486051","0.0-3.0-6.0-1.0-1.50","5bed01c8306ec30001fb80e2","6662009ae78f21dd82fcd179","66620ab74a9e6c43497fb90a","null","","null","","","","","","","","./tasks/HMM-beads/Images/BlackBeadChoice.png","","","","","","","","","",""
"image-keyboard-response","288","486552","0.0-3.0-6.0-1.0-2.50","5bed01c8306ec30001fb80e2","6662009ae78f21dd82fcd179","66620ab74a9e6c43497fb90a","null","","null","","","","","","","","./tasks/HMM-beads/Images/BlackBeadChoiceWrong.png","","","","","","","","","",""
"image-keyboard-response","289","486856","0.0-3.0-6.0-1.0-0.51","5bed01c8306ec30001fb80e2","6662009ae78f21dd82fcd179","66620ab74a9e6c43497fb90a","303","","f","","","","","","","","./tasks/HMM-beads/Images/NewTrialWC.png","lowH","1","51","1","1","1","0","false","",""
"image-keyboard-response","290","487160","0.0-3.0-6.0-1.0-1.51","5bed01c8306ec30001fb80e2","6662009ae78f21dd82fcd179","66620ab74a9e6c43497fb90a","null","","null","","","","","","","","./tasks/HMM-beads/Images/BlackBeadChoice.png","","","","","","","","","",""
"image-keyboard-response","291","487668","0.0-3.0-6.0-1.0-2.51","5bed01c8306ec30001fb80e2","6662009ae78f21dd82fcd179","66620ab74a9e6c43497fb90a","null","","null","","","","","","","","./tasks/HMM-beads/Images/BlackBeadChoiceWrong.png","","","","","","","","","",""
"image-keyboard-response","292","487680","0.0-3.0-6.0-1.0-0.52","5bed01c8306ec30001fb80e2","6662009ae78f21dd82fcd179","66620ab74a9e6c43497fb90a","11","","f","","","","","","","","./tasks/HMM-beads/Images/NewTrialWC.png","lowH","1","52","1","1","1","0","false","",""
"image-keyboard-response","293","487984","0.0-3.0-6.0-1.0-1.52","5bed01c8306ec30001fb80e2","6662009ae78f21dd82fcd179","66620ab74a9e6c43497fb90a","null","","null","","","","","","","","./tasks/HMM-beads/Images/BlackBeadChoice.png","","","","","","","","","",""
"image-keyboard-response","294","488500","0.0-3.0-6.0-1.0-2.52","5bed01c8306ec30001fb80e2","6662009ae78f21dd82fcd179","66620ab74a9e6c43497fb90a","null","","null","","","","","","","","./tasks/HMM-beads/Images/BlackBeadChoiceWrong.png","","","","","","","","","",""
"image-keyboard-response","295","488503","0.0-3.0-6.0-1.0-0.53","5bed01c8306ec30001fb80e2","6662009ae78f21dd82fcd179","66620ab74a9e6c43497fb90a","1","","f","","","","","","","","./tasks/HMM-beads/Images/NewTrialWC.png","lowH","1","53","1","1","1","0","false","",""
"image-keyboard-response","296","488818","0.0-3.0-6.0-1.0-1.53","5bed01c8306ec30001fb80e2","6662009ae78f21dd82fcd179","66620ab74a9e6c43497fb90a","null","","null","","","","","","","","./tasks/HMM-beads/Images/BlackBeadChoice.png","","","","","","","","","",""
"image-keyboard-response","297","489334","0.0-3.0-6.0-1.0-2.53","5bed01c8306ec30001fb80e2","6662009ae78f21dd82fcd179","66620ab74a9e6c43497fb90a","null","","null","","","","","","","","./tasks/HMM-beads/Images/BlackBeadChoiceWrong.png","","","","","","","","","",""
"image-keyboard-response","298","489994","0.0-3.0-6.0-1.0-0.54","5bed01c8306ec30001fb80e2","6662009ae78f21dd82fcd179","66620ab74a9e6c43497fb90a","659","","j","","","","","","","","./tasks/HMM-beads/Images/NewTrialWC.png","lowH","1","54","1","1","1","1","true","",""
"image-keyboard-response","299","490300","0.0-3.0-6.0-1.0-1.54","5bed01c8306ec30001fb80e2","6662009ae78f21dd82fcd179","66620ab74a9e6c43497fb90a","null","","null","","","","","","","","./tasks/HMM-beads/Images/WhiteBeadChoice.png","","","","","","","","","",""
"image-keyboard-response","300","490801","0.0-3.0-6.0-1.0-2.54","5bed01c8306ec30001fb80e2","6662009ae78f21dd82fcd179","66620ab74a9e6c43497fb90a","null","","null","","","","","","","","./tasks/HMM-beads/Images/WhiteBeadChoiceCorrect.png","","","","","","","","","",""
"image-keyboard-response","301","490881","0.0-3.0-6.0-1.0-0.55","5bed01c8306ec30001fb80e2","6662009ae78f21dd82fcd179","66620ab74a9e6c43497fb90a","79","","j","","","","","","","","./tasks/HMM-beads/Images/NewTrialWC.png","lowH","1","55","1","1","1","1","true","",""
"image-keyboard-response","302","491183","0.0-3.0-6.0-1.0-1.55","5bed01c8306ec30001fb80e2","6662009ae78f21dd82fcd179","66620ab74a9e6c43497fb90a","null","","null","","","","","","","","./tasks/HMM-beads/Images/WhiteBeadChoice.png","","","","","","","","","",""
"image-keyboard-response","303","491684","0.0-3.0-6.0-1.0-2.55","5bed01c8306ec30001fb80e2","6662009ae78f21dd82fcd179","66620ab74a9e6c43497fb90a","null","","null","","","","","","","","./tasks/HMM-beads/Images/WhiteBeadChoiceCorrect.png","","","","","","","","","",""
"image-keyboard-response","304","491924","0.0-3.0-6.0-1.0-0.56","5bed01c8306ec30001fb80e2","6662009ae78f21dd82fcd179","66620ab74a9e6c43497fb90a","238","","j","","","","","","","","./tasks/HMM-beads/Images/NewTrialWC.png","lowH","1","56","1","1","1","1","true","",""
"image-keyboard-response","305","492232","0.0-3.0-6.0-1.0-1.56","5bed01c8306ec30001fb80e2","6662009ae78f21dd82fcd179","66620ab74a9e6c43497fb90a","null","","null","","","","","","","","./tasks/HMM-beads/Images/WhiteBeadChoice.png","","","","","","","","","",""
"image-keyboard-response","306","492735","0.0-3.0-6.0-1.0-2.56","5bed01c8306ec30001fb80e2","6662009ae78f21dd82fcd179","66620ab74a9e6c43497fb90a","null","","null","","","","","","","","./tasks/HMM-beads/Images/WhiteBeadChoiceCorrect.png","","","","","","","","","",""
"image-keyboard-response","307","492894","0.0-3.0-6.0-1.0-0.57","5bed01c8306ec30001fb80e2","6662009ae78f21dd82fcd179","66620ab74a9e6c43497fb90a","157","","j","","","","","","","","./tasks/HMM-beads/Images/NewTrialWC.png","lowH","1","57","1","1","1","1","true","",""
"image-keyboard-response","308","493200","0.0-3.0-6.0-1.0-1.57","5bed01c8306ec30001fb80e2","6662009ae78f21dd82fcd179","66620ab74a9e6c43497fb90a","null","","null","","","","","","","","./tasks/HMM-beads/Images/WhiteBeadChoice.png","","","","","","","","","",""
"image-keyboard-response","309","493717","0.0-3.0-6.0-1.0-2.57","5bed01c8306ec30001fb80e2","6662009ae78f21dd82fcd179","66620ab74a9e6c43497fb90a","null","","null","","","","","","","","./tasks/HMM-beads/Images/WhiteBeadChoiceCorrect.png","","","","","","","","","",""
"image-keyboard-response","310","493854","0.0-3.0-6.0-1.0-0.58","5bed01c8306ec30001fb80e2","6662009ae78f21dd82fcd179","66620ab74a9e6c43497fb90a","135","","j","","","","","","","","./tasks/HMM-beads/Images/NewTrialWC.png","lowH","1","58","1","1","1","1","true","",""
"image-keyboard-response","311","494167","0.0-3.0-6.0-1.0-1.58","5bed01c8306ec30001fb80e2","6662009ae78f21dd82fcd179","66620ab74a9e6c43497fb90a","null","","null","","","","","","","","./tasks/HMM-beads/Images/WhiteBeadChoice.png","","","","","","","","","",""
"image-keyboard-response","312","494668","0.0-3.0-6.0-1.0-2.58","5bed01c8306ec30001fb80e2","6662009ae78f21dd82fcd179","66620ab74a9e6c43497fb90a","null","","null","","","","","","","","./tasks/HMM-beads/Images/WhiteBeadChoiceCorrect.png","","","","","","","","","",""
"image-keyboard-response","313","494872","0.0-3.0-6.0-1.0-0.59","5bed01c8306ec30001fb80e2","6662009ae78f21dd82fcd179","66620ab74a9e6c43497fb90a","203","","j","","","","","","","","./tasks/HMM-beads/Images/NewTrialWC.png","lowH","1","59","1","0","1","1","false","",""
"image-keyboard-response","314","495183","0.0-3.0-6.0-1.0-1.59","5bed01c8306ec30001fb80e2","6662009ae78f21dd82fcd179","66620ab74a9e6c43497fb90a","null","","null","","","","","","","","./tasks/HMM-beads/Images/WhiteBeadChoice.png","","","","","","","","","",""
"image-keyboard-response","315","495685","0.0-3.0-6.0-1.0-2.59","5bed01c8306ec30001fb80e2","6662009ae78f21dd82fcd179","66620ab74a9e6c43497fb90a","null","","null","","","","","","","","./tasks/HMM-beads/Images/WhiteBeadChoiceWrong.png","","","","","","","","","",""
"image-keyboard-response","316","496256","0.0-3.0-6.0-1.0-0.60","5bed01c8306ec30001fb80e2","6662009ae78f21dd82fcd179","66620ab74a9e6c43497fb90a","570","","f","","","","","","","","./tasks/HMM-beads/Images/NewTrialBC.png","lowH","1","60","1","1","0","0","false","",""
"image-keyboard-response","317","496567","0.0-3.0-6.0-1.0-1.60","5bed01c8306ec30001fb80e2","6662009ae78f21dd82fcd179","66620ab74a9e6c43497fb90a","null","","null","","","","","","","","./tasks/HMM-beads/Images/BlackBeadChoice.png","","","","","","","","","",""
"image-keyboard-response","318","497084","0.0-3.0-6.0-1.0-2.60","5bed01c8306ec30001fb80e2","6662009ae78f21dd82fcd179","66620ab74a9e6c43497fb90a","null","","null","","","","","","","","./tasks/HMM-beads/Images/BlackBeadChoiceWrong.png","","","","","","","","","",""
"image-keyboard-response","319","497486","0.0-3.0-6.0-1.0-0.61","5bed01c8306ec30001fb80e2","6662009ae78f21dd82fcd179","66620ab74a9e6c43497fb90a","401","","f","","","","","","","","./tasks/HMM-beads/Images/NewTrialWC.png","lowH","1","61","1","1","1","0","false","",""
"image-keyboard-response","320","497801","0.0-3.0-6.0-1.0-1.61","5bed01c8306ec30001fb80e2","6662009ae78f21dd82fcd179","66620ab74a9e6c43497fb90a","null","","null","","","","","","","","./tasks/HMM-beads/Images/BlackBeadChoice.png","","","","","","","","","",""
"image-keyboard-response","321","498317","0.0-3.0-6.0-1.0-2.61","5bed01c8306ec30001fb80e2","6662009ae78f21dd82fcd179","66620ab74a9e6c43497fb90a","null","","null","","","","","","","","./tasks/HMM-beads/Images/BlackBeadChoiceWrong.png","","","","","","","","","",""
"image-keyboard-response","322","498623","0.0-3.0-6.0-1.0-0.62","5bed01c8306ec30001fb80e2","6662009ae78f21dd82fcd179","66620ab74a9e6c43497fb90a","306","","f","","","","","","","","./tasks/HMM-beads/Images/NewTrialWC.png","lowH","1","62","1","0","1","0","true","",""
"image-keyboard-response","323","498934","0.0-3.0-6.0-1.0-1.62","5bed01c8306ec30001fb80e2","6662009ae78f21dd82fcd179","66620ab74a9e6c43497fb90a","null","","null","","","","","","","","./tasks/HMM-beads/Images/BlackBeadChoice.png","","","","","","","","","",""
"image-keyboard-response","324","499435","0.0-3.0-6.0-1.0-2.62","5bed01c8306ec30001fb80e2","6662009ae78f21dd82fcd179","66620ab74a9e6c43497fb90a","null","","null","","","","","","","","./tasks/HMM-beads/Images/BlackBeadChoiceCorrect.png","","","","","","","","","",""
"image-keyboard-response","325","499903","0.0-3.0-6.0-1.0-0.63","5bed01c8306ec30001fb80e2","6662009ae78f21dd82fcd179","66620ab74a9e6c43497fb90a","468","","f","","","","","","","","./tasks/HMM-beads/Images/NewTrialBC.png","lowH","1","63","1","1","0","0","false","",""
"image-keyboard-response","326","500217","0.0-3.0-6.0-1.0-1.63","5bed01c8306ec30001fb80e2","6662009ae78f21dd82fcd179","66620ab74a9e6c43497fb90a","null","","null","","","","","","","","./tasks/HMM-beads/Images/BlackBeadChoice.png","","","","","","","","","",""
"image-keyboard-response","327","500719","0.0-3.0-6.0-1.0-2.63","5bed01c8306ec30001fb80e2","6662009ae78f21dd82fcd179","66620ab74a9e6c43497fb90a","null","","null","","","","","","","","./tasks/HMM-beads/Images/BlackBeadChoiceWrong.png","","","","","","","","","",""
"image-keyboard-response","328","501031","0.0-3.0-6.0-1.0-0.64","5bed01c8306ec30001fb80e2","6662009ae78f21dd82fcd179","66620ab74a9e6c43497fb90a","312","","f","","","","","","","","./tasks/HMM-beads/Images/NewTrialWC.png","lowH","1","64","1","1","1","0","false","",""
"image-keyboard-response","329","501334","0.0-3.0-6.0-1.0-1.64","5bed01c8306ec30001fb80e2","6662009ae78f21dd82fcd179","66620ab74a9e6c43497fb90a","null","","null","","","","","","","","./tasks/HMM-beads/Images/BlackBeadChoice.png","","","","","","","","","",""
"image-keyboard-response","330","501850","0.0-3.0-6.0-1.0-2.64","5bed01c8306ec30001fb80e2","6662009ae78f21dd82fcd179","66620ab74a9e6c43497fb90a","null","","null","","","","","","","","./tasks/HMM-beads/Images/BlackBeadChoiceWrong.png","","","","","","","","","",""
"image-keyboard-response","331","502245","0.0-3.0-6.0-1.0-0.65","5bed01c8306ec30001fb80e2","6662009ae78f21dd82fcd179","66620ab74a9e6c43497fb90a","395","","f","","","","","","","","./tasks/HMM-beads/Images/NewTrialWC.png","lowH","1","65","1","1","1","0","false","",""
"image-keyboard-response","332","502551","0.0-3.0-6.0-1.0-1.65","5bed01c8306ec30001fb80e2","6662009ae78f21dd82fcd179","66620ab74a9e6c43497fb90a","null","","null","","","","","","","","./tasks/HMM-beads/Images/BlackBeadChoice.png","","","","","","","","","",""
"image-keyboard-response","333","503067","0.0-3.0-6.0-1.0-2.65","5bed01c8306ec30001fb80e2","6662009ae78f21dd82fcd179","66620ab74a9e6c43497fb90a","null","","null","","","","","","","","./tasks/HMM-beads/Images/BlackBeadChoiceWrong.png","","","","","","","","","",""
"image-keyboard-response","334","503224","0.0-3.0-6.0-1.0-0.66","5bed01c8306ec30001fb80e2","6662009ae78f21dd82fcd179","66620ab74a9e6c43497fb90a","155","","j","","","","","","","","./tasks/HMM-beads/Images/NewTrialWC.png","lowH","1","66","1","1","1","1","true","",""
"image-keyboard-response","335","503533","0.0-3.0-6.0-1.0-1.66","5bed01c8306ec30001fb80e2","6662009ae78f21dd82fcd179","66620ab74a9e6c43497fb90a","null","","null","","","","","","","","./tasks/HMM-beads/Images/WhiteBeadChoice.png","","","","","","","","","",""
"image-keyboard-response","336","504035","0.0-3.0-6.0-1.0-2.66","5bed01c8306ec30001fb80e2","6662009ae78f21dd82fcd179","66620ab74a9e6c43497fb90a","null","","null","","","","","","","","./tasks/HMM-beads/Images/WhiteBeadChoiceCorrect.png","","","","","","","","","",""
"image-keyboard-response","337","504382","0.0-3.0-6.0-1.0-0.67","5bed01c8306ec30001fb80e2","6662009ae78f21dd82fcd179","66620ab74a9e6c43497fb90a","345","","j","","","","","","","","./tasks/HMM-beads/Images/NewTrialWC.png","lowH","1","67","1","0","1","1","false","",""
"image-keyboard-response","338","504685","0.0-3.0-6.0-1.0-1.67","5bed01c8306ec30001fb80e2","6662009ae78f21dd82fcd179","66620ab74a9e6c43497fb90a","null","","null","","","","","","","","./tasks/HMM-beads/Images/WhiteBeadChoice.png","","","","","","","","","",""
"image-keyboard-response","339","505200","0.0-3.0-6.0-1.0-2.67","5bed01c8306ec30001fb80e2","6662009ae78f21dd82fcd179","66620ab74a9e6c43497fb90a","null","","null","","","","","","","","./tasks/HMM-beads/Images/WhiteBeadChoiceWrong.png","","","","","","","","","",""
"image-keyboard-response","340","505818","0.0-3.0-6.0-1.0-0.68","5bed01c8306ec30001fb80e2","6662009ae78f21dd82fcd179","66620ab74a9e6c43497fb90a","618","","f","","","","","","","","./tasks/HMM-beads/Images/NewTrialBC.png","lowH","1","68","1","1","0","0","false","",""
"image-keyboard-response","341","506133","0.0-3.0-6.0-1.0-1.68","5bed01c8306ec30001fb80e2","6662009ae78f21dd82fcd179","66620ab74a9e6c43497fb90a","null","","null","","","","","","","","./tasks/HMM-beads/Images/BlackBeadChoice.png","","","","","","","","","",""
"image-keyboard-response","342","506635","0.0-3.0-6.0-1.0-2.68","5bed01c8306ec30001fb80e2","6662009ae78f21dd82fcd179","66620ab74a9e6c43497fb90a","null","","null","","","","","","","","./tasks/HMM-beads/Images/BlackBeadChoiceWrong.png","","","","","","","","","",""
"image-keyboard-response","343","507252","0.0-3.0-6.0-1.0-0.69","5bed01c8306ec30001fb80e2","6662009ae78f21dd82fcd179","66620ab74a9e6c43497fb90a","616","","f","","","","","","","","./tasks/HMM-beads/Images/NewTrialWC.png","lowH","1","69","0","1","1","0","false","",""
"image-keyboard-response","344","507567","0.0-3.0-6.0-1.0-1.69","5bed01c8306ec30001fb80e2","6662009ae78f21dd82fcd179","66620ab74a9e6c43497fb90a","null","","null","","","","","","","","./tasks/HMM-beads/Images/BlackBeadChoice.png","","","","","","","","","",""
"image-keyboard-response","345","508083","0.0-3.0-6.0-1.0-2.69","5bed01c8306ec30001fb80e2","6662009ae78f21dd82fcd179","66620ab74a9e6c43497fb90a","null","","null","","","","","","","","./tasks/HMM-beads/Images/BlackBeadChoiceWrong.png","","","","","","","","","",""
"image-keyboard-response","346","508106","0.0-3.0-6.0-1.0-0.70","5bed01c8306ec30001fb80e2","6662009ae78f21dd82fcd179","66620ab74a9e6c43497fb90a","22","","j","","","","","","","","./tasks/HMM-beads/Images/NewTrialWC.png","lowH","1","70","0","1","1","1","true","",""
"image-keyboard-response","347","508417","0.0-3.0-6.0-1.0-1.70","5bed01c8306ec30001fb80e2","6662009ae78f21dd82fcd179","66620ab74a9e6c43497fb90a","null","","null","","","","","","","","./tasks/HMM-beads/Images/WhiteBeadChoice.png","","","","","","","","","",""
"image-keyboard-response","348","508918","0.0-3.0-6.0-1.0-2.70","5bed01c8306ec30001fb80e2","6662009ae78f21dd82fcd179","66620ab74a9e6c43497fb90a","null","","null","","","","","","","","./tasks/HMM-beads/Images/WhiteBeadChoiceCorrect.png","","","","","","","","","",""
"image-keyboard-response","349","509033","0.0-3.0-6.0-1.0-0.71","5bed01c8306ec30001fb80e2","6662009ae78f21dd82fcd179","66620ab74a9e6c43497fb90a","114","","j","","","","","","","","./tasks/HMM-beads/Images/NewTrialWC.png","lowH","1","71","0","0","1","1","false","",""
"image-keyboard-response","350","509335","0.0-3.0-6.0-1.0-1.71","5bed01c8306ec30001fb80e2","6662009ae78f21dd82fcd179","66620ab74a9e6c43497fb90a","null","","null","","","","","","","","./tasks/HMM-beads/Images/WhiteBeadChoice.png","","","","","","","","","",""
"image-keyboard-response","351","509851","0.0-3.0-6.0-1.0-2.71","5bed01c8306ec30001fb80e2","6662009ae78f21dd82fcd179","66620ab74a9e6c43497fb90a","null","","null","","","","","","","","./tasks/HMM-beads/Images/WhiteBeadChoiceWrong.png","","","","","","","","","",""
"image-keyboard-response","352","511082","0.0-3.0-6.0-1.0-0.72","5bed01c8306ec30001fb80e2","6662009ae78f21dd82fcd179","66620ab74a9e6c43497fb90a","1231","","f","","","","","","","","./tasks/HMM-beads/Images/NewTrialBC.png","lowH","1","72","0","0","0","0","true","",""
"image-keyboard-response","353","511385","0.0-3.0-6.0-1.0-1.72","5bed01c8306ec30001fb80e2","6662009ae78f21dd82fcd179","66620ab74a9e6c43497fb90a","null","","null","","","","","","","","./tasks/HMM-beads/Images/BlackBeadChoice.png","","","","","","","","","",""
"image-keyboard-response","354","511900","0.0-3.0-6.0-1.0-2.72","5bed01c8306ec30001fb80e2","6662009ae78f21dd82fcd179","66620ab74a9e6c43497fb90a","null","","null","","","","","","","","./tasks/HMM-beads/Images/BlackBeadChoiceCorrect.png","","","","","","","","","",""
"image-keyboard-response","355","512397","0.0-3.0-6.0-1.0-0.73","5bed01c8306ec30001fb80e2","6662009ae78f21dd82fcd179","66620ab74a9e6c43497fb90a","496","","f","","","","","","","","./tasks/HMM-beads/Images/NewTrialBC.png","lowH","1","73","0","1","0","0","false","",""
"image-keyboard-response","356","512718","0.0-3.0-6.0-1.0-1.73","5bed01c8306ec30001fb80e2","6662009ae78f21dd82fcd179","66620ab74a9e6c43497fb90a","null","","null","","","","","","","","./tasks/HMM-beads/Images/BlackBeadChoice.png","","","","","","","","","",""
"image-keyboard-response","357","513233","0.0-3.0-6.0-1.0-2.73","5bed01c8306ec30001fb80e2","6662009ae78f21dd82fcd179","66620ab74a9e6c43497fb90a","null","","null","","","","","","","","./tasks/HMM-beads/Images/BlackBeadChoiceWrong.png","","","","","","","","","",""
"image-keyboard-response","358","513625","0.0-3.0-6.0-1.0-0.74","5bed01c8306ec30001fb80e2","6662009ae78f21dd82fcd179","66620ab74a9e6c43497fb90a","391","","f","","","","","","","","./tasks/HMM-beads/Images/NewTrialWC.png","lowH","1","74","0","0","1","0","true","",""
"image-keyboard-response","359","513933","0.0-3.0-6.0-1.0-1.74","5bed01c8306ec30001fb80e2","6662009ae78f21dd82fcd179","66620ab74a9e6c43497fb90a","null","","null","","","","","","","","./tasks/HMM-beads/Images/BlackBeadChoice.png","","","","","","","","","",""
"image-keyboard-response","360","514434","0.0-3.0-6.0-1.0-2.74","5bed01c8306ec30001fb80e2","6662009ae78f21dd82fcd179","66620ab74a9e6c43497fb90a","null","","null","","","","","","","","./tasks/HMM-beads/Images/BlackBeadChoiceCorrect.png","","","","","","","","","",""
"image-keyboard-response","361","514837","0.0-3.0-6.0-1.0-0.75","5bed01c8306ec30001fb80e2","6662009ae78f21dd82fcd179","66620ab74a9e6c43497fb90a","402","","f","","","","","","","","./tasks/HMM-beads/Images/NewTrialBC.png","lowH","1","75","0","1","0","0","false","",""
"image-keyboard-response","362","515150","0.0-3.0-6.0-1.0-1.75","5bed01c8306ec30001fb80e2","6662009ae78f21dd82fcd179","66620ab74a9e6c43497fb90a","null","","null","","","","","","","","./tasks/HMM-beads/Images/BlackBeadChoice.png","","","","","","","","","",""
"image-keyboard-response","363","515652","0.0-3.0-6.0-1.0-2.75","5bed01c8306ec30001fb80e2","6662009ae78f21dd82fcd179","66620ab74a9e6c43497fb90a","null","","null","","","","","","","","./tasks/HMM-beads/Images/BlackBeadChoiceWrong.png","","","","","","","","","",""
"image-keyboard-response","364","515764","0.0-3.0-6.0-1.0-0.76","5bed01c8306ec30001fb80e2","6662009ae78f21dd82fcd179","66620ab74a9e6c43497fb90a","112","","f","","","","","","","","./tasks/HMM-beads/Images/NewTrialWC.png","lowH","1","76","0","1","1","0","false","",""
"image-keyboard-response","365","516067","0.0-3.0-6.0-1.0-1.76","5bed01c8306ec30001fb80e2","6662009ae78f21dd82fcd179","66620ab74a9e6c43497fb90a","null","","null","","","","","","","","./tasks/HMM-beads/Images/BlackBeadChoice.png","","","","","","","","","",""
"image-keyboard-response","366","516584","0.0-3.0-6.0-1.0-2.76","5bed01c8306ec30001fb80e2","6662009ae78f21dd82fcd179","66620ab74a9e6c43497fb90a","null","","null","","","","","","","","./tasks/HMM-beads/Images/BlackBeadChoiceWrong.png","","","","","","","","","",""
"image-keyboard-response","367","516682","0.0-3.0-6.0-1.0-0.77","5bed01c8306ec30001fb80e2","6662009ae78f21dd82fcd179","66620ab74a9e6c43497fb90a","97","","f","","","","","","","","./tasks/HMM-beads/Images/NewTrialWC.png","lowH","1","77","0","0","1","0","true","",""
"image-keyboard-response","368","516984","0.0-3.0-6.0-1.0-1.77","5bed01c8306ec30001fb80e2","6662009ae78f21dd82fcd179","66620ab74a9e6c43497fb90a","null","","null","","","","","","","","./tasks/HMM-beads/Images/BlackBeadChoice.png","","","","","","","","","",""
"image-keyboard-response","369","517500","0.0-3.0-6.0-1.0-2.77","5bed01c8306ec30001fb80e2","6662009ae78f21dd82fcd179","66620ab74a9e6c43497fb90a","null","","null","","","","","","","","./tasks/HMM-beads/Images/BlackBeadChoiceCorrect.png","","","","","","","","","",""
"image-keyboard-response","370","517746","0.0-3.0-6.0-1.0-0.78","5bed01c8306ec30001fb80e2","6662009ae78f21dd82fcd179","66620ab74a9e6c43497fb90a","245","","f","","","","","","","","./tasks/HMM-beads/Images/NewTrialBC.png","lowH","1","78","0","0","0","0","true","",""
"image-keyboard-response","371","518051","0.0-3.0-6.0-1.0-1.78","5bed01c8306ec30001fb80e2","6662009ae78f21dd82fcd179","66620ab74a9e6c43497fb90a","null","","null","","","","","","","","./tasks/HMM-beads/Images/BlackBeadChoice.png","","","","","","","","","",""
"image-keyboard-response","372","518567","0.0-3.0-6.0-1.0-2.78","5bed01c8306ec30001fb80e2","6662009ae78f21dd82fcd179","66620ab74a9e6c43497fb90a","null","","null","","","","","","","","./tasks/HMM-beads/Images/BlackBeadChoiceCorrect.png","","","","","","","","","",""
"image-keyboard-response","373","518702","0.0-3.0-6.0-1.0-0.79","5bed01c8306ec30001fb80e2","6662009ae78f21dd82fcd179","66620ab74a9e6c43497fb90a","134","","f","","","","","","","","./tasks/HMM-beads/Images/NewTrialBC.png","lowH","1","79","0","0","0","0","true","",""
"image-keyboard-response","374","519018","0.0-3.0-6.0-1.0-1.79","5bed01c8306ec30001fb80e2","6662009ae78f21dd82fcd179","66620ab74a9e6c43497fb90a","null","","null","","","","","","","","./tasks/HMM-beads/Images/BlackBeadChoice.png","","","","","","","","","",""
