"trial_type","trial_index","time_elapsed","internal_node_id","subject_id","study_id","session_id","rt","url","response","question_order","view_history","success","timeout","failed_images","failed_audio","failed_video","stimulus","block","block_rep","trial_number","jar","bead","previous_bead","choice","correct","lowH_score","total_bonus"
"pavlovia","0","1490","0.0-0.0","5c55b95b91c0ad0001cf86ab","6662009ae78f21dd82fcd179","66620b3f935a58aa3430c5dd","","","","","","","","","","","","","","","","","","","","",""
"external-html","1","71388","0.0-1.0-0.0","5c55b95b91c0ad0001cf86ab","6662009ae78f21dd82fcd179","66620b3f935a58aa3430c5dd","69696","new_consent.html","","","","","","","","","","","","","","","","","","",""
"survey-multi-choice","2","79149","0.0-1.0-1.0","5c55b95b91c0ad0001cf86ab","6662009ae78f21dd82fcd179","66620b3f935a58aa3430c5dd","7759","","{""Q0"":""Male"",""Q1"":""White""}","[0,1]","","","","","","","","","","","","","","","","",""
"survey-text","3","82549","0.0-1.0-2.0","5c55b95b91c0ad0001cf86ab","6662009ae78f21dd82fcd179","66620b3f935a58aa3430c5dd","3397","","{""Q0"":""48""}","","","","","","","","","","","","","","","","","",""
"instructions","4","84900","0.0-2.0","5c55b95b91c0ad0001cf86ab","6662009ae78f21dd82fcd179","66620b3f935a58aa3430c5dd","2246","","","","[{""page_index"":0,""viewing_time"":2246}]","","","","","","","","","","","","","","","",""
"preload","5","86815","0.0-3.0-0.0","5c55b95b91c0ad0001cf86ab","6662009ae78f21dd82fcd179","66620b3f935a58aa3430c5dd","","","","","","true","false","[]","[]","[]","","","","","","","","","","",""
"instructions","6","192135","0.0-3.0-1.0","5c55b95b91c0ad0001cf86ab","6662009ae78f21dd82fcd179","66620b3f935a58aa3430c5dd","105373","","","","[{""page_index"":0,""viewing_time"":17781},{""page_index"":1,""viewing_time"":11112},{""page_index"":2,""viewing_time"":5288},{""page_index"":3,""viewing_time"":2272},{""page_index"":4,""viewing_time"":8336},{""page_index"":5,""viewing_time"":25024},{""page_index"":6,""viewing_time"":5968},{""page_index"":7,""viewing_time"":6504},{""page_index"":8,""viewing_time"":6032},{""page_index"":9,""viewing_time"":3552},{""page_index"":10,""viewing_time"":11208},{""page_index"":11,""viewing_time"":2296}]","","","","","","","","","","","","","","","",""
"html-button-response","7","196759","0.0-3.0-2.0-0.0-0.0","5c55b95b91c0ad0001cf86ab","6662009ae78f21dd82fcd179","66620b3f935a58aa3430c5dd","4623","","1","","","","","","","","<div align=center>Your goal is to predict…?<br><br></div>","","","","","","","","","",""
"html-button-response","8","203951","0.0-3.0-2.0-1.0-0.0","5c55b95b91c0ad0001cf86ab","6662009ae78f21dd82fcd179","66620b3f935a58aa3430c5dd","4949","","2","","","","","","","","<div align=center>In the jar with mostly white beads, there are ___% white beads and ___% black beads?<br><br></div>","","","","","","","","","",""
"html-button-response","9","211302","0.0-3.0-2.0-2.0-0.0","5c55b95b91c0ad0001cf86ab","6662009ae78f21dd82fcd179","66620b3f935a58aa3430c5dd","5688","","0","","","","","","","","<div align=center>When there is a 1% probability that the jars will switch, the next bead will most likely be drawn from the…<br><br></div>","","","","","","","","","",""
"html-button-response","10","217286","0.0-3.0-2.0-3.0-0.0","5c55b95b91c0ad0001cf86ab","6662009ae78f21dd82fcd179","66620b3f935a58aa3430c5dd","4431","","1","","","","","","","","<div align=center>When there is a 99% probability that the jars will switch, the next bead will most likely be drawn from the…<br><br></div>","","","","","","","","","",""
"instructions","11","230966","0.0-3.0-3.0","5c55b95b91c0ad0001cf86ab","6662009ae78f21dd82fcd179","66620b3f935a58aa3430c5dd","12008","","","","[{""page_index"":0,""viewing_time"":12008}]","","","","","","","","","","","","","","","",""
"html-keyboard-response","12","243407","0.0-3.0-4.0-0.0","5c55b95b91c0ad0001cf86ab","6662009ae78f21dd82fcd179","66620b3f935a58aa3430c5dd","12441",""," ","","","","","","","","<div align=center>In this practice block, there will be a <b>1% chance</b> that the jar on the next trial will be different from the jar on the current trial.<br><br></div>","","","","","","","","","",""
"image-keyboard-response","13","247710","0.0-3.0-4.0-1.0-0.0","5c55b95b91c0ad0001cf86ab","6662009ae78f21dd82fcd179","66620b3f935a58aa3430c5dd","4296","","f","","","","","","","","./tasks/HMM-beads/Images/NoChoice.png","practice","0","0","0","0","9","0","true","",""
"image-keyboard-response","14","248017","0.0-3.0-4.0-1.0-1.0","5c55b95b91c0ad0001cf86ab","6662009ae78f21dd82fcd179","66620b3f935a58aa3430c5dd","null","","null","","","","","","","","./tasks/HMM-beads/Images/BlackBeadChoice.png","","","","","","","","","",""
"image-keyboard-response","15","248520","0.0-3.0-4.0-1.0-2.0","5c55b95b91c0ad0001cf86ab","6662009ae78f21dd82fcd179","66620b3f935a58aa3430c5dd","null","","null","","","","","","","","./tasks/HMM-beads/Images/BlackBeadChoiceCorrect.png","","","","","","","","","",""
"image-keyboard-response","16","250590","0.0-3.0-4.0-1.0-0.1","5c55b95b91c0ad0001cf86ab","6662009ae78f21dd82fcd179","66620b3f935a58aa3430c5dd","2070","","f","","","","","","","","./tasks/HMM-beads/Images/NewTrialBC.png","practice","0","1","0","0","0","0","true","",""
"image-keyboard-response","17","250894","0.0-3.0-4.0-1.0-1.1","5c55b95b91c0ad0001cf86ab","6662009ae78f21dd82fcd179","66620b3f935a58aa3430c5dd","null","","null","","","","","","","","./tasks/HMM-beads/Images/BlackBeadChoice.png","","","","","","","","","",""
"image-keyboard-response","18","251400","0.0-3.0-4.0-1.0-2.1","5c55b95b91c0ad0001cf86ab","6662009ae78f21dd82fcd179","66620b3f935a58aa3430c5dd","null","","null","","","","","","","","./tasks/HMM-beads/Images/BlackBeadChoiceCorrect.png","","","","","","","","","",""
"image-keyboard-response","19","252334","0.0-3.0-4.0-1.0-0.2","5c55b95b91c0ad0001cf86ab","6662009ae78f21dd82fcd179","66620b3f935a58aa3430c5dd","933","","f","","","","","","","","./tasks/HMM-beads/Images/NewTrialBC.png","practice","0","2","0","1","0","0","false","",""
"image-keyboard-response","20","252636","0.0-3.0-4.0-1.0-1.2","5c55b95b91c0ad0001cf86ab","6662009ae78f21dd82fcd179","66620b3f935a58aa3430c5dd","null","","null","","","","","","","","./tasks/HMM-beads/Images/BlackBeadChoice.png","","","","","","","","","",""
"image-keyboard-response","21","253140","0.0-3.0-4.0-1.0-2.2","5c55b95b91c0ad0001cf86ab","6662009ae78f21dd82fcd179","66620b3f935a58aa3430c5dd","null","","null","","","","","","","","./tasks/HMM-beads/Images/BlackBeadChoiceWrong.png","","","","","","","","","",""
"image-keyboard-response","22","253806","0.0-3.0-4.0-1.0-0.3","5c55b95b91c0ad0001cf86ab","6662009ae78f21dd82fcd179","66620b3f935a58aa3430c5dd","665","","f","","","","","","","","./tasks/HMM-beads/Images/NewTrialWC.png","practice","0","3","0","0","1","0","true","",""
"image-keyboard-response","23","254108","0.0-3.0-4.0-1.0-1.3","5c55b95b91c0ad0001cf86ab","6662009ae78f21dd82fcd179","66620b3f935a58aa3430c5dd","null","","null","","","","","","","","./tasks/HMM-beads/Images/BlackBeadChoice.png","","","","","","","","","",""
"image-keyboard-response","24","254609","0.0-3.0-4.0-1.0-2.3","5c55b95b91c0ad0001cf86ab","6662009ae78f21dd82fcd179","66620b3f935a58aa3430c5dd","null","","null","","","","","","","","./tasks/HMM-beads/Images/BlackBeadChoiceCorrect.png","","","","","","","","","",""
"image-keyboard-response","25","255406","0.0-3.0-4.0-1.0-0.4","5c55b95b91c0ad0001cf86ab","6662009ae78f21dd82fcd179","66620b3f935a58aa3430c5dd","796","","f","","","","","","","","./tasks/HMM-beads/Images/NewTrialBC.png","practice","0","4","0","0","0","0","true","",""
"image-keyboard-response","26","255708","0.0-3.0-4.0-1.0-1.4","5c55b95b91c0ad0001cf86ab","6662009ae78f21dd82fcd179","66620b3f935a58aa3430c5dd","null","","null","","","","","","","","./tasks/HMM-beads/Images/BlackBeadChoice.png","","","","","","","","","",""
"image-keyboard-response","27","256209","0.0-3.0-4.0-1.0-2.4","5c55b95b91c0ad0001cf86ab","6662009ae78f21dd82fcd179","66620b3f935a58aa3430c5dd","null","","null","","","","","","","","./tasks/HMM-beads/Images/BlackBeadChoiceCorrect.png","","","","","","","","","",""
"image-keyboard-response","28","257102","0.0-3.0-4.0-1.0-0.5","5c55b95b91c0ad0001cf86ab","6662009ae78f21dd82fcd179","66620b3f935a58aa3430c5dd","892","","f","","","","","","","","./tasks/HMM-beads/Images/NewTrialBC.png","practice","0","5","0","1","0","0","false","",""
"image-keyboard-response","29","257404","0.0-3.0-4.0-1.0-1.5","5c55b95b91c0ad0001cf86ab","6662009ae78f21dd82fcd179","66620b3f935a58aa3430c5dd","null","","null","","","","","","","","./tasks/HMM-beads/Images/BlackBeadChoice.png","","","","","","","","","",""
"image-keyboard-response","30","257910","0.0-3.0-4.0-1.0-2.5","5c55b95b91c0ad0001cf86ab","6662009ae78f21dd82fcd179","66620b3f935a58aa3430c5dd","null","","null","","","","","","","","./tasks/HMM-beads/Images/BlackBeadChoiceWrong.png","","","","","","","","","",""
"image-keyboard-response","31","258766","0.0-3.0-4.0-1.0-0.6","5c55b95b91c0ad0001cf86ab","6662009ae78f21dd82fcd179","66620b3f935a58aa3430c5dd","856","","f","","","","","","","","./tasks/HMM-beads/Images/NewTrialWC.png","practice","0","6","0","0","1","0","true","",""
"image-keyboard-response","32","259071","0.0-3.0-4.0-1.0-1.6","5c55b95b91c0ad0001cf86ab","6662009ae78f21dd82fcd179","66620b3f935a58aa3430c5dd","null","","null","","","","","","","","./tasks/HMM-beads/Images/BlackBeadChoice.png","","","","","","","","","",""
"image-keyboard-response","33","259573","0.0-3.0-4.0-1.0-2.6","5c55b95b91c0ad0001cf86ab","6662009ae78f21dd82fcd179","66620b3f935a58aa3430c5dd","null","","null","","","","","","","","./tasks/HMM-beads/Images/BlackBeadChoiceCorrect.png","","","","","","","","","",""
"image-keyboard-response","34","260190","0.0-3.0-4.0-1.0-0.7","5c55b95b91c0ad0001cf86ab","6662009ae78f21dd82fcd179","66620b3f935a58aa3430c5dd","616","","f","","","","","","","","./tasks/HMM-beads/Images/NewTrialBC.png","practice","0","7","0","0","0","0","true","",""
"image-keyboard-response","35","260492","0.0-3.0-4.0-1.0-1.7","5c55b95b91c0ad0001cf86ab","6662009ae78f21dd82fcd179","66620b3f935a58aa3430c5dd","null","","null","","","","","","","","./tasks/HMM-beads/Images/BlackBeadChoice.png","","","","","","","","","",""
"image-keyboard-response","36","260994","0.0-3.0-4.0-1.0-2.7","5c55b95b91c0ad0001cf86ab","6662009ae78f21dd82fcd179","66620b3f935a58aa3430c5dd","null","","null","","","","","","","","./tasks/HMM-beads/Images/BlackBeadChoiceCorrect.png","","","","","","","","","",""
"image-keyboard-response","37","261950","0.0-3.0-4.0-1.0-0.8","5c55b95b91c0ad0001cf86ab","6662009ae78f21dd82fcd179","66620b3f935a58aa3430c5dd","956","","f","","","","","","","","./tasks/HMM-beads/Images/NewTrialBC.png","practice","0","8","0","0","0","0","true","",""
"image-keyboard-response","38","262260","0.0-3.0-4.0-1.0-1.8","5c55b95b91c0ad0001cf86ab","6662009ae78f21dd82fcd179","66620b3f935a58aa3430c5dd","null","","null","","","","","","","","./tasks/HMM-beads/Images/BlackBeadChoice.png","","","","","","","","","",""
"image-keyboard-response","39","262765","0.0-3.0-4.0-1.0-2.8","5c55b95b91c0ad0001cf86ab","6662009ae78f21dd82fcd179","66620b3f935a58aa3430c5dd","null","","null","","","","","","","","./tasks/HMM-beads/Images/BlackBeadChoiceCorrect.png","","","","","","","","","",""
"image-keyboard-response","40","263838","0.0-3.0-4.0-1.0-0.9","5c55b95b91c0ad0001cf86ab","6662009ae78f21dd82fcd179","66620b3f935a58aa3430c5dd","1072","","f","","","","","","","","./tasks/HMM-beads/Images/NewTrialBC.png","practice","0","9","0","1","0","0","false","",""
"image-keyboard-response","41","264141","0.0-3.0-4.0-1.0-1.9","5c55b95b91c0ad0001cf86ab","6662009ae78f21dd82fcd179","66620b3f935a58aa3430c5dd","null","","null","","","","","","","","./tasks/HMM-beads/Images/BlackBeadChoice.png","","","","","","","","","",""
"image-keyboard-response","42","264645","0.0-3.0-4.0-1.0-2.9","5c55b95b91c0ad0001cf86ab","6662009ae78f21dd82fcd179","66620b3f935a58aa3430c5dd","null","","null","","","","","","","","./tasks/HMM-beads/Images/BlackBeadChoiceWrong.png","","","","","","","","","",""
"image-keyboard-response","43","265982","0.0-3.0-4.0-1.0-0.10","5c55b95b91c0ad0001cf86ab","6662009ae78f21dd82fcd179","66620b3f935a58aa3430c5dd","1336","","f","","","","","","","","./tasks/HMM-beads/Images/NewTrialWC.png","practice","0","10","0","0","1","0","true","",""
"image-keyboard-response","44","266285","0.0-3.0-4.0-1.0-1.10","5c55b95b91c0ad0001cf86ab","6662009ae78f21dd82fcd179","66620b3f935a58aa3430c5dd","null","","null","","","","","","","","./tasks/HMM-beads/Images/BlackBeadChoice.png","","","","","","","","","",""
"image-keyboard-response","45","266788","0.0-3.0-4.0-1.0-2.10","5c55b95b91c0ad0001cf86ab","6662009ae78f21dd82fcd179","66620b3f935a58aa3430c5dd","null","","null","","","","","","","","./tasks/HMM-beads/Images/BlackBeadChoiceCorrect.png","","","","","","","","","",""
"image-keyboard-response","46","267582","0.0-3.0-4.0-1.0-0.11","5c55b95b91c0ad0001cf86ab","6662009ae78f21dd82fcd179","66620b3f935a58aa3430c5dd","793","","f","","","","","","","","./tasks/HMM-beads/Images/NewTrialBC.png","practice","0","11","0","1","0","0","false","",""
"image-keyboard-response","47","267885","0.0-3.0-4.0-1.0-1.11","5c55b95b91c0ad0001cf86ab","6662009ae78f21dd82fcd179","66620b3f935a58aa3430c5dd","null","","null","","","","","","","","./tasks/HMM-beads/Images/BlackBeadChoice.png","","","","","","","","","",""
"image-keyboard-response","48","268392","0.0-3.0-4.0-1.0-2.11","5c55b95b91c0ad0001cf86ab","6662009ae78f21dd82fcd179","66620b3f935a58aa3430c5dd","null","","null","","","","","","","","./tasks/HMM-beads/Images/BlackBeadChoiceWrong.png","","","","","","","","","",""
"image-keyboard-response","49","269198","0.0-3.0-4.0-1.0-0.12","5c55b95b91c0ad0001cf86ab","6662009ae78f21dd82fcd179","66620b3f935a58aa3430c5dd","805","","f","","","","","","","","./tasks/HMM-beads/Images/NewTrialWC.png","practice","0","12","0","0","1","0","true","",""
"image-keyboard-response","50","269499","0.0-3.0-4.0-1.0-1.12","5c55b95b91c0ad0001cf86ab","6662009ae78f21dd82fcd179","66620b3f935a58aa3430c5dd","null","","null","","","","","","","","./tasks/HMM-beads/Images/BlackBeadChoice.png","","","","","","","","","",""
"image-keyboard-response","51","270005","0.0-3.0-4.0-1.0-2.12","5c55b95b91c0ad0001cf86ab","6662009ae78f21dd82fcd179","66620b3f935a58aa3430c5dd","null","","null","","","","","","","","./tasks/HMM-beads/Images/BlackBeadChoiceCorrect.png","","","","","","","","","",""
"image-keyboard-response","52","270910","0.0-3.0-4.0-1.0-0.13","5c55b95b91c0ad0001cf86ab","6662009ae78f21dd82fcd179","66620b3f935a58aa3430c5dd","904","","f","","","","","","","","./tasks/HMM-beads/Images/NewTrialBC.png","practice","0","13","0","0","0","0","true","",""
"image-keyboard-response","53","271215","0.0-3.0-4.0-1.0-1.13","5c55b95b91c0ad0001cf86ab","6662009ae78f21dd82fcd179","66620b3f935a58aa3430c5dd","null","","null","","","","","","","","./tasks/HMM-beads/Images/BlackBeadChoice.png","","","","","","","","","",""
"image-keyboard-response","54","271722","0.0-3.0-4.0-1.0-2.13","5c55b95b91c0ad0001cf86ab","6662009ae78f21dd82fcd179","66620b3f935a58aa3430c5dd","null","","null","","","","","","","","./tasks/HMM-beads/Images/BlackBeadChoiceCorrect.png","","","","","","","","","",""
"image-keyboard-response","55","272558","0.0-3.0-4.0-1.0-0.14","5c55b95b91c0ad0001cf86ab","6662009ae78f21dd82fcd179","66620b3f935a58aa3430c5dd","835","","f","","","","","","","","./tasks/HMM-beads/Images/NewTrialBC.png","practice","0","14","0","0","0","0","true","",""
"image-keyboard-response","56","272864","0.0-3.0-4.0-1.0-1.14","5c55b95b91c0ad0001cf86ab","6662009ae78f21dd82fcd179","66620b3f935a58aa3430c5dd","null","","null","","","","","","","","./tasks/HMM-beads/Images/BlackBeadChoice.png","","","","","","","","","",""
"image-keyboard-response","57","273371","0.0-3.0-4.0-1.0-2.14","5c55b95b91c0ad0001cf86ab","6662009ae78f21dd82fcd179","66620b3f935a58aa3430c5dd","null","","null","","","","","","","","./tasks/HMM-beads/Images/BlackBeadChoiceCorrect.png","","","","","","","","","",""
"image-keyboard-response","58","274174","0.0-3.0-4.0-1.0-0.15","5c55b95b91c0ad0001cf86ab","6662009ae78f21dd82fcd179","66620b3f935a58aa3430c5dd","802","","f","","","","","","","","./tasks/HMM-beads/Images/NewTrialBC.png","practice","0","15","0","0","0","0","true","",""
"image-keyboard-response","59","274480","0.0-3.0-4.0-1.0-1.15","5c55b95b91c0ad0001cf86ab","6662009ae78f21dd82fcd179","66620b3f935a58aa3430c5dd","null","","null","","","","","","","","./tasks/HMM-beads/Images/BlackBeadChoice.png","","","","","","","","","",""
"image-keyboard-response","60","274986","0.0-3.0-4.0-1.0-2.15","5c55b95b91c0ad0001cf86ab","6662009ae78f21dd82fcd179","66620b3f935a58aa3430c5dd","null","","null","","","","","","","","./tasks/HMM-beads/Images/BlackBeadChoiceCorrect.png","","","","","","","","","",""
"image-keyboard-response","61","275806","0.0-3.0-4.0-1.0-0.16","5c55b95b91c0ad0001cf86ab","6662009ae78f21dd82fcd179","66620b3f935a58aa3430c5dd","819","","f","","","","","","","","./tasks/HMM-beads/Images/NewTrialBC.png","practice","0","16","0","0","0","0","true","",""
"image-keyboard-response","62","276108","0.0-3.0-4.0-1.0-1.16","5c55b95b91c0ad0001cf86ab","6662009ae78f21dd82fcd179","66620b3f935a58aa3430c5dd","null","","null","","","","","","","","./tasks/HMM-beads/Images/BlackBeadChoice.png","","","","","","","","","",""
"image-keyboard-response","63","276609","0.0-3.0-4.0-1.0-2.16","5c55b95b91c0ad0001cf86ab","6662009ae78f21dd82fcd179","66620b3f935a58aa3430c5dd","null","","null","","","","","","","","./tasks/HMM-beads/Images/BlackBeadChoiceCorrect.png","","","","","","","","","",""
"image-keyboard-response","64","277262","0.0-3.0-4.0-1.0-0.17","5c55b95b91c0ad0001cf86ab","6662009ae78f21dd82fcd179","66620b3f935a58aa3430c5dd","651","","f","","","","","","","","./tasks/HMM-beads/Images/NewTrialBC.png","practice","0","17","0","0","0","0","true","",""
"image-keyboard-response","65","277564","0.0-3.0-4.0-1.0-1.17","5c55b95b91c0ad0001cf86ab","6662009ae78f21dd82fcd179","66620b3f935a58aa3430c5dd","null","","null","","","","","","","","./tasks/HMM-beads/Images/BlackBeadChoice.png","","","","","","","","","",""
"image-keyboard-response","66","278065","0.0-3.0-4.0-1.0-2.17","5c55b95b91c0ad0001cf86ab","6662009ae78f21dd82fcd179","66620b3f935a58aa3430c5dd","null","","null","","","","","","","","./tasks/HMM-beads/Images/BlackBeadChoiceCorrect.png","","","","","","","","","",""
"image-keyboard-response","67","278702","0.0-3.0-4.0-1.0-0.18","5c55b95b91c0ad0001cf86ab","6662009ae78f21dd82fcd179","66620b3f935a58aa3430c5dd","635","","f","","","","","","","","./tasks/HMM-beads/Images/NewTrialBC.png","practice","0","18","0","1","0","0","false","",""
"image-keyboard-response","68","279004","0.0-3.0-4.0-1.0-1.18","5c55b95b91c0ad0001cf86ab","6662009ae78f21dd82fcd179","66620b3f935a58aa3430c5dd","null","","null","","","","","","","","./tasks/HMM-beads/Images/BlackBeadChoice.png","","","","","","","","","",""
"image-keyboard-response","69","279510","0.0-3.0-4.0-1.0-2.18","5c55b95b91c0ad0001cf86ab","6662009ae78f21dd82fcd179","66620b3f935a58aa3430c5dd","null","","null","","","","","","","","./tasks/HMM-beads/Images/BlackBeadChoiceWrong.png","","","","","","","","","",""
"image-keyboard-response","70","280094","0.0-3.0-4.0-1.0-0.19","5c55b95b91c0ad0001cf86ab","6662009ae78f21dd82fcd179","66620b3f935a58aa3430c5dd","583","","f","","","","","","","","./tasks/HMM-beads/Images/NewTrialWC.png","practice","0","19","0","0","1","0","true","",""
"image-keyboard-response","71","280395","0.0-3.0-4.0-1.0-1.19","5c55b95b91c0ad0001cf86ab","6662009ae78f21dd82fcd179","66620b3f935a58aa3430c5dd","null","","null","","","","","","","","./tasks/HMM-beads/Images/BlackBeadChoice.png","","","","","","","","","",""
"image-keyboard-response","72","280897","0.0-3.0-4.0-1.0-2.19","5c55b95b91c0ad0001cf86ab","6662009ae78f21dd82fcd179","66620b3f935a58aa3430c5dd","null","","null","","","","","","","","./tasks/HMM-beads/Images/BlackBeadChoiceCorrect.png","","","","","","","","","",""
"image-keyboard-response","73","281390","0.0-3.0-4.0-1.0-0.20","5c55b95b91c0ad0001cf86ab","6662009ae78f21dd82fcd179","66620b3f935a58aa3430c5dd","492","","f","","","","","","","","./tasks/HMM-beads/Images/NewTrialBC.png","practice","0","20","0","0","0","0","true","",""
"image-keyboard-response","74","281691","0.0-3.0-4.0-1.0-1.20","5c55b95b91c0ad0001cf86ab","6662009ae78f21dd82fcd179","66620b3f935a58aa3430c5dd","null","","null","","","","","","","","./tasks/HMM-beads/Images/BlackBeadChoice.png","","","","","","","","","",""
"image-keyboard-response","75","282193","0.0-3.0-4.0-1.0-2.20","5c55b95b91c0ad0001cf86ab","6662009ae78f21dd82fcd179","66620b3f935a58aa3430c5dd","null","","null","","","","","","","","./tasks/HMM-beads/Images/BlackBeadChoiceCorrect.png","","","","","","","","","",""
"image-keyboard-response","76","282686","0.0-3.0-4.0-1.0-0.21","5c55b95b91c0ad0001cf86ab","6662009ae78f21dd82fcd179","66620b3f935a58aa3430c5dd","492","","f","","","","","","","","./tasks/HMM-beads/Images/NewTrialBC.png","practice","0","21","0","1","0","0","false","",""
"image-keyboard-response","77","282994","0.0-3.0-4.0-1.0-1.21","5c55b95b91c0ad0001cf86ab","6662009ae78f21dd82fcd179","66620b3f935a58aa3430c5dd","null","","null","","","","","","","","./tasks/HMM-beads/Images/BlackBeadChoice.png","","","","","","","","","",""
"image-keyboard-response","78","283498","0.0-3.0-4.0-1.0-2.21","5c55b95b91c0ad0001cf86ab","6662009ae78f21dd82fcd179","66620b3f935a58aa3430c5dd","null","","null","","","","","","","","./tasks/HMM-beads/Images/BlackBeadChoiceWrong.png","","","","","","","","","",""
"image-keyboard-response","79","284173","0.0-3.0-4.0-1.0-0.22","5c55b95b91c0ad0001cf86ab","6662009ae78f21dd82fcd179","66620b3f935a58aa3430c5dd","675","","f","","","","","","","","./tasks/HMM-beads/Images/NewTrialWC.png","practice","0","22","1","1","1","0","false","",""
"image-keyboard-response","80","284475","0.0-3.0-4.0-1.0-1.22","5c55b95b91c0ad0001cf86ab","6662009ae78f21dd82fcd179","66620b3f935a58aa3430c5dd","null","","null","","","","","","","","./tasks/HMM-beads/Images/BlackBeadChoice.png","","","","","","","","","",""
"image-keyboard-response","81","284981","0.0-3.0-4.0-1.0-2.22","5c55b95b91c0ad0001cf86ab","6662009ae78f21dd82fcd179","66620b3f935a58aa3430c5dd","null","","null","","","","","","","","./tasks/HMM-beads/Images/BlackBeadChoiceWrong.png","","","","","","","","","",""
"image-keyboard-response","82","285822","0.0-3.0-4.0-1.0-0.23","5c55b95b91c0ad0001cf86ab","6662009ae78f21dd82fcd179","66620b3f935a58aa3430c5dd","840","","f","","","","","","","","./tasks/HMM-beads/Images/NewTrialWC.png","practice","0","23","1","0","1","0","true","",""
"image-keyboard-response","83","286123","0.0-3.0-4.0-1.0-1.23","5c55b95b91c0ad0001cf86ab","6662009ae78f21dd82fcd179","66620b3f935a58aa3430c5dd","null","","null","","","","","","","","./tasks/HMM-beads/Images/BlackBeadChoice.png","","","","","","","","","",""
"image-keyboard-response","84","286626","0.0-3.0-4.0-1.0-2.23","5c55b95b91c0ad0001cf86ab","6662009ae78f21dd82fcd179","66620b3f935a58aa3430c5dd","null","","null","","","","","","","","./tasks/HMM-beads/Images/BlackBeadChoiceCorrect.png","","","","","","","","","",""
"image-keyboard-response","85","287261","0.0-3.0-4.0-1.0-0.24","5c55b95b91c0ad0001cf86ab","6662009ae78f21dd82fcd179","66620b3f935a58aa3430c5dd","635","","f","","","","","","","","./tasks/HMM-beads/Images/NewTrialBC.png","practice","0","24","1","1","0","0","false","",""
"image-keyboard-response","86","287563","0.0-3.0-4.0-1.0-1.24","5c55b95b91c0ad0001cf86ab","6662009ae78f21dd82fcd179","66620b3f935a58aa3430c5dd","null","","null","","","","","","","","./tasks/HMM-beads/Images/BlackBeadChoice.png","","","","","","","","","",""
"image-keyboard-response","87","288065","0.0-3.0-4.0-1.0-2.24","5c55b95b91c0ad0001cf86ab","6662009ae78f21dd82fcd179","66620b3f935a58aa3430c5dd","null","","null","","","","","","","","./tasks/HMM-beads/Images/BlackBeadChoiceWrong.png","","","","","","","","","",""
"image-keyboard-response","88","288861","0.0-3.0-4.0-1.0-0.25","5c55b95b91c0ad0001cf86ab","6662009ae78f21dd82fcd179","66620b3f935a58aa3430c5dd","796","","f","","","","","","","","./tasks/HMM-beads/Images/NewTrialWC.png","practice","0","25","1","1","1","0","false","",""
"image-keyboard-response","89","289163","0.0-3.0-4.0-1.0-1.25","5c55b95b91c0ad0001cf86ab","6662009ae78f21dd82fcd179","66620b3f935a58aa3430c5dd","null","","null","","","","","","","","./tasks/HMM-beads/Images/BlackBeadChoice.png","","","","","","","","","",""
"image-keyboard-response","90","289670","0.0-3.0-4.0-1.0-2.25","5c55b95b91c0ad0001cf86ab","6662009ae78f21dd82fcd179","66620b3f935a58aa3430c5dd","null","","null","","","","","","","","./tasks/HMM-beads/Images/BlackBeadChoiceWrong.png","","","","","","","","","",""
"image-keyboard-response","91","290077","0.0-3.0-4.0-1.0-0.26","5c55b95b91c0ad0001cf86ab","6662009ae78f21dd82fcd179","66620b3f935a58aa3430c5dd","407","","j","","","","","","","","./tasks/HMM-beads/Images/NewTrialWC.png","practice","0","26","1","1","1","1","true","",""
"image-keyboard-response","92","290384","0.0-3.0-4.0-1.0-1.26","5c55b95b91c0ad0001cf86ab","6662009ae78f21dd82fcd179","66620b3f935a58aa3430c5dd","null","","null","","","","","","","","./tasks/HMM-beads/Images/WhiteBeadChoice.png","","","","","","","","","",""
"image-keyboard-response","93","290887","0.0-3.0-4.0-1.0-2.26","5c55b95b91c0ad0001cf86ab","6662009ae78f21dd82fcd179","66620b3f935a58aa3430c5dd","null","","null","","","","","","","","./tasks/HMM-beads/Images/WhiteBeadChoiceCorrect.png","","","","","","","","","",""
"image-keyboard-response","94","291629","0.0-3.0-4.0-1.0-0.27","5c55b95b91c0ad0001cf86ab","6662009ae78f21dd82fcd179","66620b3f935a58aa3430c5dd","742","","j","","","","","","","","./tasks/HMM-beads/Images/NewTrialWC.png","practice","0","27","1","1","1","1","true","",""
"image-keyboard-response","95","291935","0.0-3.0-4.0-1.0-1.27","5c55b95b91c0ad0001cf86ab","6662009ae78f21dd82fcd179","66620b3f935a58aa3430c5dd","null","","null","","","","","","","","./tasks/HMM-beads/Images/WhiteBeadChoice.png","","","","","","","","","",""
"image-keyboard-response","96","292440","0.0-3.0-4.0-1.0-2.27","5c55b95b91c0ad0001cf86ab","6662009ae78f21dd82fcd179","66620b3f935a58aa3430c5dd","null","","null","","","","","","","","./tasks/HMM-beads/Images/WhiteBeadChoiceCorrect.png","","","","","","","","","",""
"image-keyboard-response","97","293005","0.0-3.0-4.0-1.0-0.28","5c55b95b91c0ad0001cf86ab","6662009ae78f21dd82fcd179","66620b3f935a58aa3430c5dd","564","","j","","","","","","","","./tasks/HMM-beads/Images/NewTrialWC.png","practice","0","28","1","0","1","1","false","",""
"image-keyboard-response","98","293306","0.0-3.0-4.0-1.0-1.28","5c55b95b91c0ad0001cf86ab","6662009ae78f21dd82fcd179","66620b3f935a58aa3430c5dd","null","","null","","","","","","","","./tasks/HMM-beads/Images/WhiteBeadChoice.png","","","","","","","","","",""
"image-keyboard-response","99","293812","0.0-3.0-4.0-1.0-2.28","5c55b95b91c0ad0001cf86ab","6662009ae78f21dd82fcd179","66620b3f935a58aa3430c5dd","null","","null","","","","","","","","./tasks/HMM-beads/Images/WhiteBeadChoiceWrong.png","","","","","","","","","",""
"image-keyboard-response","100","294413","0.0-3.0-4.0-1.0-0.29","5c55b95b91c0ad0001cf86ab","6662009ae78f21dd82fcd179","66620b3f935a58aa3430c5dd","601","","j","","","","","","","","./tasks/HMM-beads/Images/NewTrialBC.png","practice","0","29","1","1","0","1","true","",""
"image-keyboard-response","101","294715","0.0-3.0-4.0-1.0-1.29","5c55b95b91c0ad0001cf86ab","6662009ae78f21dd82fcd179","66620b3f935a58aa3430c5dd","null","","null","","","","","","","","./tasks/HMM-beads/Images/WhiteBeadChoice.png","","","","","","","","","",""
"image-keyboard-response","102","295222","0.0-3.0-4.0-1.0-2.29","5c55b95b91c0ad0001cf86ab","6662009ae78f21dd82fcd179","66620b3f935a58aa3430c5dd","null","","null","","","","","","","","./tasks/HMM-beads/Images/WhiteBeadChoiceCorrect.png","","","","","","","","","",""
"image-keyboard-response","103","295805","0.0-3.0-4.0-1.0-0.30","5c55b95b91c0ad0001cf86ab","6662009ae78f21dd82fcd179","66620b3f935a58aa3430c5dd","579","","j","","","","","","","","./tasks/HMM-beads/Images/NewTrialWC.png","practice","0","30","1","0","1","1","false","",""
"image-keyboard-response","104","296109","0.0-3.0-4.0-1.0-1.30","5c55b95b91c0ad0001cf86ab","6662009ae78f21dd82fcd179","66620b3f935a58aa3430c5dd","null","","null","","","","","","","","./tasks/HMM-beads/Images/WhiteBeadChoice.png","","","","","","","","","",""
"image-keyboard-response","105","296614","0.0-3.0-4.0-1.0-2.30","5c55b95b91c0ad0001cf86ab","6662009ae78f21dd82fcd179","66620b3f935a58aa3430c5dd","null","","null","","","","","","","","./tasks/HMM-beads/Images/WhiteBeadChoiceWrong.png","","","","","","","","","",""
"image-keyboard-response","106","297229","0.0-3.0-4.0-1.0-0.31","5c55b95b91c0ad0001cf86ab","6662009ae78f21dd82fcd179","66620b3f935a58aa3430c5dd","614","","j","","","","","","","","./tasks/HMM-beads/Images/NewTrialBC.png","practice","0","31","1","1","0","1","true","",""
"image-keyboard-response","107","297531","0.0-3.0-4.0-1.0-1.31","5c55b95b91c0ad0001cf86ab","6662009ae78f21dd82fcd179","66620b3f935a58aa3430c5dd","null","","null","","","","","","","","./tasks/HMM-beads/Images/WhiteBeadChoice.png","","","","","","","","","",""
"image-keyboard-response","108","298032","0.0-3.0-4.0-1.0-2.31","5c55b95b91c0ad0001cf86ab","6662009ae78f21dd82fcd179","66620b3f935a58aa3430c5dd","null","","null","","","","","","","","./tasks/HMM-beads/Images/WhiteBeadChoiceCorrect.png","","","","","","","","","",""
"image-keyboard-response","109","298589","0.0-3.0-4.0-1.0-0.32","5c55b95b91c0ad0001cf86ab","6662009ae78f21dd82fcd179","66620b3f935a58aa3430c5dd","557","","j","","","","","","","","./tasks/HMM-beads/Images/NewTrialWC.png","practice","0","32","1","1","1","1","true","",""
"image-keyboard-response","110","298891","0.0-3.0-4.0-1.0-1.32","5c55b95b91c0ad0001cf86ab","6662009ae78f21dd82fcd179","66620b3f935a58aa3430c5dd","null","","null","","","","","","","","./tasks/HMM-beads/Images/WhiteBeadChoice.png","","","","","","","","","",""
"image-keyboard-response","111","299394","0.0-3.0-4.0-1.0-2.32","5c55b95b91c0ad0001cf86ab","6662009ae78f21dd82fcd179","66620b3f935a58aa3430c5dd","null","","null","","","","","","","","./tasks/HMM-beads/Images/WhiteBeadChoiceCorrect.png","","","","","","","","","",""
"image-keyboard-response","112","299933","0.0-3.0-4.0-1.0-0.33","5c55b95b91c0ad0001cf86ab","6662009ae78f21dd82fcd179","66620b3f935a58aa3430c5dd","539","","j","","","","","","","","./tasks/HMM-beads/Images/NewTrialWC.png","practice","0","33","1","1","1","1","true","",""
"image-keyboard-response","113","300235","0.0-3.0-4.0-1.0-1.33","5c55b95b91c0ad0001cf86ab","6662009ae78f21dd82fcd179","66620b3f935a58aa3430c5dd","null","","null","","","","","","","","./tasks/HMM-beads/Images/WhiteBeadChoice.png","","","","","","","","","",""
"image-keyboard-response","114","300739","0.0-3.0-4.0-1.0-2.33","5c55b95b91c0ad0001cf86ab","6662009ae78f21dd82fcd179","66620b3f935a58aa3430c5dd","null","","null","","","","","","","","./tasks/HMM-beads/Images/WhiteBeadChoiceCorrect.png","","","","","","","","","",""
"image-keyboard-response","115","301277","0.0-3.0-4.0-1.0-0.34","5c55b95b91c0ad0001cf86ab","6662009ae78f21dd82fcd179","66620b3f935a58aa3430c5dd","537","","j","","","","","","","","./tasks/HMM-beads/Images/NewTrialWC.png","practice","0","34","1","1","1","1","true","",""
"image-keyboard-response","116","301587","0.0-3.0-4.0-1.0-1.34","5c55b95b91c0ad0001cf86ab","6662009ae78f21dd82fcd179","66620b3f935a58aa3430c5dd","null","","null","","","","","","","","./tasks/HMM-beads/Images/WhiteBeadChoice.png","","","","","","","","","",""
"image-keyboard-response","117","302091","0.0-3.0-4.0-1.0-2.34","5c55b95b91c0ad0001cf86ab","6662009ae78f21dd82fcd179","66620b3f935a58aa3430c5dd","null","","null","","","","","","","","./tasks/HMM-beads/Images/WhiteBeadChoiceCorrect.png","","","","","","","","","",""
"image-keyboard-response","118","302797","0.0-3.0-4.0-1.0-0.35","5c55b95b91c0ad0001cf86ab","6662009ae78f21dd82fcd179","66620b3f935a58aa3430c5dd","705","","j","","","","","","","","./tasks/HMM-beads/Images/NewTrialWC.png","practice","0","35","1","1","1","1","true","",""
"image-keyboard-response","119","303103","0.0-3.0-4.0-1.0-1.35","5c55b95b91c0ad0001cf86ab","6662009ae78f21dd82fcd179","66620b3f935a58aa3430c5dd","null","","null","","","","","","","","./tasks/HMM-beads/Images/WhiteBeadChoice.png","","","","","","","","","",""
"image-keyboard-response","120","303610","0.0-3.0-4.0-1.0-2.35","5c55b95b91c0ad0001cf86ab","6662009ae78f21dd82fcd179","66620b3f935a58aa3430c5dd","null","","null","","","","","","","","./tasks/HMM-beads/Images/WhiteBeadChoiceCorrect.png","","","","","","","","","",""
"image-keyboard-response","121","304253","0.0-3.0-4.0-1.0-0.36","5c55b95b91c0ad0001cf86ab","6662009ae78f21dd82fcd179","66620b3f935a58aa3430c5dd","642","","j","","","","","","","","./tasks/HMM-beads/Images/NewTrialWC.png","practice","0","36","1","0","1","1","false","",""
"image-keyboard-response","122","304555","0.0-3.0-4.0-1.0-1.36","5c55b95b91c0ad0001cf86ab","6662009ae78f21dd82fcd179","66620b3f935a58aa3430c5dd","null","","null","","","","","","","","./tasks/HMM-beads/Images/WhiteBeadChoice.png","","","","","","","","","",""
"image-keyboard-response","123","305061","0.0-3.0-4.0-1.0-2.36","5c55b95b91c0ad0001cf86ab","6662009ae78f21dd82fcd179","66620b3f935a58aa3430c5dd","null","","null","","","","","","","","./tasks/HMM-beads/Images/WhiteBeadChoiceWrong.png","","","","","","","","","",""
"image-keyboard-response","124","305581","0.0-3.0-4.0-1.0-0.37","5c55b95b91c0ad0001cf86ab","6662009ae78f21dd82fcd179","66620b3f935a58aa3430c5dd","519","","j","","","","","","","","./tasks/HMM-beads/Images/NewTrialBC.png","practice","0","37","1","1","0","1","true","",""
"image-keyboard-response","125","305883","0.0-3.0-4.0-1.0-1.37","5c55b95b91c0ad0001cf86ab","6662009ae78f21dd82fcd179","66620b3f935a58aa3430c5dd","null","","null","","","","","","","","./tasks/HMM-beads/Images/WhiteBeadChoice.png","","","","","","","","","",""
"image-keyboard-response","126","306388","0.0-3.0-4.0-1.0-2.37","5c55b95b91c0ad0001cf86ab","6662009ae78f21dd82fcd179","66620b3f935a58aa3430c5dd","null","","null","","","","","","","","./tasks/HMM-beads/Images/WhiteBeadChoiceCorrect.png","","","","","","","","","",""
"image-keyboard-response","127","306781","0.0-3.0-4.0-1.0-0.38","5c55b95b91c0ad0001cf86ab","6662009ae78f21dd82fcd179","66620b3f935a58aa3430c5dd","392","","j","","","","","","","","./tasks/HMM-beads/Images/NewTrialWC.png","practice","0","38","1","1","1","1","true","",""
"image-keyboard-response","128","307083","0.0-3.0-4.0-1.0-1.38","5c55b95b91c0ad0001cf86ab","6662009ae78f21dd82fcd179","66620b3f935a58aa3430c5dd","null","","null","","","","","","","","./tasks/HMM-beads/Images/WhiteBeadChoice.png","","","","","","","","","",""
"image-keyboard-response","129","307592","0.0-3.0-4.0-1.0-2.38","5c55b95b91c0ad0001cf86ab","6662009ae78f21dd82fcd179","66620b3f935a58aa3430c5dd","null","","null","","","","","","","","./tasks/HMM-beads/Images/WhiteBeadChoiceCorrect.png","","","","","","","","","",""
"image-keyboard-response","130","308029","0.0-3.0-4.0-1.0-0.39","5c55b95b91c0ad0001cf86ab","6662009ae78f21dd82fcd179","66620b3f935a58aa3430c5dd","437","","j","","","","","","","","./tasks/HMM-beads/Images/NewTrialWC.png","practice","0","39","1","1","1","1","true","",""
"image-keyboard-response","131","308334","0.0-3.0-4.0-1.0-1.39","5c55b95b91c0ad0001cf86ab","6662009ae78f21dd82fcd179","66620b3f935a58aa3430c5dd","null","","null","","","","","","","","./tasks/HMM-beads/Images/WhiteBeadChoice.png","","","","","","","","","",""
"image-keyboard-response","132","308837","0.0-3.0-4.0-1.0-2.39","5c55b95b91c0ad0001cf86ab","6662009ae78f21dd82fcd179","66620b3f935a58aa3430c5dd","null","","null","","","","","","","","./tasks/HMM-beads/Images/WhiteBeadChoiceCorrect.png","","","","","","","","","",""
"html-keyboard-response","133","311693","0.0-3.0-4.0-2.0","5c55b95b91c0ad0001cf86ab","6662009ae78f21dd82fcd179","66620b3f935a58aa3430c5dd","2855",""," ","","","","","","","","","","","","","","","","","",""
"instructions","134","331196","0.0-3.0-5.0","5c55b95b91c0ad0001cf86ab","6662009ae78f21dd82fcd179","66620b3f935a58aa3430c5dd","19503","","","","[{""page_index"":0,""viewing_time"":14999},{""page_index"":1,""viewing_time"":4504}]","","","","","","","","","","","","","","","",""
"html-keyboard-response","135","333677","0.0-3.0-6.0-0.0","5c55b95b91c0ad0001cf86ab","6662009ae78f21dd82fcd179","66620b3f935a58aa3430c5dd","2480",""," ","","","","","","","","<div align=center>In this block, there will be a <b>1% chance</b> that the jar on the next trial will be different from the jar on the current trial.<br><br></div>","","","","","","","","","",""
"image-keyboard-response","136","335852","0.0-3.0-6.0-1.0-0.0","5c55b95b91c0ad0001cf86ab","6662009ae78f21dd82fcd179","66620b3f935a58aa3430c5dd","2175","","f","","","","","","","","./tasks/HMM-beads/Images/NoChoice.png","lowH","1","0","1","0","9","0","true","",""
"image-keyboard-response","137","336157","0.0-3.0-6.0-1.0-1.0","5c55b95b91c0ad0001cf86ab","6662009ae78f21dd82fcd179","66620b3f935a58aa3430c5dd","null","","null","","","","","","","","./tasks/HMM-beads/Images/BlackBeadChoice.png","","","","","","","","","",""
"image-keyboard-response","138","336658","0.0-3.0-6.0-1.0-2.0","5c55b95b91c0ad0001cf86ab","6662009ae78f21dd82fcd179","66620b3f935a58aa3430c5dd","null","","null","","","","","","","","./tasks/HMM-beads/Images/BlackBeadChoiceCorrect.png","","","","","","","","","",""
"image-keyboard-response","139","337453","0.0-3.0-6.0-1.0-0.1","5c55b95b91c0ad0001cf86ab","6662009ae78f21dd82fcd179","66620b3f935a58aa3430c5dd","794","","f","","","","","","","","./tasks/HMM-beads/Images/NewTrialBC.png","lowH","1","1","1","1","0","0","false","",""
"image-keyboard-response","140","337755","0.0-3.0-6.0-1.0-1.1","5c55b95b91c0ad0001cf86ab","6662009ae78f21dd82fcd179","66620b3f935a58aa3430c5dd","null","","null","","","","","","","","./tasks/HMM-beads/Images/BlackBeadChoice.png","","","","","","","","","",""
"image-keyboard-response","141","338257","0.0-3.0-6.0-1.0-2.1","5c55b95b91c0ad0001cf86ab","6662009ae78f21dd82fcd179","66620b3f935a58aa3430c5dd","null","","null","","","","","","","","./tasks/HMM-beads/Images/BlackBeadChoiceWrong.png","","","","","","","","","",""
"image-keyboard-response","142","338796","0.0-3.0-6.0-1.0-0.2","5c55b95b91c0ad0001cf86ab","6662009ae78f21dd82fcd179","66620b3f935a58aa3430c5dd","539","","f","","","","","","","","./tasks/HMM-beads/Images/NewTrialWC.png","lowH","1","2","1","1","1","0","false","",""
"image-keyboard-response","143","339098","0.0-3.0-6.0-1.0-1.2","5c55b95b91c0ad0001cf86ab","6662009ae78f21dd82fcd179","66620b3f935a58aa3430c5dd","null","","null","","","","","","","","./tasks/HMM-beads/Images/BlackBeadChoice.png","","","","","","","","","",""
"image-keyboard-response","144","339604","0.0-3.0-6.0-1.0-2.2","5c55b95b91c0ad0001cf86ab","6662009ae78f21dd82fcd179","66620b3f935a58aa3430c5dd","null","","null","","","","","","","","./tasks/HMM-beads/Images/BlackBeadChoiceWrong.png","","","","","","","","","",""
"image-keyboard-response","145","340188","0.0-3.0-6.0-1.0-0.3","5c55b95b91c0ad0001cf86ab","6662009ae78f21dd82fcd179","66620b3f935a58aa3430c5dd","583","","j","","","","","","","","./tasks/HMM-beads/Images/NewTrialWC.png","lowH","1","3","1","1","1","1","true","",""
"image-keyboard-response","146","340491","0.0-3.0-6.0-1.0-1.3","5c55b95b91c0ad0001cf86ab","6662009ae78f21dd82fcd179","66620b3f935a58aa3430c5dd","null","","null","","","","","","","","./tasks/HMM-beads/Images/WhiteBeadChoice.png","","","","","","","","","",""
"image-keyboard-response","147","340993","0.0-3.0-6.0-1.0-2.3","5c55b95b91c0ad0001cf86ab","6662009ae78f21dd82fcd179","66620b3f935a58aa3430c5dd","null","","null","","","","","","","","./tasks/HMM-beads/Images/WhiteBeadChoiceCorrect.png","","","","","","","","","",""
"image-keyboard-response","148","341692","0.0-3.0-6.0-1.0-0.4","5c55b95b91c0ad0001cf86ab","6662009ae78f21dd82fcd179","66620b3f935a58aa3430c5dd","698","","j","","","","","","","","./tasks/HMM-beads/Images/NewTrialWC.png","lowH","1","4","1","1","1","1","true","",""
"image-keyboard-response","149","341996","0.0-3.0-6.0-1.0-1.4","5c55b95b91c0ad0001cf86ab","6662009ae78f21dd82fcd179","66620b3f935a58aa3430c5dd","null","","null","","","","","","","","./tasks/HMM-beads/Images/WhiteBeadChoice.png","","","","","","","","","",""
"image-keyboard-response","150","342499","0.0-3.0-6.0-1.0-2.4","5c55b95b91c0ad0001cf86ab","6662009ae78f21dd82fcd179","66620b3f935a58aa3430c5dd","null","","null","","","","","","","","./tasks/HMM-beads/Images/WhiteBeadChoiceCorrect.png","","","","","","","","","",""
"image-keyboard-response","151","343084","0.0-3.0-6.0-1.0-0.5","5c55b95b91c0ad0001cf86ab","6662009ae78f21dd82fcd179","66620b3f935a58aa3430c5dd","584","","j","","","","","","","","./tasks/HMM-beads/Images/NewTrialWC.png","lowH","1","5","1","1","1","1","true","",""
"image-keyboard-response","152","343386","0.0-3.0-6.0-1.0-1.5","5c55b95b91c0ad0001cf86ab","6662009ae78f21dd82fcd179","66620b3f935a58aa3430c5dd","null","","null","","","","","","","","./tasks/HMM-beads/Images/WhiteBeadChoice.png","","","","","","","","","",""
"image-keyboard-response","153","343891","0.0-3.0-6.0-1.0-2.5","5c55b95b91c0ad0001cf86ab","6662009ae78f21dd82fcd179","66620b3f935a58aa3430c5dd","null","","null","","","","","","","","./tasks/HMM-beads/Images/WhiteBeadChoiceCorrect.png","","","","","","","","","",""
"image-keyboard-response","154","344412","0.0-3.0-6.0-1.0-0.6","5c55b95b91c0ad0001cf86ab","6662009ae78f21dd82fcd179","66620b3f935a58aa3430c5dd","520","","j","","","","","","","","./tasks/HMM-beads/Images/NewTrialWC.png","lowH","1","6","1","0","1","1","false","",""
"image-keyboard-response","155","344714","0.0-3.0-6.0-1.0-1.6","5c55b95b91c0ad0001cf86ab","6662009ae78f21dd82fcd179","66620b3f935a58aa3430c5dd","null","","null","","","","","","","","./tasks/HMM-beads/Images/WhiteBeadChoice.png","","","","","","","","","",""
"image-keyboard-response","156","345220","0.0-3.0-6.0-1.0-2.6","5c55b95b91c0ad0001cf86ab","6662009ae78f21dd82fcd179","66620b3f935a58aa3430c5dd","null","","null","","","","","","","","./tasks/HMM-beads/Images/WhiteBeadChoiceWrong.png","","","","","","","","","",""
"image-keyboard-response","157","345676","0.0-3.0-6.0-1.0-0.7","5c55b95b91c0ad0001cf86ab","6662009ae78f21dd82fcd179","66620b3f935a58aa3430c5dd","455","","j","","","","","","","","./tasks/HMM-beads/Images/NewTrialBC.png","lowH","1","7","1","1","0","1","true","",""
"image-keyboard-response","158","345981","0.0-3.0-6.0-1.0-1.7","5c55b95b91c0ad0001cf86ab","6662009ae78f21dd82fcd179","66620b3f935a58aa3430c5dd","null","","null","","","","","","","","./tasks/HMM-beads/Images/WhiteBeadChoice.png","","","","","","","","","",""
"image-keyboard-response","159","346485","0.0-3.0-6.0-1.0-2.7","5c55b95b91c0ad0001cf86ab","6662009ae78f21dd82fcd179","66620b3f935a58aa3430c5dd","null","","null","","","","","","","","./tasks/HMM-beads/Images/WhiteBeadChoiceCorrect.png","","","","","","","","","",""
"image-keyboard-response","160","346940","0.0-3.0-6.0-1.0-0.8","5c55b95b91c0ad0001cf86ab","6662009ae78f21dd82fcd179","66620b3f935a58aa3430c5dd","455","","j","","","","","","","","./tasks/HMM-beads/Images/NewTrialWC.png","lowH","1","8","1","1","1","1","true","",""
"image-keyboard-response","161","347244","0.0-3.0-6.0-1.0-1.8","5c55b95b91c0ad0001cf86ab","6662009ae78f21dd82fcd179","66620b3f935a58aa3430c5dd","null","","null","","","","","","","","./tasks/HMM-beads/Images/WhiteBeadChoice.png","","","","","","","","","",""
"image-keyboard-response","162","347750","0.0-3.0-6.0-1.0-2.8","5c55b95b91c0ad0001cf86ab","6662009ae78f21dd82fcd179","66620b3f935a58aa3430c5dd","null","","null","","","","","","","","./tasks/HMM-beads/Images/WhiteBeadChoiceCorrect.png","","","","","","","","","",""
"image-keyboard-response","163","348236","0.0-3.0-6.0-1.0-0.9","5c55b95b91c0ad0001cf86ab","6662009ae78f21dd82fcd179","66620b3f935a58aa3430c5dd","486","","j","","","","","","","","./tasks/HMM-beads/Images/NewTrialWC.png","lowH","1","9","1","1","1","1","true","",""
"image-keyboard-response","164","348538","0.0-3.0-6.0-1.0-1.9","5c55b95b91c0ad0001cf86ab","6662009ae78f21dd82fcd179","66620b3f935a58aa3430c5dd","null","","null","","","","","","","","./tasks/HMM-beads/Images/WhiteBeadChoice.png","","","","","","","","","",""
"image-keyboard-response","165","349044","0.0-3.0-6.0-1.0-2.9","5c55b95b91c0ad0001cf86ab","6662009ae78f21dd82fcd179","66620b3f935a58aa3430c5dd","null","","null","","","","","","","","./tasks/HMM-beads/Images/WhiteBeadChoiceCorrect.png","","","","","","","","","",""
"image-keyboard-response","166","349420","0.0-3.0-6.0-1.0-0.10","5c55b95b91c0ad0001cf86ab","6662009ae78f21dd82fcd179","66620b3f935a58aa3430c5dd","375","","j","","","","","","","","./tasks/HMM-beads/Images/NewTrialWC.png","lowH","1","10","1","1","1","1","true","",""
"image-keyboard-response","167","349722","0.0-3.0-6.0-1.0-1.10","5c55b95b91c0ad0001cf86ab","6662009ae78f21dd82fcd179","66620b3f935a58aa3430c5dd","null","","null","","","","","","","","./tasks/HMM-beads/Images/WhiteBeadChoice.png","","","","","","","","","",""
"image-keyboard-response","168","350229","0.0-3.0-6.0-1.0-2.10","5c55b95b91c0ad0001cf86ab","6662009ae78f21dd82fcd179","66620b3f935a58aa3430c5dd","null","","null","","","","","","","","./tasks/HMM-beads/Images/WhiteBeadChoiceCorrect.png","","","","","","","","","",""
"image-keyboard-response","169","350636","0.0-3.0-6.0-1.0-0.11","5c55b95b91c0ad0001cf86ab","6662009ae78f21dd82fcd179","66620b3f935a58aa3430c5dd","407","","j","","","","","","","","./tasks/HMM-beads/Images/NewTrialWC.png","lowH","1","11","1","1","1","1","true","",""
"image-keyboard-response","170","350938","0.0-3.0-6.0-1.0-1.11","5c55b95b91c0ad0001cf86ab","6662009ae78f21dd82fcd179","66620b3f935a58aa3430c5dd","null","","null","","","","","","","","./tasks/HMM-beads/Images/WhiteBeadChoice.png","","","","","","","","","",""
"image-keyboard-response","171","351449","0.0-3.0-6.0-1.0-2.11","5c55b95b91c0ad0001cf86ab","6662009ae78f21dd82fcd179","66620b3f935a58aa3430c5dd","null","","null","","","","","","","","./tasks/HMM-beads/Images/WhiteBeadChoiceCorrect.png","","","","","","","","","",""
"image-keyboard-response","172","351820","0.0-3.0-6.0-1.0-0.12","5c55b95b91c0ad0001cf86ab","6662009ae78f21dd82fcd179","66620b3f935a58aa3430c5dd","370","","j","","","","","","","","./tasks/HMM-beads/Images/NewTrialWC.png","lowH","1","12","1","1","1","1","true","",""
"image-keyboard-response","173","352120","0.0-3.0-6.0-1.0-1.12","5c55b95b91c0ad0001cf86ab","6662009ae78f21dd82fcd179","66620b3f935a58aa3430c5dd","null","","null","","","","","","","","./tasks/HMM-beads/Images/WhiteBeadChoice.png","","","","","","","","","",""
"image-keyboard-response","174","352626","0.0-3.0-6.0-1.0-2.12","5c55b95b91c0ad0001cf86ab","6662009ae78f21dd82fcd179","66620b3f935a58aa3430c5dd","null","","null","","","","","","","","./tasks/HMM-beads/Images/WhiteBeadChoiceCorrect.png","","","","","","","","","",""
"image-keyboard-response","175","353020","0.0-3.0-6.0-1.0-0.13","5c55b95b91c0ad0001cf86ab","6662009ae78f21dd82fcd179","66620b3f935a58aa3430c5dd","393","","j","","","","","","","","./tasks/HMM-beads/Images/NewTrialWC.png","lowH","1","13","1","0","1","1","false","",""
"image-keyboard-response","176","353322","0.0-3.0-6.0-1.0-1.13","5c55b95b91c0ad0001cf86ab","6662009ae78f21dd82fcd179","66620b3f935a58aa3430c5dd","null","","null","","","","","","","","./tasks/HMM-beads/Images/WhiteBeadChoice.png","","","","","","","","","",""
"image-keyboard-response","177","353828","0.0-3.0-6.0-1.0-2.13","5c55b95b91c0ad0001cf86ab","6662009ae78f21dd82fcd179","66620b3f935a58aa3430c5dd","null","","null","","","","","","","","./tasks/HMM-beads/Images/WhiteBeadChoiceWrong.png","","","","","","","","","",""
"image-keyboard-response","178","354252","0.0-3.0-6.0-1.0-0.14","5c55b95b91c0ad0001cf86ab","6662009ae78f21dd82fcd179","66620b3f935a58aa3430c5dd","423","","j","","","","","","","","./tasks/HMM-beads/Images/NewTrialBC.png","lowH","1","14","1","0","0","1","false","",""
"image-keyboard-response","179","354554","0.0-3.0-6.0-1.0-1.14","5c55b95b91c0ad0001cf86ab","6662009ae78f21dd82fcd179","66620b3f935a58aa3430c5dd","null","","null","","","","","","","","./tasks/HMM-beads/Images/WhiteBeadChoice.png","","","","","","","","","",""
"image-keyboard-response","180","355056","0.0-3.0-6.0-1.0-2.14","5c55b95b91c0ad0001cf86ab","6662009ae78f21dd82fcd179","66620b3f935a58aa3430c5dd","null","","null","","","","","","","","./tasks/HMM-beads/Images/WhiteBeadChoiceWrong.png","","","","","","","","","",""
"image-keyboard-response","181","355532","0.0-3.0-6.0-1.0-0.15","5c55b95b91c0ad0001cf86ab","6662009ae78f21dd82fcd179","66620b3f935a58aa3430c5dd","476","","j","","","","","","","","./tasks/HMM-beads/Images/NewTrialBC.png","lowH","1","15","1","1","0","1","true","",""
"image-keyboard-response","182","355834","0.0-3.0-6.0-1.0-1.15","5c55b95b91c0ad0001cf86ab","6662009ae78f21dd82fcd179","66620b3f935a58aa3430c5dd","null","","null","","","","","","","","./tasks/HMM-beads/Images/WhiteBeadChoice.png","","","","","","","","","",""
"image-keyboard-response","183","356340","0.0-3.0-6.0-1.0-2.15","5c55b95b91c0ad0001cf86ab","6662009ae78f21dd82fcd179","66620b3f935a58aa3430c5dd","null","","null","","","","","","","","./tasks/HMM-beads/Images/WhiteBeadChoiceCorrect.png","","","","","","","","","",""
"image-keyboard-response","184","356732","0.0-3.0-6.0-1.0-0.16","5c55b95b91c0ad0001cf86ab","6662009ae78f21dd82fcd179","66620b3f935a58aa3430c5dd","387","","j","","","","","","","","./tasks/HMM-beads/Images/NewTrialWC.png","lowH","1","16","1","1","1","1","true","",""
"image-keyboard-response","185","357035","0.0-3.0-6.0-1.0-1.16","5c55b95b91c0ad0001cf86ab","6662009ae78f21dd82fcd179","66620b3f935a58aa3430c5dd","null","","null","","","","","","","","./tasks/HMM-beads/Images/WhiteBeadChoice.png","","","","","","","","","",""
"image-keyboard-response","186","357541","0.0-3.0-6.0-1.0-2.16","5c55b95b91c0ad0001cf86ab","6662009ae78f21dd82fcd179","66620b3f935a58aa3430c5dd","null","","null","","","","","","","","./tasks/HMM-beads/Images/WhiteBeadChoiceCorrect.png","","","","","","","","","",""
"image-keyboard-response","187","357964","0.0-3.0-6.0-1.0-0.17","5c55b95b91c0ad0001cf86ab","6662009ae78f21dd82fcd179","66620b3f935a58aa3430c5dd","423","","j","","","","","","","","./tasks/HMM-beads/Images/NewTrialWC.png","lowH","1","17","1","1","1","1","true","",""
"image-keyboard-response","188","358266","0.0-3.0-6.0-1.0-1.17","5c55b95b91c0ad0001cf86ab","6662009ae78f21dd82fcd179","66620b3f935a58aa3430c5dd","null","","null","","","","","","","","./tasks/HMM-beads/Images/WhiteBeadChoice.png","","","","","","","","","",""
"image-keyboard-response","189","358768","0.0-3.0-6.0-1.0-2.17","5c55b95b91c0ad0001cf86ab","6662009ae78f21dd82fcd179","66620b3f935a58aa3430c5dd","null","","null","","","","","","","","./tasks/HMM-beads/Images/WhiteBeadChoiceCorrect.png","","","","","","","","","",""
"image-keyboard-response","190","359132","0.0-3.0-6.0-1.0-0.18","5c55b95b91c0ad0001cf86ab","6662009ae78f21dd82fcd179","66620b3f935a58aa3430c5dd","364","","j","","","","","","","","./tasks/HMM-beads/Images/NewTrialWC.png","lowH","1","18","1","1","1","1","true","",""
"image-keyboard-response","191","359439","0.0-3.0-6.0-1.0-1.18","5c55b95b91c0ad0001cf86ab","6662009ae78f21dd82fcd179","66620b3f935a58aa3430c5dd","null","","null","","","","","","","","./tasks/HMM-beads/Images/WhiteBeadChoice.png","","","","","","","","","",""
"image-keyboard-response","192","359942","0.0-3.0-6.0-1.0-2.18","5c55b95b91c0ad0001cf86ab","6662009ae78f21dd82fcd179","66620b3f935a58aa3430c5dd","null","","null","","","","","","","","./tasks/HMM-beads/Images/WhiteBeadChoiceCorrect.png","","","","","","","","","",""
"image-keyboard-response","193","360332","0.0-3.0-6.0-1.0-0.19","5c55b95b91c0ad0001cf86ab","6662009ae78f21dd82fcd179","66620b3f935a58aa3430c5dd","389","","j","","","","","","","","./tasks/HMM-beads/Images/NewTrialWC.png","lowH","1","19","1","1","1","1","true","",""
"image-keyboard-response","194","360634","0.0-3.0-6.0-1.0-1.19","5c55b95b91c0ad0001cf86ab","6662009ae78f21dd82fcd179","66620b3f935a58aa3430c5dd","null","","null","","","","","","","","./tasks/HMM-beads/Images/WhiteBeadChoice.png","","","","","","","","","",""
"image-keyboard-response","195","361140","0.0-3.0-6.0-1.0-2.19","5c55b95b91c0ad0001cf86ab","6662009ae78f21dd82fcd179","66620b3f935a58aa3430c5dd","null","","null","","","","","","","","./tasks/HMM-beads/Images/WhiteBeadChoiceCorrect.png","","","","","","","","","",""
"image-keyboard-response","196","361564","0.0-3.0-6.0-1.0-0.20","5c55b95b91c0ad0001cf86ab","6662009ae78f21dd82fcd179","66620b3f935a58aa3430c5dd","423","","j","","","","","","","","./tasks/HMM-beads/Images/NewTrialWC.png","lowH","1","20","1","1","1","1","true","",""
"image-keyboard-response","197","361871","0.0-3.0-6.0-1.0-1.20","5c55b95b91c0ad0001cf86ab","6662009ae78f21dd82fcd179","66620b3f935a58aa3430c5dd","null","","null","","","","","","","","./tasks/HMM-beads/Images/WhiteBeadChoice.png","","","","","","","","","",""
"image-keyboard-response","198","362377","0.0-3.0-6.0-1.0-2.20","5c55b95b91c0ad0001cf86ab","6662009ae78f21dd82fcd179","66620b3f935a58aa3430c5dd","null","","null","","","","","","","","./tasks/HMM-beads/Images/WhiteBeadChoiceCorrect.png","","","","","","","","","",""
"image-keyboard-response","199","362748","0.0-3.0-6.0-1.0-0.21","5c55b95b91c0ad0001cf86ab","6662009ae78f21dd82fcd179","66620b3f935a58aa3430c5dd","370","","j","","","","","","","","./tasks/HMM-beads/Images/NewTrialWC.png","lowH","1","21","1","1","1","1","true","",""
"image-keyboard-response","200","363050","0.0-3.0-6.0-1.0-1.21","5c55b95b91c0ad0001cf86ab","6662009ae78f21dd82fcd179","66620b3f935a58aa3430c5dd","null","","null","","","","","","","","./tasks/HMM-beads/Images/WhiteBeadChoice.png","","","","","","","","","",""
"image-keyboard-response","201","363556","0.0-3.0-6.0-1.0-2.21","5c55b95b91c0ad0001cf86ab","6662009ae78f21dd82fcd179","66620b3f935a58aa3430c5dd","null","","null","","","","","","","","./tasks/HMM-beads/Images/WhiteBeadChoiceCorrect.png","","","","","","","","","",""
"image-keyboard-response","202","363804","0.0-3.0-6.0-1.0-0.22","5c55b95b91c0ad0001cf86ab","6662009ae78f21dd82fcd179","66620b3f935a58aa3430c5dd","248","","j","","","","","","","","./tasks/HMM-beads/Images/NewTrialWC.png","lowH","1","22","1","1","1","1","true","",""
"image-keyboard-response","203","364106","0.0-3.0-6.0-1.0-1.22","5c55b95b91c0ad0001cf86ab","6662009ae78f21dd82fcd179","66620b3f935a58aa3430c5dd","null","","null","","","","","","","","./tasks/HMM-beads/Images/WhiteBeadChoice.png","","","","","","","","","",""
"image-keyboard-response","204","364612","0.0-3.0-6.0-1.0-2.22","5c55b95b91c0ad0001cf86ab","6662009ae78f21dd82fcd179","66620b3f935a58aa3430c5dd","null","","null","","","","","","","","./tasks/HMM-beads/Images/WhiteBeadChoiceCorrect.png","","","","","","","","","",""
"image-keyboard-response","205","364940","0.0-3.0-6.0-1.0-0.23","5c55b95b91c0ad0001cf86ab","6662009ae78f21dd82fcd179","66620b3f935a58aa3430c5dd","327","","j","","","","","","","","./tasks/HMM-beads/Images/NewTrialWC.png","lowH","1","23","1","1","1","1","true","",""
"image-keyboard-response","206","365246","0.0-3.0-6.0-1.0-1.23","5c55b95b91c0ad0001cf86ab","6662009ae78f21dd82fcd179","66620b3f935a58aa3430c5dd","null","","null","","","","","","","","./tasks/HMM-beads/Images/WhiteBeadChoice.png","","","","","","","","","",""
"image-keyboard-response","207","365748","0.0-3.0-6.0-1.0-2.23","5c55b95b91c0ad0001cf86ab","6662009ae78f21dd82fcd179","66620b3f935a58aa3430c5dd","null","","null","","","","","","","","./tasks/HMM-beads/Images/WhiteBeadChoiceCorrect.png","","","","","","","","","",""
"image-keyboard-response","208","366092","0.0-3.0-6.0-1.0-0.24","5c55b95b91c0ad0001cf86ab","6662009ae78f21dd82fcd179","66620b3f935a58aa3430c5dd","344","","j","","","","","","","","./tasks/HMM-beads/Images/NewTrialWC.png","lowH","1","24","1","0","1","1","false","",""
"image-keyboard-response","209","366394","0.0-3.0-6.0-1.0-1.24","5c55b95b91c0ad0001cf86ab","6662009ae78f21dd82fcd179","66620b3f935a58aa3430c5dd","null","","null","","","","","","","","./tasks/HMM-beads/Images/WhiteBeadChoice.png","","","","","","","","","",""
"image-keyboard-response","210","366899","0.0-3.0-6.0-1.0-2.24","5c55b95b91c0ad0001cf86ab","6662009ae78f21dd82fcd179","66620b3f935a58aa3430c5dd","null","","null","","","","","","","","./tasks/HMM-beads/Images/WhiteBeadChoiceWrong.png","","","","","","","","","",""
"image-keyboard-response","211","367212","0.0-3.0-6.0-1.0-0.25","5c55b95b91c0ad0001cf86ab","6662009ae78f21dd82fcd179","66620b3f935a58aa3430c5dd","312","","j","","","","","","","","./tasks/HMM-beads/Images/NewTrialBC.png","lowH","1","25","1","1","0","1","true","",""
"image-keyboard-response","212","367516","0.0-3.0-6.0-1.0-1.25","5c55b95b91c0ad0001cf86ab","6662009ae78f21dd82fcd179","66620b3f935a58aa3430c5dd","null","","null","","","","","","","","./tasks/HMM-beads/Images/WhiteBeadChoice.png","","","","","","","","","",""
"image-keyboard-response","213","368023","0.0-3.0-6.0-1.0-2.25","5c55b95b91c0ad0001cf86ab","6662009ae78f21dd82fcd179","66620b3f935a58aa3430c5dd","null","","null","","","","","","","","./tasks/HMM-beads/Images/WhiteBeadChoiceCorrect.png","","","","","","","","","",""
"image-keyboard-response","214","368364","0.0-3.0-6.0-1.0-0.26","5c55b95b91c0ad0001cf86ab","6662009ae78f21dd82fcd179","66620b3f935a58aa3430c5dd","340","","j","","","","","","","","./tasks/HMM-beads/Images/NewTrialWC.png","lowH","1","26","1","0","1","1","false","",""
"image-keyboard-response","215","368667","0.0-3.0-6.0-1.0-1.26","5c55b95b91c0ad0001cf86ab","6662009ae78f21dd82fcd179","66620b3f935a58aa3430c5dd","null","","null","","","","","","","","./tasks/HMM-beads/Images/WhiteBeadChoice.png","","","","","","","","","",""
"image-keyboard-response","216","369169","0.0-3.0-6.0-1.0-2.26","5c55b95b91c0ad0001cf86ab","6662009ae78f21dd82fcd179","66620b3f935a58aa3430c5dd","null","","null","","","","","","","","./tasks/HMM-beads/Images/WhiteBeadChoiceWrong.png","","","","","","","","","",""
"image-keyboard-response","217","369532","0.0-3.0-6.0-1.0-0.27","5c55b95b91c0ad0001cf86ab","6662009ae78f21dd82fcd179","66620b3f935a58aa3430c5dd","362","","j","","","","","","","","./tasks/HMM-beads/Images/NewTrialBC.png","lowH","1","27","1","1","0","1","true","",""
"image-keyboard-response","218","369834","0.0-3.0-6.0-1.0-1.27","5c55b95b91c0ad0001cf86ab","6662009ae78f21dd82fcd179","66620b3f935a58aa3430c5dd","null","","null","","","","","","","","./tasks/HMM-beads/Images/WhiteBeadChoice.png","","","","","","","","","",""
"image-keyboard-response","219","370335","0.0-3.0-6.0-1.0-2.27","5c55b95b91c0ad0001cf86ab","6662009ae78f21dd82fcd179","66620b3f935a58aa3430c5dd","null","","null","","","","","","","","./tasks/HMM-beads/Images/WhiteBeadChoiceCorrect.png","","","","","","","","","",""
"image-keyboard-response","220","370636","0.0-3.0-6.0-1.0-0.28","5c55b95b91c0ad0001cf86ab","6662009ae78f21dd82fcd179","66620b3f935a58aa3430c5dd","300","","j","","","","","","","","./tasks/HMM-beads/Images/NewTrialWC.png","lowH","1","28","1","1","1","1","true","",""
"image-keyboard-response","221","370938","0.0-3.0-6.0-1.0-1.28","5c55b95b91c0ad0001cf86ab","6662009ae78f21dd82fcd179","66620b3f935a58aa3430c5dd","null","","null","","","","","","","","./tasks/HMM-beads/Images/WhiteBeadChoice.png","","","","","","","","","",""
"image-keyboard-response","222","371444","0.0-3.0-6.0-1.0-2.28","5c55b95b91c0ad0001cf86ab","6662009ae78f21dd82fcd179","66620b3f935a58aa3430c5dd","null","","null","","","","","","","","./tasks/HMM-beads/Images/WhiteBeadChoiceCorrect.png","","","","","","","","","",""
"image-keyboard-response","223","371755","0.0-3.0-6.0-1.0-0.29","5c55b95b91c0ad0001cf86ab","6662009ae78f21dd82fcd179","66620b3f935a58aa3430c5dd","307","","j","","","","","","","","./tasks/HMM-beads/Images/NewTrialWC.png","lowH","1","29","1","1","1","1","true","",""
"image-keyboard-response","224","372058","0.0-3.0-6.0-1.0-1.29","5c55b95b91c0ad0001cf86ab","6662009ae78f21dd82fcd179","66620b3f935a58aa3430c5dd","null","","null","","","","","","","","./tasks/HMM-beads/Images/WhiteBeadChoice.png","","","","","","","","","",""
"image-keyboard-response","225","372563","0.0-3.0-6.0-1.0-2.29","5c55b95b91c0ad0001cf86ab","6662009ae78f21dd82fcd179","66620b3f935a58aa3430c5dd","null","","null","","","","","","","","./tasks/HMM-beads/Images/WhiteBeadChoiceCorrect.png","","","","","","","","","",""
"image-keyboard-response","226","372796","0.0-3.0-6.0-1.0-0.30","5c55b95b91c0ad0001cf86ab","6662009ae78f21dd82fcd179","66620b3f935a58aa3430c5dd","232","","j","","","","","","","","./tasks/HMM-beads/Images/NewTrialWC.png","lowH","1","30","1","1","1","1","true","",""
"image-keyboard-response","227","373097","0.0-3.0-6.0-1.0-1.30","5c55b95b91c0ad0001cf86ab","6662009ae78f21dd82fcd179","66620b3f935a58aa3430c5dd","null","","null","","","","","","","","./tasks/HMM-beads/Images/WhiteBeadChoice.png","","","","","","","","","",""
"image-keyboard-response","228","373603","0.0-3.0-6.0-1.0-2.30","5c55b95b91c0ad0001cf86ab","6662009ae78f21dd82fcd179","66620b3f935a58aa3430c5dd","null","","null","","","","","","","","./tasks/HMM-beads/Images/WhiteBeadChoiceCorrect.png","","","","","","","","","",""
"image-keyboard-response","229","373916","0.0-3.0-6.0-1.0-0.31","5c55b95b91c0ad0001cf86ab","6662009ae78f21dd82fcd179","66620b3f935a58aa3430c5dd","312","","j","","","","","","","","./tasks/HMM-beads/Images/NewTrialWC.png","lowH","1","31","1","1","1","1","true","",""
"image-keyboard-response","230","374221","0.0-3.0-6.0-1.0-1.31","5c55b95b91c0ad0001cf86ab","6662009ae78f21dd82fcd179","66620b3f935a58aa3430c5dd","null","","null","","","","","","","","./tasks/HMM-beads/Images/WhiteBeadChoice.png","","","","","","","","","",""
"image-keyboard-response","231","374722","0.0-3.0-6.0-1.0-2.31","5c55b95b91c0ad0001cf86ab","6662009ae78f21dd82fcd179","66620b3f935a58aa3430c5dd","null","","null","","","","","","","","./tasks/HMM-beads/Images/WhiteBeadChoiceCorrect.png","","","","","","","","","",""
"image-keyboard-response","232","375084","0.0-3.0-6.0-1.0-0.32","5c55b95b91c0ad0001cf86ab","6662009ae78f21dd82fcd179","66620b3f935a58aa3430c5dd","361","","j","","","","","","","","./tasks/HMM-beads/Images/NewTrialWC.png","lowH","1","32","1","1","1","1","true","",""
"image-keyboard-response","233","375388","0.0-3.0-6.0-1.0-1.32","5c55b95b91c0ad0001cf86ab","6662009ae78f21dd82fcd179","66620b3f935a58aa3430c5dd","null","","null","","","","","","","","./tasks/HMM-beads/Images/WhiteBeadChoice.png","","","","","","","","","",""
"image-keyboard-response","234","375895","0.0-3.0-6.0-1.0-2.32","5c55b95b91c0ad0001cf86ab","6662009ae78f21dd82fcd179","66620b3f935a58aa3430c5dd","null","","null","","","","","","","","./tasks/HMM-beads/Images/WhiteBeadChoiceCorrect.png","","","","","","","","","",""
"image-keyboard-response","235","376123","0.0-3.0-6.0-1.0-0.33","5c55b95b91c0ad0001cf86ab","6662009ae78f21dd82fcd179","66620b3f935a58aa3430c5dd","228","","j","","","","","","","","./tasks/HMM-beads/Images/NewTrialWC.png","lowH","1","33","1","1","1","1","true","",""
"image-keyboard-response","236","376430","0.0-3.0-6.0-1.0-1.33","5c55b95b91c0ad0001cf86ab","6662009ae78f21dd82fcd179","66620b3f935a58aa3430c5dd","null","","null","","","","","","","","./tasks/HMM-beads/Images/WhiteBeadChoice.png","","","","","","","","","",""
"image-keyboard-response","237","376933","0.0-3.0-6.0-1.0-2.33","5c55b95b91c0ad0001cf86ab","6662009ae78f21dd82fcd179","66620b3f935a58aa3430c5dd","null","","null","","","","","","","","./tasks/HMM-beads/Images/WhiteBeadChoiceCorrect.png","","","","","","","","","",""
"image-keyboard-response","238","377212","0.0-3.0-6.0-1.0-0.34","5c55b95b91c0ad0001cf86ab","6662009ae78f21dd82fcd179","66620b3f935a58aa3430c5dd","278","","j","","","","","","","","./tasks/HMM-beads/Images/NewTrialWC.png","lowH","1","34","1","1","1","1","true","",""
"image-keyboard-response","239","377513","0.0-3.0-6.0-1.0-1.34","5c55b95b91c0ad0001cf86ab","6662009ae78f21dd82fcd179","66620b3f935a58aa3430c5dd","null","","null","","","","","","","","./tasks/HMM-beads/Images/WhiteBeadChoice.png","","","","","","","","","",""
"image-keyboard-response","240","378020","0.0-3.0-6.0-1.0-2.34","5c55b95b91c0ad0001cf86ab","6662009ae78f21dd82fcd179","66620b3f935a58aa3430c5dd","null","","null","","","","","","","","./tasks/HMM-beads/Images/WhiteBeadChoiceCorrect.png","","","","","","","","","",""
"image-keyboard-response","241","378268","0.0-3.0-6.0-1.0-0.35","5c55b95b91c0ad0001cf86ab","6662009ae78f21dd82fcd179","66620b3f935a58aa3430c5dd","247","","j","","","","","","","","./tasks/HMM-beads/Images/NewTrialWC.png","lowH","1","35","1","1","1","1","true","",""
"image-keyboard-response","242","378569","0.0-3.0-6.0-1.0-1.35","5c55b95b91c0ad0001cf86ab","6662009ae78f21dd82fcd179","66620b3f935a58aa3430c5dd","null","","null","","","","","","","","./tasks/HMM-beads/Images/WhiteBeadChoice.png","","","","","","","","","",""
"image-keyboard-response","243","379075","0.0-3.0-6.0-1.0-2.35","5c55b95b91c0ad0001cf86ab","6662009ae78f21dd82fcd179","66620b3f935a58aa3430c5dd","null","","null","","","","","","","","./tasks/HMM-beads/Images/WhiteBeadChoiceCorrect.png","","","","","","","","","",""
"image-keyboard-response","244","379323","0.0-3.0-6.0-1.0-0.36","5c55b95b91c0ad0001cf86ab","6662009ae78f21dd82fcd179","66620b3f935a58aa3430c5dd","248","","j","","","","","","","","./tasks/HMM-beads/Images/NewTrialWC.png","lowH","1","36","1","1","1","1","true","",""
"image-keyboard-response","245","379625","0.0-3.0-6.0-1.0-1.36","5c55b95b91c0ad0001cf86ab","6662009ae78f21dd82fcd179","66620b3f935a58aa3430c5dd","null","","null","","","","","","","","./tasks/HMM-beads/Images/WhiteBeadChoice.png","","","","","","","","","",""
"image-keyboard-response","246","380130","0.0-3.0-6.0-1.0-2.36","5c55b95b91c0ad0001cf86ab","6662009ae78f21dd82fcd179","66620b3f935a58aa3430c5dd","null","","null","","","","","","","","./tasks/HMM-beads/Images/WhiteBeadChoiceCorrect.png","","","","","","","","","",""
"image-keyboard-response","247","380444","0.0-3.0-6.0-1.0-0.37","5c55b95b91c0ad0001cf86ab","6662009ae78f21dd82fcd179","66620b3f935a58aa3430c5dd","313","","j","","","","","","","","./tasks/HMM-beads/Images/NewTrialWC.png","lowH","1","37","1","1","1","1","true","",""
"image-keyboard-response","248","380746","0.0-3.0-6.0-1.0-1.37","5c55b95b91c0ad0001cf86ab","6662009ae78f21dd82fcd179","66620b3f935a58aa3430c5dd","null","","null","","","","","","","","./tasks/HMM-beads/Images/WhiteBeadChoice.png","","","","","","","","","",""
"image-keyboard-response","249","381256","0.0-3.0-6.0-1.0-2.37","5c55b95b91c0ad0001cf86ab","6662009ae78f21dd82fcd179","66620b3f935a58aa3430c5dd","null","","null","","","","","","","","./tasks/HMM-beads/Images/WhiteBeadChoiceCorrect.png","","","","","","","","","",""
"image-keyboard-response","250","381595","0.0-3.0-6.0-1.0-0.38","5c55b95b91c0ad0001cf86ab","6662009ae78f21dd82fcd179","66620b3f935a58aa3430c5dd","339","","j","","","","","","","","./tasks/HMM-beads/Images/NewTrialWC.png","lowH","1","38","1","1","1","1","true","",""
"image-keyboard-response","251","381898","0.0-3.0-6.0-1.0-1.38","5c55b95b91c0ad0001cf86ab","6662009ae78f21dd82fcd179","66620b3f935a58aa3430c5dd","null","","null","","","","","","","","./tasks/HMM-beads/Images/WhiteBeadChoice.png","","","","","","","","","",""
"image-keyboard-response","252","382404","0.0-3.0-6.0-1.0-2.38","5c55b95b91c0ad0001cf86ab","6662009ae78f21dd82fcd179","66620b3f935a58aa3430c5dd","null","","null","","","","","","","","./tasks/HMM-beads/Images/WhiteBeadChoiceCorrect.png","","","","","","","","","",""
"image-keyboard-response","253","382667","0.0-3.0-6.0-1.0-0.39","5c55b95b91c0ad0001cf86ab","6662009ae78f21dd82fcd179","66620b3f935a58aa3430c5dd","262","","j","","","","","","","","./tasks/HMM-beads/Images/NewTrialWC.png","lowH","1","39","1","1","1","1","true","",""
"image-keyboard-response","254","382969","0.0-3.0-6.0-1.0-1.39","5c55b95b91c0ad0001cf86ab","6662009ae78f21dd82fcd179","66620b3f935a58aa3430c5dd","null","","null","","","","","","","","./tasks/HMM-beads/Images/WhiteBeadChoice.png","","","","","","","","","",""
"image-keyboard-response","255","383475","0.0-3.0-6.0-1.0-2.39","5c55b95b91c0ad0001cf86ab","6662009ae78f21dd82fcd179","66620b3f935a58aa3430c5dd","null","","null","","","","","","","","./tasks/HMM-beads/Images/WhiteBeadChoiceCorrect.png","","","","","","","","","",""
"image-keyboard-response","256","383611","0.0-3.0-6.0-1.0-0.40","5c55b95b91c0ad0001cf86ab","6662009ae78f21dd82fcd179","66620b3f935a58aa3430c5dd","135","","j","","","","","","","","./tasks/HMM-beads/Images/NewTrialWC.png","lowH","1","40","1","1","1","1","true","",""
"image-keyboard-response","257","383912","0.0-3.0-6.0-1.0-1.40","5c55b95b91c0ad0001cf86ab","6662009ae78f21dd82fcd179","66620b3f935a58aa3430c5dd","null","","null","","","","","","","","./tasks/HMM-beads/Images/WhiteBeadChoice.png","","","","","","","","","",""
"image-keyboard-response","258","384417","0.0-3.0-6.0-1.0-2.40","5c55b95b91c0ad0001cf86ab","6662009ae78f21dd82fcd179","66620b3f935a58aa3430c5dd","null","","null","","","","","","","","./tasks/HMM-beads/Images/WhiteBeadChoiceCorrect.png","","","","","","","","","",""
"image-keyboard-response","259","384635","0.0-3.0-6.0-1.0-0.41","5c55b95b91c0ad0001cf86ab","6662009ae78f21dd82fcd179","66620b3f935a58aa3430c5dd","218","","j","","","","","","","","./tasks/HMM-beads/Images/NewTrialWC.png","lowH","1","41","1","1","1","1","true","",""
"image-keyboard-response","260","384937","0.0-3.0-6.0-1.0-1.41","5c55b95b91c0ad0001cf86ab","6662009ae78f21dd82fcd179","66620b3f935a58aa3430c5dd","null","","null","","","","","","","","./tasks/HMM-beads/Images/WhiteBeadChoice.png","","","","","","","","","",""
"image-keyboard-response","261","385443","0.0-3.0-6.0-1.0-2.41","5c55b95b91c0ad0001cf86ab","6662009ae78f21dd82fcd179","66620b3f935a58aa3430c5dd","null","","null","","","","","","","","./tasks/HMM-beads/Images/WhiteBeadChoiceCorrect.png","","","","","","","","","",""
"image-keyboard-response","262","385803","0.0-3.0-6.0-1.0-0.42","5c55b95b91c0ad0001cf86ab","6662009ae78f21dd82fcd179","66620b3f935a58aa3430c5dd","360","","j","","","","","","","","./tasks/HMM-beads/Images/NewTrialWC.png","lowH","1","42","1","1","1","1","true","",""
"image-keyboard-response","263","386106","0.0-3.0-6.0-1.0-1.42","5c55b95b91c0ad0001cf86ab","6662009ae78f21dd82fcd179","66620b3f935a58aa3430c5dd","null","","null","","","","","","","","./tasks/HMM-beads/Images/WhiteBeadChoice.png","","","","","","","","","",""
"image-keyboard-response","264","386612","0.0-3.0-6.0-1.0-2.42","5c55b95b91c0ad0001cf86ab","6662009ae78f21dd82fcd179","66620b3f935a58aa3430c5dd","null","","null","","","","","","","","./tasks/HMM-beads/Images/WhiteBeadChoiceCorrect.png","","","","","","","","","",""
"image-keyboard-response","265","387051","0.0-3.0-6.0-1.0-0.43","5c55b95b91c0ad0001cf86ab","6662009ae78f21dd82fcd179","66620b3f935a58aa3430c5dd","438","","j","","","","","","","","./tasks/HMM-beads/Images/NewTrialWC.png","lowH","1","43","1","1","1","1","true","",""
"image-keyboard-response","266","387353","0.0-3.0-6.0-1.0-1.43","5c55b95b91c0ad0001cf86ab","6662009ae78f21dd82fcd179","66620b3f935a58aa3430c5dd","null","","null","","","","","","","","./tasks/HMM-beads/Images/WhiteBeadChoice.png","","","","","","","","","",""
"image-keyboard-response","267","387859","0.0-3.0-6.0-1.0-2.43","5c55b95b91c0ad0001cf86ab","6662009ae78f21dd82fcd179","66620b3f935a58aa3430c5dd","null","","null","","","","","","","","./tasks/HMM-beads/Images/WhiteBeadChoiceCorrect.png","","","","","","","","","",""
"image-keyboard-response","268","388123","0.0-3.0-6.0-1.0-0.44","5c55b95b91c0ad0001cf86ab","6662009ae78f21dd82fcd179","66620b3f935a58aa3430c5dd","263","","j","","","","","","","","./tasks/HMM-beads/Images/NewTrialWC.png","lowH","1","44","1","1","1","1","true","",""
"image-keyboard-response","269","388426","0.0-3.0-6.0-1.0-1.44","5c55b95b91c0ad0001cf86ab","6662009ae78f21dd82fcd179","66620b3f935a58aa3430c5dd","null","","null","","","","","","","","./tasks/HMM-beads/Images/WhiteBeadChoice.png","","","","","","","","","",""
"image-keyboard-response","270","388931","0.0-3.0-6.0-1.0-2.44","5c55b95b91c0ad0001cf86ab","6662009ae78f21dd82fcd179","66620b3f935a58aa3430c5dd","null","","null","","","","","","","","./tasks/HMM-beads/Images/WhiteBeadChoiceCorrect.png","","","","","","","","","",""
"image-keyboard-response","271","389403","0.0-3.0-6.0-1.0-0.45","5c55b95b91c0ad0001cf86ab","6662009ae78f21dd82fcd179","66620b3f935a58aa3430c5dd","472","","j","","","","","","","","./tasks/HMM-beads/Images/NewTrialWC.png","lowH","1","45","1","1","1","1","true","",""
"image-keyboard-response","272","389705","0.0-3.0-6.0-1.0-1.45","5c55b95b91c0ad0001cf86ab","6662009ae78f21dd82fcd179","66620b3f935a58aa3430c5dd","null","","null","","","","","","","","./tasks/HMM-beads/Images/WhiteBeadChoice.png","","","","","","","","","",""
"image-keyboard-response","273","390212","0.0-3.0-6.0-1.0-2.45","5c55b95b91c0ad0001cf86ab","6662009ae78f21dd82fcd179","66620b3f935a58aa3430c5dd","null","","null","","","","","","","","./tasks/HMM-beads/Images/WhiteBeadChoiceCorrect.png","","","","","","","","","",""
"image-keyboard-response","274","390475","0.0-3.0-6.0-1.0-0.46","5c55b95b91c0ad0001cf86ab","6662009ae78f21dd82fcd179","66620b3f935a58aa3430c5dd","263","","j","","","","","","","","./tasks/HMM-beads/Images/NewTrialWC.png","lowH","1","46","1","1","1","1","true","",""
"image-keyboard-response","275","390783","0.0-3.0-6.0-1.0-1.46","5c55b95b91c0ad0001cf86ab","6662009ae78f21dd82fcd179","66620b3f935a58aa3430c5dd","null","","null","","","","","","","","./tasks/HMM-beads/Images/WhiteBeadChoice.png","","","","","","","","","",""
"image-keyboard-response","276","391284","0.0-3.0-6.0-1.0-2.46","5c55b95b91c0ad0001cf86ab","6662009ae78f21dd82fcd179","66620b3f935a58aa3430c5dd","null","","null","","","","","","","","./tasks/HMM-beads/Images/WhiteBeadChoiceCorrect.png","","","","","","","","","",""
"image-keyboard-response","277","391547","0.0-3.0-6.0-1.0-0.47","5c55b95b91c0ad0001cf86ab","6662009ae78f21dd82fcd179","66620b3f935a58aa3430c5dd","262","","j","","","","","","","","./tasks/HMM-beads/Images/NewTrialWC.png","lowH","1","47","1","0","1","1","false","",""
"image-keyboard-response","278","391852","0.0-3.0-6.0-1.0-1.47","5c55b95b91c0ad0001cf86ab","6662009ae78f21dd82fcd179","66620b3f935a58aa3430c5dd","null","","null","","","","","","","","./tasks/HMM-beads/Images/WhiteBeadChoice.png","","","","","","","","","",""
"image-keyboard-response","279","392354","0.0-3.0-6.0-1.0-2.47","5c55b95b91c0ad0001cf86ab","6662009ae78f21dd82fcd179","66620b3f935a58aa3430c5dd","null","","null","","","","","","","","./tasks/HMM-beads/Images/WhiteBeadChoiceWrong.png","","","","","","","","","",""
"image-keyboard-response","280","392667","0.0-3.0-6.0-1.0-0.48","5c55b95b91c0ad0001cf86ab","6662009ae78f21dd82fcd179","66620b3f935a58aa3430c5dd","312","","j","","","","","","","","./tasks/HMM-beads/Images/NewTrialBC.png","lowH","1","48","1","0","0","1","false","",""
"image-keyboard-response","281","392969","0.0-3.0-6.0-1.0-1.48","5c55b95b91c0ad0001cf86ab","6662009ae78f21dd82fcd179","66620b3f935a58aa3430c5dd","null","","null","","","","","","","","./tasks/HMM-beads/Images/WhiteBeadChoice.png","","","","","","","","","",""
"image-keyboard-response","282","393475","0.0-3.0-6.0-1.0-2.48","5c55b95b91c0ad0001cf86ab","6662009ae78f21dd82fcd179","66620b3f935a58aa3430c5dd","null","","null","","","","","","","","./tasks/HMM-beads/Images/WhiteBeadChoiceWrong.png","","","","","","","","","",""
"image-keyboard-response","283","393867","0.0-3.0-6.0-1.0-0.49","5c55b95b91c0ad0001cf86ab","6662009ae78f21dd82fcd179","66620b3f935a58aa3430c5dd","392","","j","","","","","","","","./tasks/HMM-beads/Images/NewTrialBC.png","lowH","1","49","1","0","0","1","false","",""
"image-keyboard-response","284","394170","0.0-3.0-6.0-1.0-1.49","5c55b95b91c0ad0001cf86ab","6662009ae78f21dd82fcd179","66620b3f935a58aa3430c5dd","null","","null","","","","","","","","./tasks/HMM-beads/Images/WhiteBeadChoice.png","","","","","","","","","",""
"image-keyboard-response","285","394671","0.0-3.0-6.0-1.0-2.49","5c55b95b91c0ad0001cf86ab","6662009ae78f21dd82fcd179","66620b3f935a58aa3430c5dd","null","","null","","","","","","","","./tasks/HMM-beads/Images/WhiteBeadChoiceWrong.png","","","","","","","","","",""
"image-keyboard-response","286","394939","0.0-3.0-6.0-1.0-0.50","5c55b95b91c0ad0001cf86ab","6662009ae78f21dd82fcd179","66620b3f935a58aa3430c5dd","267","","f","","","","","","","","./tasks/HMM-beads/Images/NewTrialBC.png","lowH","1","50","1","1","0","0","false","",""
"image-keyboard-response","287","395241","0.0-3.0-6.0-1.0-1.50","5c55b95b91c0ad0001cf86ab","6662009ae78f21dd82fcd179","66620b3f935a58aa3430c5dd","null","","null","","","","","","","","./tasks/HMM-beads/Images/BlackBeadChoice.png","","","","","","","","","",""
"image-keyboard-response","288","395751","0.0-3.0-6.0-1.0-2.50","5c55b95b91c0ad0001cf86ab","6662009ae78f21dd82fcd179","66620b3f935a58aa3430c5dd","null","","null","","","","","","","","./tasks/HMM-beads/Images/BlackBeadChoiceWrong.png","","","","","","","","","",""
"image-keyboard-response","289","396331","0.0-3.0-6.0-1.0-0.51","5c55b95b91c0ad0001cf86ab","6662009ae78f21dd82fcd179","66620b3f935a58aa3430c5dd","579","","f","","","","","","","","./tasks/HMM-beads/Images/NewTrialWC.png","lowH","1","51","1","1","1","0","false","",""
"image-keyboard-response","290","396632","0.0-3.0-6.0-1.0-1.51","5c55b95b91c0ad0001cf86ab","6662009ae78f21dd82fcd179","66620b3f935a58aa3430c5dd","null","","null","","","","","","","","./tasks/HMM-beads/Images/BlackBeadChoice.png","","","","","","","","","",""
"image-keyboard-response","291","397137","0.0-3.0-6.0-1.0-2.51","5c55b95b91c0ad0001cf86ab","6662009ae78f21dd82fcd179","66620b3f935a58aa3430c5dd","null","","null","","","","","","","","./tasks/HMM-beads/Images/BlackBeadChoiceWrong.png","","","","","","","","","",""
"image-keyboard-response","292","397467","0.0-3.0-6.0-1.0-0.52","5c55b95b91c0ad0001cf86ab","6662009ae78f21dd82fcd179","66620b3f935a58aa3430c5dd","329","","j","","","","","","","","./tasks/HMM-beads/Images/NewTrialWC.png","lowH","1","52","1","1","1","1","true","",""
"image-keyboard-response","293","397773","0.0-3.0-6.0-1.0-1.52","5c55b95b91c0ad0001cf86ab","6662009ae78f21dd82fcd179","66620b3f935a58aa3430c5dd","null","","null","","","","","","","","./tasks/HMM-beads/Images/WhiteBeadChoice.png","","","","","","","","","",""
"image-keyboard-response","294","398278","0.0-3.0-6.0-1.0-2.52","5c55b95b91c0ad0001cf86ab","6662009ae78f21dd82fcd179","66620b3f935a58aa3430c5dd","null","","null","","","","","","","","./tasks/HMM-beads/Images/WhiteBeadChoiceCorrect.png","","","","","","","","","",""
"image-keyboard-response","295","398746","0.0-3.0-6.0-1.0-0.53","5c55b95b91c0ad0001cf86ab","6662009ae78f21dd82fcd179","66620b3f935a58aa3430c5dd","468","","j","","","","","","","","./tasks/HMM-beads/Images/NewTrialWC.png","lowH","1","53","1","1","1","1","true","",""
"image-keyboard-response","296","399052","0.0-3.0-6.0-1.0-1.53","5c55b95b91c0ad0001cf86ab","6662009ae78f21dd82fcd179","66620b3f935a58aa3430c5dd","null","","null","","","","","","","","./tasks/HMM-beads/Images/WhiteBeadChoice.png","","","","","","","","","",""
"image-keyboard-response","297","399558","0.0-3.0-6.0-1.0-2.53","5c55b95b91c0ad0001cf86ab","6662009ae78f21dd82fcd179","66620b3f935a58aa3430c5dd","null","","null","","","","","","","","./tasks/HMM-beads/Images/WhiteBeadChoiceCorrect.png","","","","","","","","","",""
"image-keyboard-response","298","399883","0.0-3.0-6.0-1.0-0.54","5c55b95b91c0ad0001cf86ab","6662009ae78f21dd82fcd179","66620b3f935a58aa3430c5dd","325","","j","","","","","","","","./tasks/HMM-beads/Images/NewTrialWC.png","lowH","1","54","1","1","1","1","true","",""
"image-keyboard-response","299","400185","0.0-3.0-6.0-1.0-1.54","5c55b95b91c0ad0001cf86ab","6662009ae78f21dd82fcd179","66620b3f935a58aa3430c5dd","null","","null","","","","","","","","./tasks/HMM-beads/Images/WhiteBeadChoice.png","","","","","","","","","",""
"image-keyboard-response","300","400691","0.0-3.0-6.0-1.0-2.54","5c55b95b91c0ad0001cf86ab","6662009ae78f21dd82fcd179","66620b3f935a58aa3430c5dd","null","","null","","","","","","","","./tasks/HMM-beads/Images/WhiteBeadChoiceCorrect.png","","","","","","","","","",""
"image-keyboard-response","301","401099","0.0-3.0-6.0-1.0-0.55","5c55b95b91c0ad0001cf86ab","6662009ae78f21dd82fcd179","66620b3f935a58aa3430c5dd","403","","j","","","","","","","","./tasks/HMM-beads/Images/NewTrialWC.png","lowH","1","55","1","1","1","1","true","",""
"image-keyboard-response","302","401403","0.0-3.0-6.0-1.0-1.55","5c55b95b91c0ad0001cf86ab","6662009ae78f21dd82fcd179","66620b3f935a58aa3430c5dd","null","","null","","","","","","","","./tasks/HMM-beads/Images/WhiteBeadChoice.png","","","","","","","","","",""
"image-keyboard-response","303","401909","0.0-3.0-6.0-1.0-2.55","5c55b95b91c0ad0001cf86ab","6662009ae78f21dd82fcd179","66620b3f935a58aa3430c5dd","null","","null","","","","","","","","./tasks/HMM-beads/Images/WhiteBeadChoiceCorrect.png","","","","","","","","","",""
"image-keyboard-response","304","402235","0.0-3.0-6.0-1.0-0.56","5c55b95b91c0ad0001cf86ab","6662009ae78f21dd82fcd179","66620b3f935a58aa3430c5dd","325","","j","","","","","","","","./tasks/HMM-beads/Images/NewTrialWC.png","lowH","1","56","1","1","1","1","true","",""
"image-keyboard-response","305","402537","0.0-3.0-6.0-1.0-1.56","5c55b95b91c0ad0001cf86ab","6662009ae78f21dd82fcd179","66620b3f935a58aa3430c5dd","null","","null","","","","","","","","./tasks/HMM-beads/Images/WhiteBeadChoice.png","","","","","","","","","",""
"image-keyboard-response","306","403043","0.0-3.0-6.0-1.0-2.56","5c55b95b91c0ad0001cf86ab","6662009ae78f21dd82fcd179","66620b3f935a58aa3430c5dd","null","","null","","","","","","","","./tasks/HMM-beads/Images/WhiteBeadChoiceCorrect.png","","","","","","","","","",""
"image-keyboard-response","307","403259","0.0-3.0-6.0-1.0-0.57","5c55b95b91c0ad0001cf86ab","6662009ae78f21dd82fcd179","66620b3f935a58aa3430c5dd","215","","j","","","","","","","","./tasks/HMM-beads/Images/NewTrialWC.png","lowH","1","57","1","1","1","1","true","",""
"image-keyboard-response","308","403561","0.0-3.0-6.0-1.0-1.57","5c55b95b91c0ad0001cf86ab","6662009ae78f21dd82fcd179","66620b3f935a58aa3430c5dd","null","","null","","","","","","","","./tasks/HMM-beads/Images/WhiteBeadChoice.png","","","","","","","","","",""
"image-keyboard-response","309","404065","0.0-3.0-6.0-1.0-2.57","5c55b95b91c0ad0001cf86ab","6662009ae78f21dd82fcd179","66620b3f935a58aa3430c5dd","null","","null","","","","","","","","./tasks/HMM-beads/Images/WhiteBeadChoiceCorrect.png","","","","","","","","","",""
"image-keyboard-response","310","404331","0.0-3.0-6.0-1.0-0.58","5c55b95b91c0ad0001cf86ab","6662009ae78f21dd82fcd179","66620b3f935a58aa3430c5dd","265","","j","","","","","","","","./tasks/HMM-beads/Images/NewTrialWC.png","lowH","1","58","1","1","1","1","true","",""
"image-keyboard-response","311","404637","0.0-3.0-6.0-1.0-1.58","5c55b95b91c0ad0001cf86ab","6662009ae78f21dd82fcd179","66620b3f935a58aa3430c5dd","null","","null","","","","","","","","./tasks/HMM-beads/Images/WhiteBeadChoice.png","","","","","","","","","",""
"image-keyboard-response","312","405143","0.0-3.0-6.0-1.0-2.58","5c55b95b91c0ad0001cf86ab","6662009ae78f21dd82fcd179","66620b3f935a58aa3430c5dd","null","","null","","","","","","","","./tasks/HMM-beads/Images/WhiteBeadChoiceCorrect.png","","","","","","","","","",""
"image-keyboard-response","313","405323","0.0-3.0-6.0-1.0-0.59","5c55b95b91c0ad0001cf86ab","6662009ae78f21dd82fcd179","66620b3f935a58aa3430c5dd","179","","j","","","","","","","","./tasks/HMM-beads/Images/NewTrialWC.png","lowH","1","59","1","0","1","1","false","",""
"image-keyboard-response","314","405629","0.0-3.0-6.0-1.0-1.59","5c55b95b91c0ad0001cf86ab","6662009ae78f21dd82fcd179","66620b3f935a58aa3430c5dd","null","","null","","","","","","","","./tasks/HMM-beads/Images/WhiteBeadChoice.png","","","","","","","","","",""
"image-keyboard-response","315","406130","0.0-3.0-6.0-1.0-2.59","5c55b95b91c0ad0001cf86ab","6662009ae78f21dd82fcd179","66620b3f935a58aa3430c5dd","null","","null","","","","","","","","./tasks/HMM-beads/Images/WhiteBeadChoiceWrong.png","","","","","","","","","",""
"image-keyboard-response","316","406395","0.0-3.0-6.0-1.0-0.60","5c55b95b91c0ad0001cf86ab","6662009ae78f21dd82fcd179","66620b3f935a58aa3430c5dd","264","","j","","","","","","","","./tasks/HMM-beads/Images/NewTrialBC.png","lowH","1","60","1","1","0","1","true","",""
"image-keyboard-response","317","406698","0.0-3.0-6.0-1.0-1.60","5c55b95b91c0ad0001cf86ab","6662009ae78f21dd82fcd179","66620b3f935a58aa3430c5dd","null","","null","","","","","","","","./tasks/HMM-beads/Images/WhiteBeadChoice.png","","","","","","","","","",""
"image-keyboard-response","318","407204","0.0-3.0-6.0-1.0-2.60","5c55b95b91c0ad0001cf86ab","6662009ae78f21dd82fcd179","66620b3f935a58aa3430c5dd","null","","null","","","","","","","","./tasks/HMM-beads/Images/WhiteBeadChoiceCorrect.png","","","","","","","","","",""
"image-keyboard-response","319","407435","0.0-3.0-6.0-1.0-0.61","5c55b95b91c0ad0001cf86ab","6662009ae78f21dd82fcd179","66620b3f935a58aa3430c5dd","230","","j","","","","","","","","./tasks/HMM-beads/Images/NewTrialWC.png","lowH","1","61","1","1","1","1","true","",""
"image-keyboard-response","320","407741","0.0-3.0-6.0-1.0-1.61","5c55b95b91c0ad0001cf86ab","6662009ae78f21dd82fcd179","66620b3f935a58aa3430c5dd","null","","null","","","","","","","","./tasks/HMM-beads/Images/WhiteBeadChoice.png","","","","","","","","","",""
"image-keyboard-response","321","408247","0.0-3.0-6.0-1.0-2.61","5c55b95b91c0ad0001cf86ab","6662009ae78f21dd82fcd179","66620b3f935a58aa3430c5dd","null","","null","","","","","","","","./tasks/HMM-beads/Images/WhiteBeadChoiceCorrect.png","","","","","","","","","",""
"image-keyboard-response","322","408427","0.0-3.0-6.0-1.0-0.62","5c55b95b91c0ad0001cf86ab","6662009ae78f21dd82fcd179","66620b3f935a58aa3430c5dd","179","","j","","","","","","","","./tasks/HMM-beads/Images/NewTrialWC.png","lowH","1","62","1","0","1","1","false","",""
"image-keyboard-response","323","408732","0.0-3.0-6.0-1.0-1.62","5c55b95b91c0ad0001cf86ab","6662009ae78f21dd82fcd179","66620b3f935a58aa3430c5dd","null","","null","","","","","","","","./tasks/HMM-beads/Images/WhiteBeadChoice.png","","","","","","","","","",""
"image-keyboard-response","324","409233","0.0-3.0-6.0-1.0-2.62","5c55b95b91c0ad0001cf86ab","6662009ae78f21dd82fcd179","66620b3f935a58aa3430c5dd","null","","null","","","","","","","","./tasks/HMM-beads/Images/WhiteBeadChoiceWrong.png","","","","","","","","","",""
"image-keyboard-response","325","409467","0.0-3.0-6.0-1.0-0.63","5c55b95b91c0ad0001cf86ab","6662009ae78f21dd82fcd179","66620b3f935a58aa3430c5dd","234","","j","","","","","","","","./tasks/HMM-beads/Images/NewTrialBC.png","lowH","1","63","1","1","0","1","true","",""
"image-keyboard-response","326","409772","0.0-3.0-6.0-1.0-1.63","5c55b95b91c0ad0001cf86ab","6662009ae78f21dd82fcd179","66620b3f935a58aa3430c5dd","null","","null","","","","","","","","./tasks/HMM-beads/Images/WhiteBeadChoice.png","","","","","","","","","",""
"image-keyboard-response","327","410282","0.0-3.0-6.0-1.0-2.63","5c55b95b91c0ad0001cf86ab","6662009ae78f21dd82fcd179","66620b3f935a58aa3430c5dd","null","","null","","","","","","","","./tasks/HMM-beads/Images/WhiteBeadChoiceCorrect.png","","","","","","","","","",""
"image-keyboard-response","328","410571","0.0-3.0-6.0-1.0-0.64","5c55b95b91c0ad0001cf86ab","6662009ae78f21dd82fcd179","66620b3f935a58aa3430c5dd","288","","j","","","","","","","","./tasks/HMM-beads/Images/NewTrialWC.png","lowH","1","64","1","1","1","1","true","",""
"image-keyboard-response","329","410877","0.0-3.0-6.0-1.0-1.64","5c55b95b91c0ad0001cf86ab","6662009ae78f21dd82fcd179","66620b3f935a58aa3430c5dd","null","","null","","","","","","","","./tasks/HMM-beads/Images/WhiteBeadChoice.png","","","","","","","","","",""
"image-keyboard-response","330","411383","0.0-3.0-6.0-1.0-2.64","5c55b95b91c0ad0001cf86ab","6662009ae78f21dd82fcd179","66620b3f935a58aa3430c5dd","null","","null","","","","","","","","./tasks/HMM-beads/Images/WhiteBeadChoiceCorrect.png","","","","","","","","","",""
"image-keyboard-response","331","411611","0.0-3.0-6.0-1.0-0.65","5c55b95b91c0ad0001cf86ab","6662009ae78f21dd82fcd179","66620b3f935a58aa3430c5dd","227","","j","","","","","","","","./tasks/HMM-beads/Images/NewTrialWC.png","lowH","1","65","1","1","1","1","true","",""
"image-keyboard-response","332","411913","0.0-3.0-6.0-1.0-1.65","5c55b95b91c0ad0001cf86ab","6662009ae78f21dd82fcd179","66620b3f935a58aa3430c5dd","null","","null","","","","","","","","./tasks/HMM-beads/Images/WhiteBeadChoice.png","","","","","","","","","",""
"image-keyboard-response","333","412418","0.0-3.0-6.0-1.0-2.65","5c55b95b91c0ad0001cf86ab","6662009ae78f21dd82fcd179","66620b3f935a58aa3430c5dd","null","","null","","","","","","","","./tasks/HMM-beads/Images/WhiteBeadChoiceCorrect.png","","","","","","","","","",""
"image-keyboard-response","334","412683","0.0-3.0-6.0-1.0-0.66","5c55b95b91c0ad0001cf86ab","6662009ae78f21dd82fcd179","66620b3f935a58aa3430c5dd","264","","j","","","","","","","","./tasks/HMM-beads/Images/NewTrialWC.png","lowH","1","66","1","1","1","1","true","",""
"image-keyboard-response","335","412985","0.0-3.0-6.0-1.0-1.66","5c55b95b91c0ad0001cf86ab","6662009ae78f21dd82fcd179","66620b3f935a58aa3430c5dd","null","","null","","","","","","","","./tasks/HMM-beads/Images/WhiteBeadChoice.png","","","","","","","","","",""
"image-keyboard-response","336","413486","0.0-3.0-6.0-1.0-2.66","5c55b95b91c0ad0001cf86ab","6662009ae78f21dd82fcd179","66620b3f935a58aa3430c5dd","null","","null","","","","","","","","./tasks/HMM-beads/Images/WhiteBeadChoiceCorrect.png","","","","","","","","","",""
"image-keyboard-response","337","413771","0.0-3.0-6.0-1.0-0.67","5c55b95b91c0ad0001cf86ab","6662009ae78f21dd82fcd179","66620b3f935a58aa3430c5dd","284","","j","","","","","","","","./tasks/HMM-beads/Images/NewTrialWC.png","lowH","1","67","1","0","1","1","false","",""
"image-keyboard-response","338","414073","0.0-3.0-6.0-1.0-1.67","5c55b95b91c0ad0001cf86ab","6662009ae78f21dd82fcd179","66620b3f935a58aa3430c5dd","null","","null","","","","","","","","./tasks/HMM-beads/Images/WhiteBeadChoice.png","","","","","","","","","",""
"image-keyboard-response","339","414580","0.0-3.0-6.0-1.0-2.67","5c55b95b91c0ad0001cf86ab","6662009ae78f21dd82fcd179","66620b3f935a58aa3430c5dd","null","","null","","","","","","","","./tasks/HMM-beads/Images/WhiteBeadChoiceWrong.png","","","","","","","","","",""
"image-keyboard-response","340","414763","0.0-3.0-6.0-1.0-0.68","5c55b95b91c0ad0001cf86ab","6662009ae78f21dd82fcd179","66620b3f935a58aa3430c5dd","182","","j","","","","","","","","./tasks/HMM-beads/Images/NewTrialBC.png","lowH","1","68","1","1","0","1","true","",""
"image-keyboard-response","341","415065","0.0-3.0-6.0-1.0-1.68","5c55b95b91c0ad0001cf86ab","6662009ae78f21dd82fcd179","66620b3f935a58aa3430c5dd","null","","null","","","","","","","","./tasks/HMM-beads/Images/WhiteBeadChoice.png","","","","","","","","","",""
"image-keyboard-response","342","415571","0.0-3.0-6.0-1.0-2.68","5c55b95b91c0ad0001cf86ab","6662009ae78f21dd82fcd179","66620b3f935a58aa3430c5dd","null","","null","","","","","","","","./tasks/HMM-beads/Images/WhiteBeadChoiceCorrect.png","","","","","","","","","",""
"image-keyboard-response","343","415931","0.0-3.0-6.0-1.0-0.69","5c55b95b91c0ad0001cf86ab","6662009ae78f21dd82fcd179","66620b3f935a58aa3430c5dd","359","","j","","","","","","","","./tasks/HMM-beads/Images/NewTrialWC.png","lowH","1","69","0","1","1","1","true","",""
"image-keyboard-response","344","416237","0.0-3.0-6.0-1.0-1.69","5c55b95b91c0ad0001cf86ab","6662009ae78f21dd82fcd179","66620b3f935a58aa3430c5dd","null","","null","","","","","","","","./tasks/HMM-beads/Images/WhiteBeadChoice.png","","","","","","","","","",""
"image-keyboard-response","345","416738","0.0-3.0-6.0-1.0-2.69","5c55b95b91c0ad0001cf86ab","6662009ae78f21dd82fcd179","66620b3f935a58aa3430c5dd","null","","null","","","","","","","","./tasks/HMM-beads/Images/WhiteBeadChoiceCorrect.png","","","","","","","","","",""
"image-keyboard-response","346","417003","0.0-3.0-6.0-1.0-0.70","5c55b95b91c0ad0001cf86ab","6662009ae78f21dd82fcd179","66620b3f935a58aa3430c5dd","264","","j","","","","","","","","./tasks/HMM-beads/Images/NewTrialWC.png","lowH","1","70","0","1","1","1","true","",""
"image-keyboard-response","347","417305","0.0-3.0-6.0-1.0-1.70","5c55b95b91c0ad0001cf86ab","6662009ae78f21dd82fcd179","66620b3f935a58aa3430c5dd","null","","null","","","","","","","","./tasks/HMM-beads/Images/WhiteBeadChoice.png","","","","","","","","","",""
"image-keyboard-response","348","417806","0.0-3.0-6.0-1.0-2.70","5c55b95b91c0ad0001cf86ab","6662009ae78f21dd82fcd179","66620b3f935a58aa3430c5dd","null","","null","","","","","","","","./tasks/HMM-beads/Images/WhiteBeadChoiceCorrect.png","","","","","","","","","",""
"image-keyboard-response","349","418043","0.0-3.0-6.0-1.0-0.71","5c55b95b91c0ad0001cf86ab","6662009ae78f21dd82fcd179","66620b3f935a58aa3430c5dd","236","","j","","","","","","","","./tasks/HMM-beads/Images/NewTrialWC.png","lowH","1","71","0","0","1","1","false","",""
"image-keyboard-response","350","418345","0.0-3.0-6.0-1.0-1.71","5c55b95b91c0ad0001cf86ab","6662009ae78f21dd82fcd179","66620b3f935a58aa3430c5dd","null","","null","","","","","","","","./tasks/HMM-beads/Images/WhiteBeadChoice.png","","","","","","","","","",""
"image-keyboard-response","351","418846","0.0-3.0-6.0-1.0-2.71","5c55b95b91c0ad0001cf86ab","6662009ae78f21dd82fcd179","66620b3f935a58aa3430c5dd","null","","null","","","","","","","","./tasks/HMM-beads/Images/WhiteBeadChoiceWrong.png","","","","","","","","","",""
"image-keyboard-response","352","419099","0.0-3.0-6.0-1.0-0.72","5c55b95b91c0ad0001cf86ab","6662009ae78f21dd82fcd179","66620b3f935a58aa3430c5dd","252","","j","","","","","","","","./tasks/HMM-beads/Images/NewTrialBC.png","lowH","1","72","0","0","0","1","false","",""
"image-keyboard-response","353","419407","0.0-3.0-6.0-1.0-1.72","5c55b95b91c0ad0001cf86ab","6662009ae78f21dd82fcd179","66620b3f935a58aa3430c5dd","null","","null","","","","","","","","./tasks/HMM-beads/Images/WhiteBeadChoice.png","","","","","","","","","",""
"image-keyboard-response","354","419913","0.0-3.0-6.0-1.0-2.72","5c55b95b91c0ad0001cf86ab","6662009ae78f21dd82fcd179","66620b3f935a58aa3430c5dd","null","","null","","","","","","","","./tasks/HMM-beads/Images/WhiteBeadChoiceWrong.png","","","","","","","","","",""
"image-keyboard-response","355","420251","0.0-3.0-6.0-1.0-0.73","5c55b95b91c0ad0001cf86ab","6662009ae78f21dd82fcd179","66620b3f935a58aa3430c5dd","337","","j","","","","","","","","./tasks/HMM-beads/Images/NewTrialBC.png","lowH","1","73","0","1","0","1","true","",""
"image-keyboard-response","356","420557","0.0-3.0-6.0-1.0-1.73","5c55b95b91c0ad0001cf86ab","6662009ae78f21dd82fcd179","66620b3f935a58aa3430c5dd","null","","null","","","","","","","","./tasks/HMM-beads/Images/WhiteBeadChoice.png","","","","","","","","","",""
"image-keyboard-response","357","421058","0.0-3.0-6.0-1.0-2.73","5c55b95b91c0ad0001cf86ab","6662009ae78f21dd82fcd179","66620b3f935a58aa3430c5dd","null","","null","","","","","","","","./tasks/HMM-beads/Images/WhiteBeadChoiceCorrect.png","","","","","","","","","",""
"image-keyboard-response","358","421355","0.0-3.0-6.0-1.0-0.74","5c55b95b91c0ad0001cf86ab","6662009ae78f21dd82fcd179","66620b3f935a58aa3430c5dd","296","","j","","","","","","","","./tasks/HMM-beads/Images/NewTrialWC.png","lowH","1","74","0","0","1","1","false","",""
"image-keyboard-response","359","421659","0.0-3.0-6.0-1.0-1.74","5c55b95b91c0ad0001cf86ab","6662009ae78f21dd82fcd179","66620b3f935a58aa3430c5dd","null","","null","","","","","","","","./tasks/HMM-beads/Images/WhiteBeadChoice.png","","","","","","","","","",""
"image-keyboard-response","360","422160","0.0-3.0-6.0-1.0-2.74","5c55b95b91c0ad0001cf86ab","6662009ae78f21dd82fcd179","66620b3f935a58aa3430c5dd","null","","null","","","","","","","","./tasks/HMM-beads/Images/WhiteBeadChoiceWrong.png","","","","","","","","","",""
"image-keyboard-response","361","422571","0.0-3.0-6.0-1.0-0.75","5c55b95b91c0ad0001cf86ab","6662009ae78f21dd82fcd179","66620b3f935a58aa3430c5dd","410","","j","","","","","","","","./tasks/HMM-beads/Images/NewTrialBC.png","lowH","1","75","0","1","0","1","true","",""
"image-keyboard-response","362","422872","0.0-3.0-6.0-1.0-1.75","5c55b95b91c0ad0001cf86ab","6662009ae78f21dd82fcd179","66620b3f935a58aa3430c5dd","null","","null","","","","","","","","./tasks/HMM-beads/Images/WhiteBeadChoice.png","","","","","","","","","",""
"image-keyboard-response","363","423377","0.0-3.0-6.0-1.0-2.75","5c55b95b91c0ad0001cf86ab","6662009ae78f21dd82fcd179","66620b3f935a58aa3430c5dd","null","","null","","","","","","","","./tasks/HMM-beads/Images/WhiteBeadChoiceCorrect.png","","","","","","","","","",""
"image-keyboard-response","364","423722","0.0-3.0-6.0-1.0-0.76","5c55b95b91c0ad0001cf86ab","6662009ae78f21dd82fcd179","66620b3f935a58aa3430c5dd","345","","j","","","","","","","","./tasks/HMM-beads/Images/NewTrialWC.png","lowH","1","76","0","1","1","1","true","",""
"image-keyboard-response","365","424024","0.0-3.0-6.0-1.0-1.76","5c55b95b91c0ad0001cf86ab","6662009ae78f21dd82fcd179","66620b3f935a58aa3430c5dd","null","","null","","","","","","","","./tasks/HMM-beads/Images/WhiteBeadChoice.png","","","","","","","","","",""
"image-keyboard-response","366","424535","0.0-3.0-6.0-1.0-2.76","5c55b95b91c0ad0001cf86ab","6662009ae78f21dd82fcd179","66620b3f935a58aa3430c5dd","null","","null","","","","","","","","./tasks/HMM-beads/Images/WhiteBeadChoiceCorrect.png","","","","","","","","","",""
"image-keyboard-response","367","424842","0.0-3.0-6.0-1.0-0.77","5c55b95b91c0ad0001cf86ab","6662009ae78f21dd82fcd179","66620b3f935a58aa3430c5dd","307","","j","","","","","","","","./tasks/HMM-beads/Images/NewTrialWC.png","lowH","1","77","0","0","1","1","false","",""
"image-keyboard-response","368","425145","0.0-3.0-6.0-1.0-1.77","5c55b95b91c0ad0001cf86ab","6662009ae78f21dd82fcd179","66620b3f935a58aa3430c5dd","null","","null","","","","","","","","./tasks/HMM-beads/Images/WhiteBeadChoice.png","","","","","","","","","",""
"image-keyboard-response","369","425646","0.0-3.0-6.0-1.0-2.77","5c55b95b91c0ad0001cf86ab","6662009ae78f21dd82fcd179","66620b3f935a58aa3430c5dd","null","","null","","","","","","","","./tasks/HMM-beads/Images/WhiteBeadChoiceWrong.png","","","","","","","","","",""
"image-keyboard-response","370","425898","0.0-3.0-6.0-1.0-0.78","5c55b95b91c0ad0001cf86ab","6662009ae78f21dd82fcd179","66620b3f935a58aa3430c5dd","252","","j","","","","","","","","./tasks/HMM-beads/Images/NewTrialBC.png","lowH","1","78","0","0","0","1","false","",""
"image-keyboard-response","371","426204","0.0-3.0-6.0-1.0-1.78","5c55b95b91c0ad0001cf86ab","6662009ae78f21dd82fcd179","66620b3f935a58aa3430c5dd","null","","null","","","","","","","","./tasks/HMM-beads/Images/WhiteBeadChoice.png","","","","","","","","","",""
"image-keyboard-response","372","426711","0.0-3.0-6.0-1.0-2.78","5c55b95b91c0ad0001cf86ab","6662009ae78f21dd82fcd179","66620b3f935a58aa3430c5dd","null","","null","","","","","","","","./tasks/HMM-beads/Images/WhiteBeadChoiceWrong.png","","","","","","","","","",""
"image-keyboard-response","373","427082","0.0-3.0-6.0-1.0-0.79","5c55b95b91c0ad0001cf86ab","6662009ae78f21dd82fcd179","66620b3f935a58aa3430c5dd","371","","j","","","","","","","","./tasks/HMM-beads/Images/NewTrialBC.png","lowH","1","79","0","0","0","1","false","",""
"image-keyboard-response","374","427389","0.0-3.0-6.0-1.0-1.79","5c55b95b91c0ad0001cf86ab","6662009ae78f21dd82fcd179","66620b3f935a58aa3430c5dd","null","","null","","","","","","","","./tasks/HMM-beads/Images/WhiteBeadChoice.png","","","","","","","","","",""
