subject_ID,subject_index,exclude_Ixr,trial_ID,trial_index,observation_1,observation_2,observation_3,observation_4,observation_5,latent_state,optimal_choice,correct,intertrial_duration,trial_start_time,choice,rt,observation_encoding,observation_encoding_ew,observation_encoding_iw
67047fbe4a73fb7c0e482271,30.0,0.0,413.0,0.0,3.0,1.0,2.0,3.0,1.0,2.0,2.0,1.0,0.848,1875.9838,2.0,0.1026,212.0,23,2.0
67047fbe4a73fb7c0e482271,30.0,0.0,379.0,1.0,2.0,1.0,3.0,1.0,2.0,2.0,2.0,1.0,0.7788,1879.0514,2.0,0.2404,122.0,14,2.0
67047fbe4a73fb7c0e482271,30.0,0.0,489.0,2.0,2.0,1.0,3.0,2.0,3.0,2.0,2.0,1.0,0.6796,1881.7468,2.0,0.2399,221.0,23,1.0
67047fbe4a73fb7c0e482271,30.0,0.0,273.0,3.0,4.0,4.0,3.0,3.0,3.0,1.0,1.0,1.0,0.4796,1887.477,1.0,0.3299,2300.0,50,2000.0
67047fbe4a73fb7c0e482271,30.0,0.0,260.0,4.0,4.0,3.0,3.0,3.0,3.0,1.0,1.0,1.0,0.5325,1890.0343,1.0,0.3432,1400.0,50,1000.0
67047fbe4a73fb7c0e482271,30.0,0.0,467.0,5.0,1.0,2.0,2.0,3.0,2.0,2.0,2.0,1.0,0.6752,1892.5459,2.0,0.1542,131.0,14,1.0
67047fbe4a73fb7c0e482271,30.0,0.0,196.0,6.0,4.0,3.0,3.0,2.0,3.0,1.0,1.0,1.0,3.3166,1894.9961,1.0,0.2558,1310.0,41,1000.0
67047fbe4a73fb7c0e482271,30.0,0.0,430.0,7.0,2.0,2.0,1.0,2.0,2.0,2.0,2.0,1.0,0.9216,1900.2294,2.0,0.0012,41.0,5,1.0
67047fbe4a73fb7c0e482271,30.0,0.0,354.0,8.0,1.0,1.0,2.0,2.0,2.0,2.0,2.0,1.0,0.8043,1902.8247,2.0,0.0017,32.0,5,2.0
67047fbe4a73fb7c0e482271,30.0,0.0,159.0,9.0,3.0,2.0,3.0,3.0,3.0,1.0,1.0,1.0,0.6299,1905.3015,1.0,0.0375,410.0,41,410.0
67047fbe4a73fb7c0e482271,30.0,0.0,463.0,10.0,1.0,2.0,2.0,3.0,2.0,2.0,2.0,1.0,0.6657,1907.6469,2.0,0.3992,131.0,14,1.0
67047fbe4a73fb7c0e482271,30.0,0.0,589.0,11.0,2.0,2.0,3.0,3.0,3.0,2.0,1.0,0.0,0.8539,1910.3816,1.0,0.0012,320.0,32,320.0
67047fbe4a73fb7c0e482271,30.0,0.0,403.0,12.0,3.0,1.0,2.0,3.0,1.0,2.0,2.0,1.0,0.6658,1917.8444,2.0,0.1672,212.0,23,2.0
67047fbe4a73fb7c0e482271,30.0,0.0,294.0,13.0,4.0,4.0,4.0,3.0,3.0,1.0,1.0,1.0,0.5144,1920.3981,1.0,0.4192,3200.0,50,3000.0
67047fbe4a73fb7c0e482271,30.0,0.0,409.0,14.0,3.0,1.0,2.0,3.0,1.0,2.0,2.0,1.0,2.1887,1922.9912,2.0,0.3471,212.0,23,2.0
67047fbe4a73fb7c0e482271,30.0,0.0,247.0,15.0,3.0,4.0,4.0,4.0,2.0,1.0,1.0,1.0,0.5116,1927.1899,1.0,0.2411,3110.0,41,3000.0
67047fbe4a73fb7c0e482271,30.0,0.0,517.0,16.0,1.0,3.0,3.0,3.0,2.0,2.0,2.0,1.0,0.5881,1929.6114,2.0,0.0015,311.0,32,1.0
67047fbe4a73fb7c0e482271,30.0,0.0,472.0,17.0,1.0,2.0,2.0,3.0,2.0,2.0,2.0,1.0,0.6877,1931.8841,2.0,0.2331,131.0,14,1.0
67047fbe4a73fb7c0e482271,30.0,0.0,464.0,18.0,1.0,2.0,2.0,3.0,2.0,2.0,2.0,1.0,0.5547,1934.4921,2.0,0.2425,131.0,14,1.0
67047fbe4a73fb7c0e482271,30.0,0.0,477.0,19.0,2.0,1.0,3.0,2.0,3.0,2.0,2.0,1.0,0.8953,1936.9473,2.0,0.3672,221.0,23,1.0
67047fbe4a73fb7c0e482271,30.0,0.0,53.0,20.0,4.0,2.0,2.0,2.0,3.0,1.0,1.0,1.0,3.334,1939.8805,1.0,0.3657,1130.0,23,1000.0
67047fbe4a73fb7c0e482271,30.0,0.0,522.0,21.0,1.0,3.0,3.0,3.0,2.0,2.0,2.0,1.0,0.6618,1945.2311,2.0,0.3993,311.0,32,1.0
67047fbe4a73fb7c0e482271,30.0,0.0,492.0,22.0,2.0,1.0,3.0,2.0,3.0,2.0,2.0,1.0,0.5155,1947.961,2.0,0.2997,221.0,23,1.0
67047fbe4a73fb7c0e482271,30.0,0.0,562.0,23.0,2.0,3.0,2.0,2.0,3.0,2.0,2.0,1.0,0.5783,1950.4304,2.0,0.2784,230.0,23,230.0
67047fbe4a73fb7c0e482271,30.0,0.0,227.0,24.0,3.0,3.0,4.0,4.0,2.0,1.0,1.0,1.0,0.6351,1952.9101,1.0,0.0013,2210.0,41,2000.0
67047fbe4a73fb7c0e482271,30.0,0.0,597.0,25.0,2.0,3.0,3.0,3.0,3.0,2.0,1.0,0.0,0.6962,1958.4866,1.0,0.0008,410.0,41,410.0
67047fbe4a73fb7c0e482271,30.0,0.0,462.0,26.0,1.0,2.0,2.0,3.0,2.0,2.0,2.0,1.0,0.7081,1960.9305,2.0,0.2055,131.0,14,1.0
67047fbe4a73fb7c0e482271,30.0,0.0,318.0,27.0,1.0,1.0,3.0,1.0,2.0,2.0,2.0,1.0,0.6863,1963.6174,2.0,0.2523,113.0,14,3.0
67047fbe4a73fb7c0e482271,30.0,0.0,111.0,28.0,2.0,4.0,3.0,2.0,3.0,1.0,1.0,1.0,0.8104,1970.8694,1.0,0.1026,1220.0,32,1000.0
67047fbe4a73fb7c0e482271,30.0,0.0,122.0,29.0,2.0,4.0,3.0,2.0,3.0,1.0,1.0,1.0,0.9838,1976.3995,1.0,0.1726,1220.0,32,1000.0
67047fbe4a73fb7c0e482271,30.0,0.0,14.0,30.0,3.0,2.0,4.0,3.0,1.0,1.0,1.0,0.0,2.9934,1979.3024,2.0,0.3998,1211.0,32,1001.0
67047fbe4a73fb7c0e482271,30.0,0.0,375.0,31.0,2.0,1.0,3.0,1.0,2.0,2.0,2.0,1.0,0.7067,1984.4363,2.0,0.241,122.0,14,2.0
67047fbe4a73fb7c0e482271,30.0,0.0,521.0,32.0,1.0,3.0,3.0,3.0,2.0,2.0,2.0,1.0,0.6914,1987.1319,2.0,0.1683,311.0,32,1.0
67047fbe4a73fb7c0e482271,30.0,0.0,398.0,33.0,3.0,1.0,2.0,3.0,1.0,2.0,2.0,1.0,0.898,1989.6686,2.0,0.112,212.0,23,2.0
67047fbe4a73fb7c0e482271,30.0,0.0,429.0,34.0,2.0,2.0,1.0,2.0,2.0,2.0,2.0,1.0,0.5752,1992.3968,2.0,0.2123,41.0,5,1.0
67047fbe4a73fb7c0e482271,30.0,0.0,482.0,35.0,2.0,1.0,3.0,2.0,3.0,2.0,2.0,1.0,0.5644,1994.8588,2.0,0.3689,221.0,23,1.0
67047fbe4a73fb7c0e482271,30.0,0.0,563.0,36.0,2.0,3.0,2.0,2.0,3.0,2.0,2.0,0.0,1.1884,1997.4547,1.0,0.3757,230.0,23,230.0
67047fbe4a73fb7c0e482271,30.0,0.0,3.0,37.0,2.0,2.0,1.0,3.0,3.0,1.0,2.0,0.0,0.9774,2000.7887,2.0,0.2448,221.0,23,1.0
67047fbe4a73fb7c0e482271,30.0,0.0,352.0,38.0,1.0,1.0,2.0,2.0,2.0,2.0,2.0,1.0,0.657,2003.7089,2.0,0.3095,32.0,5,2.0
67047fbe4a73fb7c0e482271,30.0,0.0,443.0,39.0,1.0,2.0,2.0,3.0,2.0,2.0,2.0,1.0,0.8271,2009.6457,2.0,0.1816,131.0,14,1.0
67047fbe4a73fb7c0e482271,30.0,0.0,282.0,40.0,4.0,4.0,3.0,3.0,3.0,1.0,1.0,0.0,0.8594,2012.3976,2.0,0.2382,2300.0,50,2000.0
67047fbe4a73fb7c0e482271,30.0,0.0,150.0,41.0,2.0,4.0,2.0,4.0,4.0,1.0,1.0,1.0,0.7562,2015.2398,1.0,0.4338,3020.0,32,3000.0
67047fbe4a73fb7c0e482271,30.0,0.0,225.0,42.0,3.0,3.0,4.0,4.0,2.0,1.0,1.0,1.0,0.7321,2018.1371,1.0,0.0985,2210.0,41,2000.0
67047fbe4a73fb7c0e482271,30.0,0.0,508.0,43.0,2.0,1.0,3.0,2.0,3.0,2.0,2.0,1.0,0.688,2020.6271,2.0,0.099,221.0,23,1.0
67047fbe4a73fb7c0e482271,30.0,0.0,61.0,44.0,4.0,2.0,2.0,2.0,3.0,1.0,1.0,0.0,0.7788,2023.0829,2.0,0.0013,1130.0,23,1000.0
67047fbe4a73fb7c0e482271,30.0,0.0,453.0,45.0,1.0,2.0,2.0,3.0,2.0,2.0,2.0,1.0,0.6432,2025.5625,2.0,0.334,131.0,14,1.0
67047fbe4a73fb7c0e482271,30.0,0.0,559.0,46.0,2.0,3.0,2.0,2.0,3.0,2.0,2.0,1.0,0.7208,2028.2737,2.0,0.2172,230.0,23,230.0
67047fbe4a73fb7c0e482271,30.0,0.0,570.0,47.0,2.0,3.0,2.0,2.0,3.0,2.0,2.0,1.0,0.789,2035.8353,2.0,0.2703,230.0,23,230.0
67047fbe4a73fb7c0e482271,30.0,0.0,137.0,48.0,4.0,3.0,2.0,2.0,4.0,1.0,1.0,1.0,0.7971,2038.6279,1.0,0.0013,2120.0,32,2000.0
67047fbe4a73fb7c0e482271,30.0,0.0,242.0,49.0,3.0,4.0,4.0,4.0,2.0,1.0,1.0,1.0,0.8466,2041.0928,1.0,0.0561,3110.0,41,3000.0
67047fbe4a73fb7c0e482271,30.0,0.0,232.0,50.0,3.0,3.0,4.0,4.0,2.0,1.0,1.0,1.0,0.6159,2043.6399,1.0,0.2012,2210.0,41,2000.0
67047fbe4a73fb7c0e482271,30.0,0.0,151.0,51.0,3.0,2.0,3.0,3.0,3.0,1.0,1.0,1.0,0.4763,2046.1111,1.0,0.135,410.0,41,410.0
67047fbe4a73fb7c0e482271,30.0,0.0,300.0,52.0,4.0,3.0,4.0,4.0,4.0,1.0,1.0,1.0,0.5985,2048.3551,1.0,0.336,4100.0,50,4000.0
67047fbe4a73fb7c0e482271,30.0,0.0,80.0,53.0,2.0,3.0,3.0,2.0,3.0,1.0,1.0,1.0,3.2963,2050.9605,1.0,0.0012,320.0,32,320.0
67047fbe4a73fb7c0e482271,30.0,0.0,348.0,54.0,1.0,1.0,2.0,2.0,2.0,2.0,2.0,1.0,0.7081,2055.9058,2.0,0.0014,32.0,5,2.0
67047fbe4a73fb7c0e482271,30.0,0.0,434.0,55.0,2.0,2.0,1.0,2.0,2.0,2.0,2.0,1.0,0.6699,2058.2937,2.0,0.0342,41.0,5,1.0
67047fbe4a73fb7c0e482271,30.0,0.0,264.0,56.0,4.0,3.0,3.0,3.0,3.0,1.0,1.0,1.0,0.6086,2060.6527,1.0,0.0013,1400.0,50,1000.0
67047fbe4a73fb7c0e482271,30.0,0.0,82.0,57.0,2.0,3.0,3.0,2.0,3.0,1.0,1.0,1.0,0.5317,2062.9191,1.0,0.0386,320.0,32,320.0
67047fbe4a73fb7c0e482271,30.0,0.0,266.0,58.0,4.0,3.0,3.0,3.0,3.0,1.0,1.0,1.0,0.3289,2065.147,1.0,0.1055,1400.0,50,1000.0
67047fbe4a73fb7c0e482271,30.0,0.0,229.0,59.0,3.0,3.0,4.0,4.0,2.0,1.0,1.0,1.0,0.468,2067.2602,1.0,0.0328,2210.0,41,2000.0
67047fbe4a73fb7c0e482271,30.0,0.0,267.0,60.0,4.0,3.0,3.0,3.0,3.0,1.0,1.0,1.0,0.4705,2069.4294,1.0,0.0012,1400.0,50,1000.0
67047fbe4a73fb7c0e482271,30.0,0.0,55.0,61.0,4.0,2.0,2.0,2.0,3.0,1.0,1.0,1.0,0.3309,2071.5462,1.0,0.1042,1130.0,23,1000.0
67047fbe4a73fb7c0e482271,30.0,0.0,62.0,62.0,4.0,2.0,2.0,2.0,3.0,1.0,1.0,1.0,0.4361,2073.6287,1.0,0.103,1130.0,23,1000.0
67047fbe4a73fb7c0e482271,30.0,0.0,65.0,63.0,2.0,2.0,4.0,2.0,4.0,1.0,1.0,1.0,0.4008,2075.8292,1.0,0.1346,2030.0,23,2000.0
67047fbe4a73fb7c0e482271,30.0,0.0,576.0,64.0,2.0,3.0,2.0,2.0,3.0,2.0,2.0,0.0,0.9631,2078.0296,1.0,0.1061,230.0,23,230.0
67047fbe4a73fb7c0e482271,30.0,0.0,313.0,65.0,1.0,1.0,2.0,1.0,2.0,2.0,2.0,1.0,0.5289,2080.8103,2.0,0.0356,23.0,5,3.0
67047fbe4a73fb7c0e482271,30.0,0.0,457.0,66.0,1.0,2.0,2.0,3.0,2.0,2.0,2.0,1.0,0.4988,2083.0927,2.0,0.07,131.0,14,1.0
67047fbe4a73fb7c0e482271,30.0,0.0,480.0,67.0,2.0,1.0,3.0,2.0,3.0,2.0,2.0,1.0,0.4006,2085.31,2.0,0.0361,221.0,23,1.0
67047fbe4a73fb7c0e482271,30.0,0.0,33.0,68.0,2.0,2.0,3.0,2.0,2.0,1.0,2.0,1.0,0.5142,2087.3933,1.0,0.0671,140.0,14,140.0
67047fbe4a73fb7c0e482271,30.0,0.0,537.0,69.0,3.0,3.0,3.0,3.0,1.0,2.0,2.0,1.0,0.5036,2089.6412,2.0,0.0765,401.0,41,1.0
67047fbe4a73fb7c0e482271,30.0,0.0,369.0,70.0,2.0,1.0,3.0,1.0,2.0,2.0,2.0,1.0,0.1341,2091.8954,2.0,0.1345,122.0,14,2.0
67047fbe4a73fb7c0e482271,30.0,0.0,102.0,71.0,2.0,4.0,3.0,2.0,3.0,1.0,1.0,1.0,2.4849,2093.8264,1.0,0.0357,1220.0,32,1000.0
67047fbe4a73fb7c0e482271,30.0,0.0,415.0,72.0,3.0,1.0,2.0,3.0,1.0,2.0,2.0,1.0,0.4986,2097.997,2.0,0.0331,212.0,23,2.0
67047fbe4a73fb7c0e482271,30.0,0.0,39.0,73.0,2.0,2.0,3.0,3.0,2.0,1.0,2.0,1.0,0.5848,2100.1931,1.0,0.1337,230.0,23,230.0
67047fbe4a73fb7c0e482271,30.0,0.0,406.0,74.0,3.0,1.0,2.0,3.0,1.0,2.0,2.0,1.0,0.4356,2102.5779,2.0,0.0994,212.0,23,2.0
67047fbe4a73fb7c0e482271,30.0,0.0,473.0,75.0,1.0,2.0,2.0,3.0,2.0,2.0,2.0,1.0,0.4174,2104.7623,2.0,0.133,131.0,14,1.0
67047fbe4a73fb7c0e482271,30.0,0.0,534.0,76.0,3.0,2.0,3.0,1.0,4.0,2.0,1.0,0.0,0.8136,2106.9765,1.0,0.0325,1211.0,32,1001.0
67047fbe4a73fb7c0e482271,30.0,0.0,370.0,77.0,2.0,1.0,3.0,1.0,2.0,2.0,2.0,1.0,0.5057,2109.5337,2.0,0.0323,122.0,14,2.0
67047fbe4a73fb7c0e482271,30.0,0.0,540.0,78.0,2.0,2.0,2.0,2.0,2.0,2.0,2.0,1.0,0.4417,2111.7621,2.0,0.0336,50.0,5,50.0
67047fbe4a73fb7c0e482271,30.0,0.0,265.0,79.0,4.0,3.0,3.0,3.0,3.0,1.0,1.0,1.0,0.432,2113.9027,1.0,0.0362,1400.0,50,1000.0
67047fbe4a73fb7c0e482271,30.0,0.0,544.0,80.0,2.0,2.0,3.0,2.0,2.0,2.0,2.0,1.0,0.7301,2116.0433,2.0,0.203,140.0,14,140.0
67047fbe4a73fb7c0e482271,30.0,0.0,458.0,81.0,1.0,2.0,2.0,3.0,2.0,2.0,2.0,1.0,0.4703,2118.642,2.0,0.1054,131.0,14,1.0
67047fbe4a73fb7c0e482271,30.0,0.0,16.0,82.0,3.0,2.0,4.0,3.0,1.0,1.0,1.0,0.0,0.7454,2120.8792,2.0,0.133,1211.0,32,1001.0
67047fbe4a73fb7c0e482271,30.0,0.0,261.0,83.0,4.0,3.0,3.0,3.0,3.0,1.0,1.0,1.0,0.5048,2128.0299,1.0,0.0678,1400.0,50,1000.0
67047fbe4a73fb7c0e482271,30.0,0.0,182.0,84.0,4.0,3.0,3.0,2.0,3.0,1.0,1.0,1.0,0.4541,2130.3267,1.0,0.0326,1310.0,41,1000.0
67047fbe4a73fb7c0e482271,30.0,0.0,84.0,85.0,2.0,3.0,3.0,2.0,3.0,1.0,1.0,1.0,0.5862,2132.463,1.0,0.0356,320.0,32,320.0
67047fbe4a73fb7c0e482271,30.0,0.0,516.0,86.0,2.0,3.0,4.0,2.0,1.0,2.0,2.0,1.0,0.7128,2134.7286,2.0,0.113,1121.0,23,1001.0
67047fbe4a73fb7c0e482271,30.0,0.0,270.0,87.0,4.0,4.0,3.0,3.0,3.0,1.0,1.0,1.0,0.4672,2137.1766,1.0,0.135,2300.0,50,2000.0
67047fbe4a73fb7c0e482271,30.0,0.0,330.0,88.0,1.0,1.0,3.0,1.0,2.0,2.0,2.0,1.0,0.337,2139.4457,2.0,0.0387,113.0,14,3.0
67047fbe4a73fb7c0e482271,30.0,0.0,235.0,89.0,3.0,4.0,4.0,4.0,2.0,1.0,1.0,1.0,1.7864,2141.4457,1.0,0.3439,3110.0,41,3000.0
67047fbe4a73fb7c0e482271,30.0,0.0,268.0,90.0,4.0,3.0,3.0,3.0,3.0,1.0,1.0,1.0,0.4816,2145.2449,1.0,0.0365,1400.0,50,1000.0
67047fbe4a73fb7c0e482271,30.0,0.0,590.0,91.0,2.0,2.0,3.0,3.0,3.0,2.0,1.0,1.0,0.6682,2147.3922,2.0,0.0014,320.0,32,320.0
67047fbe4a73fb7c0e482271,30.0,0.0,427.0,92.0,2.0,2.0,1.0,2.0,2.0,2.0,2.0,1.0,0.6007,2149.712,2.0,0.1324,41.0,5,1.0
67047fbe4a73fb7c0e482271,30.0,0.0,93.0,93.0,2.0,4.0,3.0,2.0,3.0,1.0,1.0,1.0,0.5269,2152.0956,1.0,0.0018,1220.0,32,1000.0
67047fbe4a73fb7c0e482271,30.0,0.0,192.0,94.0,4.0,3.0,3.0,2.0,3.0,1.0,1.0,1.0,0.5027,2154.2925,1.0,0.0331,1310.0,41,1000.0
67047fbe4a73fb7c0e482271,30.0,0.0,114.0,95.0,2.0,4.0,3.0,2.0,3.0,1.0,1.0,1.0,1.4361,2156.4783,1.0,0.0015,1220.0,32,1000.0
67047fbe4a73fb7c0e482271,30.0,0.0,599.0,96.0,2.0,4.0,3.0,3.0,3.0,2.0,1.0,0.0,1.2021,2159.5786,1.0,0.0672,1310.0,41,1000.0
67047fbe4a73fb7c0e482271,30.0,0.0,478.0,97.0,2.0,1.0,3.0,2.0,3.0,2.0,2.0,1.0,0.4768,2162.5756,2.0,0.1048,221.0,23,1.0
67047fbe4a73fb7c0e482271,30.0,0.0,241.0,98.0,3.0,4.0,4.0,4.0,2.0,1.0,1.0,1.0,0.5338,2164.8795,1.0,0.0989,3110.0,41,3000.0
67047fbe4a73fb7c0e482271,30.0,0.0,135.0,99.0,4.0,3.0,2.0,2.0,4.0,1.0,1.0,1.0,0.5342,2167.1591,1.0,0.0674,2120.0,32,2000.0
67047fbe4a73fb7c0e482271,30.0,0.0,212.0,100.0,3.0,3.0,4.0,4.0,2.0,1.0,1.0,1.0,0.5862,2169.429,1.0,0.1002,2210.0,41,2000.0
67047fbe4a73fb7c0e482271,30.0,0.0,132.0,101.0,4.0,3.0,2.0,2.0,4.0,1.0,1.0,1.0,3.8033,2171.7646,1.0,0.0658,2120.0,32,2000.0
67047fbe4a73fb7c0e482271,30.0,0.0,146.0,102.0,2.0,4.0,2.0,4.0,4.0,1.0,1.0,1.0,1.2422,2177.2958,1.0,0.0013,3020.0,32,3000.0
67047fbe4a73fb7c0e482271,30.0,0.0,276.0,103.0,4.0,4.0,3.0,3.0,3.0,1.0,1.0,1.0,0.5247,2180.1876,1.0,0.1114,2300.0,50,2000.0
67047fbe4a73fb7c0e482271,30.0,0.0,249.0,104.0,3.0,4.0,4.0,4.0,2.0,1.0,1.0,1.0,0.467,2182.4732,1.0,0.0325,3110.0,41,3000.0
67047fbe4a73fb7c0e482271,30.0,0.0,163.0,105.0,3.0,2.0,3.0,3.0,3.0,1.0,1.0,1.0,0.6333,2184.6427,1.0,0.0687,410.0,41,410.0
67047fbe4a73fb7c0e482271,30.0,0.0,397.0,106.0,3.0,1.0,2.0,3.0,1.0,2.0,2.0,1.0,0.5654,2187.011,2.0,0.0362,212.0,23,2.0
67047fbe4a73fb7c0e482271,30.0,0.0,184.0,107.0,4.0,3.0,3.0,2.0,3.0,1.0,1.0,1.0,0.4996,2189.2621,1.0,0.1032,1310.0,41,1000.0
67047fbe4a73fb7c0e482271,30.0,0.0,222.0,108.0,3.0,3.0,4.0,4.0,2.0,1.0,1.0,1.0,0.4655,2191.5263,1.0,0.0331,2210.0,41,2000.0
67047fbe4a73fb7c0e482271,30.0,0.0,289.0,109.0,4.0,4.0,4.0,3.0,3.0,1.0,1.0,1.0,0.5689,2193.6932,1.0,0.066,3200.0,50,3000.0
67047fbe4a73fb7c0e482271,30.0,0.0,256.0,110.0,4.0,3.0,3.0,3.0,3.0,1.0,1.0,1.0,0.4654,2195.9948,1.0,0.0702,1400.0,50,1000.0
67047fbe4a73fb7c0e482271,30.0,0.0,156.0,111.0,3.0,2.0,3.0,3.0,3.0,1.0,1.0,1.0,0.6857,2198.1912,1.0,0.1026,410.0,41,410.0
67047fbe4a73fb7c0e482271,30.0,0.0,552.0,112.0,2.0,2.0,3.0,2.0,2.0,2.0,2.0,1.0,0.866,2200.6289,2.0,0.1334,140.0,14,140.0
67047fbe4a73fb7c0e482271,30.0,0.0,326.0,113.0,1.0,1.0,3.0,1.0,2.0,2.0,2.0,1.0,0.5296,2203.2752,2.0,0.0329,113.0,14,3.0
67047fbe4a73fb7c0e482271,30.0,0.0,304.0,114.0,2.0,1.0,1.0,1.0,1.0,2.0,2.0,1.0,0.6046,2205.4949,2.0,0.1346,14.0,5,4.0
67047fbe4a73fb7c0e482271,30.0,0.0,507.0,115.0,2.0,1.0,3.0,2.0,3.0,2.0,2.0,1.0,0.4673,2207.8836,2.0,0.0018,221.0,23,1.0
67047fbe4a73fb7c0e482271,30.0,0.0,435.0,116.0,2.0,2.0,1.0,2.0,2.0,2.0,2.0,1.0,0.5401,2210.028,2.0,0.1025,41.0,5,1.0
67047fbe4a73fb7c0e482271,30.0,0.0,584.0,117.0,2.0,2.0,3.0,3.0,3.0,2.0,1.0,0.0,0.9106,2212.315,1.0,0.0362,320.0,32,320.0
67047fbe4a73fb7c0e482271,30.0,0.0,44.0,118.0,2.0,2.0,3.0,3.0,2.0,1.0,2.0,0.0,4.5025,2214.9973,2.0,0.0994,230.0,23,230.0
67047fbe4a73fb7c0e482271,30.0,0.0,75.0,119.0,2.0,3.0,3.0,2.0,3.0,1.0,1.0,1.0,0.5104,2221.245,1.0,0.102,320.0,32,320.0
67047fbe4a73fb7c0e482271,30.0,0.0,190.0,120.0,4.0,3.0,3.0,2.0,3.0,1.0,1.0,1.0,0.6318,2223.5615,1.0,0.0674,1310.0,41,1000.0
67047fbe4a73fb7c0e482271,30.0,0.0,344.0,121.0,1.0,1.0,2.0,2.0,2.0,2.0,2.0,1.0,0.5652,2225.9093,2.0,0.1343,32.0,5,2.0
67047fbe4a73fb7c0e482271,30.0,0.0,371.0,122.0,2.0,1.0,3.0,1.0,2.0,2.0,2.0,1.0,0.3518,2228.2589,2.0,0.0017,122.0,14,2.0
67047fbe4a73fb7c0e482271,30.0,0.0,40.0,123.0,2.0,2.0,3.0,3.0,2.0,1.0,2.0,1.0,0.7696,2230.2958,1.0,0.0556,230.0,23,230.0
67047fbe4a73fb7c0e482271,30.0,0.0,526.0,124.0,1.0,3.0,3.0,3.0,2.0,2.0,2.0,1.0,0.5093,2232.7616,2.0,0.0362,311.0,32,1.0
67047fbe4a73fb7c0e482271,30.0,0.0,530.0,125.0,1.0,3.0,3.0,3.0,2.0,2.0,2.0,1.0,0.5026,2234.9679,2.0,0.0674,311.0,32,1.0
67047fbe4a73fb7c0e482271,30.0,0.0,547.0,126.0,2.0,2.0,3.0,2.0,2.0,2.0,2.0,1.0,0.5322,2237.1947,2.0,0.0676,140.0,14,140.0
67047fbe4a73fb7c0e482271,30.0,0.0,425.0,127.0,2.0,2.0,1.0,2.0,2.0,2.0,2.0,1.0,0.4675,2239.4429,2.0,0.103,41.0,5,1.0
67047fbe4a73fb7c0e482271,30.0,0.0,228.0,128.0,3.0,3.0,4.0,4.0,2.0,1.0,1.0,1.0,0.8733,2241.6781,1.0,0.0014,2210.0,41,2000.0
67047fbe4a73fb7c0e482271,30.0,0.0,465.0,129.0,1.0,2.0,2.0,3.0,2.0,2.0,2.0,1.0,0.7319,2244.2015,2.0,0.0014,131.0,14,1.0
67047fbe4a73fb7c0e482271,30.0,0.0,251.0,130.0,2.0,4.0,4.0,4.0,4.0,1.0,1.0,1.0,2.577,2246.6078,1.0,0.036,4010.0,41,4000.0
67047fbe4a73fb7c0e482271,30.0,0.0,399.0,131.0,3.0,1.0,2.0,3.0,1.0,2.0,2.0,1.0,0.632,2250.8924,2.0,0.0014,212.0,23,2.0
67047fbe4a73fb7c0e482271,30.0,0.0,209.0,132.0,3.0,3.0,4.0,4.0,2.0,1.0,1.0,1.0,0.5259,2253.1758,1.0,0.104,2210.0,41,2000.0
67047fbe4a73fb7c0e482271,30.0,0.0,433.0,133.0,2.0,2.0,1.0,2.0,2.0,2.0,2.0,1.0,0.5003,2255.4838,2.0,0.1019,41.0,5,1.0
67047fbe4a73fb7c0e482271,30.0,0.0,538.0,134.0,3.0,3.0,3.0,3.0,1.0,2.0,2.0,1.0,0.5338,2257.7438,2.0,0.1001,401.0,41,1.0
67047fbe4a73fb7c0e482271,30.0,0.0,231.0,135.0,3.0,3.0,4.0,4.0,2.0,1.0,1.0,1.0,0.9343,2260.0277,1.0,0.0014,2210.0,41,2000.0
67047fbe4a73fb7c0e482271,30.0,0.0,426.0,136.0,2.0,2.0,1.0,2.0,2.0,2.0,2.0,1.0,0.4362,2262.6094,2.0,0.1041,41.0,5,1.0
67047fbe4a73fb7c0e482271,30.0,0.0,121.0,137.0,2.0,4.0,3.0,2.0,3.0,1.0,1.0,1.0,1.5329,2264.8282,1.0,0.1032,1220.0,32,1000.0
67047fbe4a73fb7c0e482271,30.0,0.0,432.0,138.0,2.0,2.0,1.0,2.0,2.0,2.0,2.0,1.0,0.5688,2268.1102,2.0,0.1339,41.0,5,1.0
67047fbe4a73fb7c0e482271,30.0,0.0,7.0,139.0,2.0,1.0,2.0,3.0,4.0,1.0,2.0,1.0,0.9761,2270.4615,1.0,0.0707,1121.0,23,1001.0
67047fbe4a73fb7c0e482271,30.0,0.0,54.0,140.0,4.0,2.0,2.0,2.0,3.0,1.0,1.0,1.0,0.9846,2273.1774,1.0,0.103,1130.0,23,1000.0
67047fbe4a73fb7c0e482271,30.0,0.0,277.0,141.0,4.0,4.0,3.0,3.0,3.0,1.0,1.0,1.0,0.7003,2275.9118,1.0,0.1338,2300.0,50,2000.0
67047fbe4a73fb7c0e482271,30.0,0.0,417.0,142.0,1.0,3.0,4.0,2.0,1.0,2.0,2.0,1.0,2.7168,2278.411,2.0,0.0678,1112.0,23,1002.0
67047fbe4a73fb7c0e482271,30.0,0.0,575.0,143.0,2.0,3.0,2.0,2.0,3.0,2.0,2.0,1.0,0.6678,2282.844,2.0,0.1064,230.0,23,230.0
67047fbe4a73fb7c0e482271,30.0,0.0,13.0,144.0,3.0,2.0,4.0,3.0,1.0,1.0,1.0,1.0,0.8687,2288.5743,1.0,0.0671,1211.0,32,1001.0
67047fbe4a73fb7c0e482271,30.0,0.0,361.0,145.0,2.0,1.0,3.0,1.0,2.0,2.0,2.0,1.0,0.6356,2291.2255,2.0,0.0013,122.0,14,2.0
67047fbe4a73fb7c0e482271,30.0,0.0,269.0,146.0,4.0,4.0,3.0,3.0,3.0,1.0,1.0,1.0,0.6924,2293.5277,1.0,0.0361,2300.0,50,2000.0
67047fbe4a73fb7c0e482271,30.0,0.0,359.0,147.0,2.0,1.0,3.0,1.0,2.0,2.0,2.0,1.0,0.4854,2295.9034,2.0,0.0014,122.0,14,2.0
67047fbe4a73fb7c0e482271,30.0,0.0,315.0,148.0,1.0,1.0,2.0,1.0,2.0,2.0,2.0,1.0,0.402,2298.0445,2.0,0.0014,23.0,5,3.0
67047fbe4a73fb7c0e482271,30.0,0.0,131.0,149.0,4.0,3.0,2.0,2.0,4.0,1.0,1.0,1.0,0.766,2300.0944,1.0,0.033,2120.0,32,2000.0
67047fbe4a73fb7c0e482271,30.0,0.0,501.0,150.0,2.0,1.0,3.0,2.0,3.0,2.0,2.0,1.0,0.7458,2302.5423,2.0,0.0988,221.0,23,1.0
67047fbe4a73fb7c0e482271,30.0,0.0,12.0,151.0,2.0,3.0,1.0,3.0,3.0,1.0,2.0,0.0,2.7266,2305.0443,2.0,0.0689,311.0,32,1.0
67047fbe4a73fb7c0e482271,30.0,0.0,498.0,152.0,2.0,1.0,3.0,2.0,3.0,2.0,2.0,1.0,0.5738,2309.5656,2.0,0.1337,221.0,23,1.0
67047fbe4a73fb7c0e482271,30.0,0.0,47.0,153.0,2.0,2.0,3.0,3.0,2.0,1.0,2.0,0.0,1.2238,2311.9759,2.0,0.0672,230.0,23,230.0
67047fbe4a73fb7c0e482271,30.0,0.0,392.0,154.0,1.0,1.0,4.0,2.0,2.0,2.0,2.0,1.0,0.7001,2314.9916,2.0,0.0362,1022.0,14,1002.0
67047fbe4a73fb7c0e482271,30.0,0.0,322.0,155.0,1.0,1.0,3.0,1.0,2.0,2.0,2.0,1.0,0.4464,2317.4684,2.0,0.1062,113.0,14,3.0
67047fbe4a73fb7c0e482271,30.0,0.0,67.0,156.0,2.0,2.0,4.0,2.0,4.0,1.0,1.0,1.0,0.6661,2319.6413,1.0,0.0321,2030.0,23,2000.0
67047fbe4a73fb7c0e482271,30.0,0.0,402.0,157.0,3.0,1.0,2.0,3.0,1.0,2.0,2.0,1.0,0.5861,2322.0089,2.0,0.0013,212.0,23,2.0
67047fbe4a73fb7c0e482271,30.0,0.0,66.0,158.0,2.0,2.0,4.0,2.0,4.0,1.0,1.0,1.0,0.5825,2324.2463,1.0,0.0364,2030.0,23,2000.0
67047fbe4a73fb7c0e482271,30.0,0.0,481.0,159.0,2.0,1.0,3.0,2.0,3.0,2.0,2.0,1.0,0.5995,2326.5419,2.0,0.0682,221.0,23,1.0
67047fbe4a73fb7c0e482271,30.0,0.0,22.0,160.0,3.0,3.0,3.0,3.0,1.0,1.0,2.0,0.0,1.1679,2328.8629,2.0,0.1349,401.0,41,1.0
67047fbe4a73fb7c0e482271,30.0,0.0,194.0,161.0,4.0,3.0,3.0,2.0,3.0,1.0,1.0,1.0,0.5755,2331.892,1.0,0.0362,1310.0,41,1000.0
67047fbe4a73fb7c0e482271,30.0,0.0,305.0,162.0,1.0,1.0,1.0,1.0,3.0,2.0,2.0,1.0,0.5695,2334.2114,2.0,0.0014,104.0,14,4.0
67047fbe4a73fb7c0e482271,30.0,0.0,293.0,163.0,4.0,4.0,4.0,3.0,3.0,1.0,1.0,1.0,0.6396,2336.4278,1.0,0.0708,3200.0,50,3000.0
67047fbe4a73fb7c0e482271,30.0,0.0,490.0,164.0,2.0,1.0,3.0,2.0,3.0,2.0,2.0,1.0,0.7693,2338.8,2.0,0.1045,221.0,23,1.0
67047fbe4a73fb7c0e482271,30.0,0.0,542.0,165.0,2.0,2.0,2.0,2.0,2.0,2.0,2.0,1.0,0.467,2341.3272,2.0,0.0014,50.0,5,50.0
67047fbe4a73fb7c0e482271,30.0,0.0,393.0,166.0,3.0,1.0,2.0,3.0,1.0,2.0,2.0,1.0,2.3208,2343.4417,2.0,0.0344,212.0,23,2.0
67047fbe4a73fb7c0e482271,30.0,0.0,245.0,167.0,3.0,4.0,4.0,4.0,2.0,1.0,1.0,1.0,0.7318,2347.4476,1.0,0.0679,3110.0,41,3000.0
67047fbe4a73fb7c0e482271,30.0,0.0,43.0,168.0,2.0,2.0,3.0,3.0,2.0,1.0,2.0,0.0,0.8308,2349.9085,2.0,0.0388,230.0,23,230.0
67047fbe4a73fb7c0e482271,30.0,0.0,520.0,169.0,1.0,3.0,3.0,3.0,2.0,2.0,2.0,1.0,0.8011,2352.4753,2.0,0.1013,311.0,32,1.0
67047fbe4a73fb7c0e482271,30.0,0.0,186.0,170.0,4.0,3.0,3.0,2.0,3.0,1.0,1.0,1.0,0.8022,2355.0925,1.0,0.0012,1310.0,41,1000.0
67047fbe4a73fb7c0e482271,30.0,0.0,126.0,171.0,4.0,3.0,2.0,2.0,4.0,1.0,1.0,1.0,0.734,2357.5455,1.0,0.0014,2120.0,32,2000.0
67047fbe4a73fb7c0e482271,30.0,0.0,119.0,172.0,2.0,4.0,3.0,2.0,3.0,1.0,1.0,1.0,0.6668,2359.925,1.0,0.0669,1220.0,32,1000.0
67047fbe4a73fb7c0e482271,30.0,0.0,388.0,173.0,2.0,1.0,3.0,1.0,2.0,2.0,2.0,1.0,0.6,2362.3106,2.0,0.0996,122.0,14,2.0
67047fbe4a73fb7c0e482271,30.0,0.0,525.0,174.0,1.0,3.0,3.0,3.0,2.0,2.0,2.0,1.0,0.5964,2364.6583,2.0,0.1478,311.0,32,1.0
67047fbe4a73fb7c0e482271,30.0,0.0,535.0,175.0,3.0,2.0,3.0,1.0,4.0,2.0,1.0,0.0,0.6939,2367.075,1.0,0.1098,1211.0,32,1001.0
67047fbe4a73fb7c0e482271,30.0,0.0,363.0,176.0,2.0,1.0,3.0,1.0,2.0,2.0,2.0,1.0,0.6954,2369.5774,2.0,0.0017,122.0,14,2.0
67047fbe4a73fb7c0e482271,30.0,0.0,310.0,177.0,1.0,1.0,2.0,1.0,2.0,2.0,2.0,1.0,0.6362,2371.9908,2.0,0.1089,23.0,5,3.0
67047fbe4a73fb7c0e482271,30.0,0.0,499.0,178.0,2.0,1.0,3.0,2.0,3.0,2.0,2.0,1.0,0.7293,2374.4106,2.0,0.1343,221.0,23,1.0
67047fbe4a73fb7c0e482271,30.0,0.0,178.0,179.0,4.0,3.0,3.0,2.0,3.0,1.0,1.0,1.0,0.5144,2376.9252,1.0,0.0018,1310.0,41,1000.0
67047fbe4a73fb7c0e482271,30.0,0.0,328.0,180.0,1.0,1.0,3.0,1.0,2.0,2.0,2.0,1.0,0.6205,2379.101,2.0,0.1,113.0,14,3.0
67047fbe4a73fb7c0e482271,30.0,0.0,503.0,181.0,2.0,1.0,3.0,2.0,3.0,2.0,2.0,1.0,0.4991,2381.4958,2.0,0.0013,221.0,23,1.0
67047fbe4a73fb7c0e482271,30.0,0.0,21.0,182.0,2.0,4.0,4.0,1.0,4.0,1.0,1.0,1.0,0.6693,2383.6587,1.0,0.0368,3011.0,32,3001.0
67047fbe4a73fb7c0e482271,30.0,0.0,58.0,183.0,4.0,2.0,2.0,2.0,3.0,1.0,1.0,0.0,3.0939,2386.027,2.0,0.0682,1130.0,23,1000.0
67047fbe4a73fb7c0e482271,30.0,0.0,450.0,184.0,1.0,2.0,2.0,3.0,2.0,2.0,2.0,1.0,0.7786,2390.8932,2.0,0.102,131.0,14,1.0
67047fbe4a73fb7c0e482271,30.0,0.0,29.0,185.0,2.0,2.0,2.0,2.0,2.0,1.0,2.0,0.0,0.8543,2393.4802,2.0,0.0364,50.0,5,50.0
67047fbe4a73fb7c0e482271,30.0,0.0,572.0,186.0,2.0,3.0,2.0,2.0,3.0,2.0,2.0,0.0,0.6225,2396.0603,1.0,0.0994,230.0,23,230.0
67047fbe4a73fb7c0e482271,30.0,0.0,384.0,187.0,2.0,1.0,3.0,1.0,2.0,2.0,2.0,1.0,0.476,2398.4307,2.0,0.0013,122.0,14,2.0
67047fbe4a73fb7c0e482271,30.0,0.0,41.0,188.0,2.0,2.0,3.0,3.0,2.0,1.0,2.0,0.0,0.6086,2400.6281,2.0,0.1,230.0,23,230.0
67047fbe4a73fb7c0e482271,30.0,0.0,15.0,189.0,3.0,2.0,4.0,3.0,1.0,1.0,1.0,0.0,0.7179,2403.0475,2.0,0.0013,1211.0,32,1001.0
67047fbe4a73fb7c0e482271,30.0,0.0,380.0,190.0,2.0,1.0,3.0,1.0,2.0,2.0,2.0,1.0,0.6043,2405.4261,2.0,0.0014,122.0,14,2.0
67047fbe4a73fb7c0e482271,30.0,0.0,496.0,191.0,2.0,1.0,3.0,2.0,3.0,2.0,2.0,1.0,0.6369,2407.7411,2.0,0.0677,221.0,23,1.0
67047fbe4a73fb7c0e482271,30.0,0.0,195.0,192.0,4.0,3.0,3.0,2.0,3.0,1.0,1.0,1.0,0.4476,2410.1144,1.0,0.1342,1310.0,41,1000.0
67047fbe4a73fb7c0e482271,30.0,0.0,510.0,193.0,2.0,1.0,3.0,2.0,3.0,2.0,2.0,1.0,0.3974,2412.3392,2.0,0.0749,221.0,23,1.0
67047fbe4a73fb7c0e482271,30.0,0.0,591.0,194.0,2.0,2.0,3.0,3.0,3.0,2.0,1.0,0.0,0.5743,2414.4394,1.0,0.0014,320.0,32,320.0
67047fbe4a73fb7c0e482271,30.0,0.0,92.0,195.0,2.0,4.0,3.0,2.0,3.0,1.0,1.0,1.0,0.5077,2416.7247,1.0,0.0779,1220.0,32,1000.0
67047fbe4a73fb7c0e482271,30.0,0.0,57.0,196.0,4.0,2.0,2.0,2.0,3.0,1.0,1.0,1.0,0.6682,2419.0269,1.0,0.1083,1130.0,23,1000.0
67047fbe4a73fb7c0e482271,30.0,0.0,100.0,197.0,2.0,4.0,3.0,2.0,3.0,1.0,1.0,1.0,0.5082,2421.4936,1.0,0.0018,1220.0,32,1000.0
67047fbe4a73fb7c0e482271,30.0,0.0,353.0,198.0,1.0,1.0,2.0,2.0,2.0,2.0,2.0,1.0,0.4302,2423.6775,2.0,0.1342,32.0,5,2.0
67047fbe4a73fb7c0e482271,30.0,0.0,561.0,199.0,2.0,3.0,2.0,2.0,3.0,2.0,2.0,1.0,0.467,2425.9082,2.0,0.0013,230.0,23,230.0
67047fbe4a73fb7c0e482271,30.0,0.0,34.0,200.0,2.0,2.0,2.0,4.0,2.0,1.0,1.0,1.0,0.5654,2428.0271,1.0,0.0014,1040.0,14,1000.0
67047fbe4a73fb7c0e482271,30.0,0.0,382.0,201.0,2.0,1.0,3.0,1.0,2.0,2.0,2.0,1.0,1.448,2430.2412,2.0,0.0649,122.0,14,2.0
67047fbe4a73fb7c0e482271,30.0,0.0,280.0,202.0,4.0,4.0,3.0,3.0,3.0,1.0,1.0,1.0,0.5709,2433.4068,1.0,0.106,2300.0,50,2000.0
67047fbe4a73fb7c0e482271,30.0,0.0,469.0,203.0,1.0,2.0,2.0,3.0,2.0,2.0,2.0,1.0,0.4628,2435.7411,2.0,0.0668,131.0,14,1.0
67047fbe4a73fb7c0e482271,30.0,0.0,73.0,204.0,2.0,3.0,3.0,2.0,3.0,1.0,1.0,1.0,0.668,2437.9412,1.0,0.0353,320.0,32,320.0
67047fbe4a73fb7c0e482271,30.0,0.0,141.0,205.0,4.0,3.0,2.0,2.0,4.0,1.0,1.0,1.0,0.5349,2440.31,1.0,0.0966,2120.0,32,2000.0
67047fbe4a73fb7c0e482271,30.0,0.0,78.0,206.0,2.0,3.0,3.0,2.0,3.0,1.0,1.0,0.0,0.5433,2442.6082,2.0,0.1345,320.0,32,320.0
67047fbe4a73fb7c0e482271,30.0,0.0,234.0,207.0,3.0,3.0,4.0,4.0,2.0,1.0,1.0,1.0,0.4474,2444.9941,1.0,0.0675,2210.0,41,2000.0
67047fbe4a73fb7c0e482271,30.0,0.0,5.0,208.0,2.0,2.0,1.0,3.0,3.0,1.0,2.0,0.0,0.4715,2447.2137,2.0,0.0995,221.0,23,1.0
67047fbe4a73fb7c0e482271,30.0,0.0,568.0,209.0,2.0,3.0,2.0,2.0,3.0,2.0,2.0,1.0,10.5414,2449.5133,2.0,0.0678,230.0,23,230.0
67047fbe4a73fb7c0e482271,30.0,0.0,556.0,210.0,2.0,2.0,3.0,2.0,2.0,2.0,2.0,1.0,1.4982,2461.8269,2.0,0.0348,140.0,14,140.0
67047fbe4a73fb7c0e482271,30.0,0.0,557.0,211.0,2.0,2.0,3.0,2.0,2.0,2.0,2.0,0.0,0.9033,2465.0099,1.0,0.0676,140.0,14,140.0
67047fbe4a73fb7c0e482271,30.0,0.0,386.0,212.0,2.0,1.0,3.0,1.0,2.0,2.0,2.0,1.0,0.5669,2467.7087,2.0,0.0319,122.0,14,2.0
67047fbe4a73fb7c0e482271,30.0,0.0,422.0,213.0,1.0,3.0,3.0,3.0,1.0,2.0,2.0,1.0,0.3993,2470.0414,2.0,0.1055,302.0,32,2.0
67047fbe4a73fb7c0e482271,30.0,0.0,76.0,214.0,2.0,3.0,3.0,2.0,3.0,1.0,1.0,1.0,0.632,2472.2086,1.0,0.0673,320.0,32,320.0
67047fbe4a73fb7c0e482271,30.0,0.0,177.0,215.0,4.0,3.0,3.0,2.0,3.0,1.0,1.0,1.0,0.6514,2474.573,1.0,0.1307,1310.0,41,1000.0
67047fbe4a73fb7c0e482271,30.0,0.0,173.0,216.0,4.0,3.0,3.0,2.0,3.0,1.0,1.0,1.0,0.5346,2477.027,1.0,0.0345,1310.0,41,1000.0
67047fbe4a73fb7c0e482271,30.0,0.0,376.0,217.0,2.0,1.0,3.0,1.0,2.0,2.0,2.0,1.0,0.4005,2479.2643,2.0,0.1005,122.0,14,2.0
67047fbe4a73fb7c0e482271,30.0,0.0,567.0,218.0,2.0,3.0,2.0,2.0,3.0,2.0,2.0,0.0,0.5036,2481.4267,1.0,0.0014,230.0,23,230.0
67047fbe4a73fb7c0e482271,30.0,0.0,408.0,219.0,3.0,1.0,2.0,3.0,1.0,2.0,2.0,1.0,0.459,2483.6411,2.0,0.0013,212.0,23,2.0
67047fbe4a73fb7c0e482271,30.0,0.0,360.0,220.0,2.0,1.0,3.0,1.0,2.0,2.0,2.0,1.0,0.4298,2485.8246,2.0,0.0013,122.0,14,2.0
67047fbe4a73fb7c0e482271,30.0,0.0,331.0,221.0,1.0,1.0,3.0,1.0,2.0,2.0,2.0,1.0,0.4303,2487.9074,2.0,0.0014,113.0,14,3.0
67047fbe4a73fb7c0e482271,30.0,0.0,513.0,222.0,2.0,3.0,4.0,2.0,1.0,2.0,2.0,0.0,0.2082,2490.0081,1.0,0.0393,1121.0,23,1001.0
67047fbe4a73fb7c0e482271,30.0,0.0,582.0,223.0,2.0,2.0,3.0,3.0,3.0,2.0,1.0,1.0,3.2218,2491.9904,2.0,0.0014,320.0,32,320.0
67047fbe4a73fb7c0e482271,30.0,0.0,524.0,224.0,1.0,3.0,3.0,3.0,2.0,2.0,2.0,1.0,0.5342,2496.9242,2.0,0.0328,311.0,32,1.0
67047fbe4a73fb7c0e482271,30.0,0.0,337.0,225.0,1.0,1.0,1.0,3.0,3.0,2.0,2.0,1.0,0.4132,2499.1599,2.0,0.1119,203.0,23,3.0
67047fbe4a73fb7c0e482271,30.0,0.0,130.0,226.0,4.0,3.0,2.0,2.0,4.0,1.0,1.0,1.0,0.2649,2501.3429,1.0,0.0663,2120.0,32,2000.0
67047fbe4a73fb7c0e482271,30.0,0.0,35.0,227.0,2.0,2.0,2.0,4.0,2.0,1.0,1.0,0.0,0.9084,2503.34,2.0,0.0691,1040.0,14,1000.0
67047fbe4a73fb7c0e482271,30.0,0.0,77.0,228.0,2.0,3.0,3.0,2.0,3.0,1.0,1.0,1.0,0.457,2506.0252,1.0,0.1048,320.0,32,320.0
67047fbe4a73fb7c0e482271,30.0,0.0,118.0,229.0,2.0,4.0,3.0,2.0,3.0,1.0,1.0,1.0,0.5358,2508.2965,1.0,0.0984,1220.0,32,1000.0
67047fbe4a73fb7c0e482271,30.0,0.0,548.0,230.0,2.0,2.0,3.0,2.0,2.0,2.0,2.0,1.0,0.5292,2510.5759,2.0,0.0363,140.0,14,140.0
67047fbe4a73fb7c0e482271,30.0,0.0,164.0,231.0,3.0,2.0,3.0,3.0,3.0,1.0,1.0,1.0,0.4364,2512.8077,1.0,0.0708,410.0,41,410.0
67047fbe4a73fb7c0e482271,30.0,0.0,319.0,232.0,1.0,1.0,3.0,1.0,2.0,2.0,2.0,1.0,0.9027,2514.9768,2.0,0.1336,113.0,14,3.0
67047fbe4a73fb7c0e482271,30.0,0.0,153.0,233.0,3.0,2.0,3.0,3.0,3.0,1.0,1.0,1.0,0.4039,2517.6594,1.0,0.1081,410.0,41,410.0
67047fbe4a73fb7c0e482271,30.0,0.0,91.0,234.0,2.0,4.0,3.0,2.0,3.0,1.0,1.0,1.0,0.5847,2519.8266,1.0,0.0981,1220.0,32,1000.0
67047fbe4a73fb7c0e482271,30.0,0.0,101.0,235.0,2.0,4.0,3.0,2.0,3.0,1.0,1.0,1.0,0.4679,2522.1751,1.0,0.1006,1220.0,32,1000.0
67047fbe4a73fb7c0e482271,30.0,0.0,97.0,236.0,2.0,4.0,3.0,2.0,3.0,1.0,1.0,1.0,0.332,2524.3932,1.0,0.0676,1220.0,32,1000.0
67047fbe4a73fb7c0e482271,30.0,0.0,26.0,237.0,3.0,4.0,1.0,3.0,4.0,1.0,1.0,1.0,0.3985,2526.4405,1.0,0.0675,2201.0,41,2001.0
67047fbe4a73fb7c0e482271,30.0,0.0,405.0,238.0,3.0,1.0,2.0,3.0,1.0,2.0,2.0,1.0,0.4944,2528.5743,2.0,0.0759,212.0,23,2.0
67047fbe4a73fb7c0e482271,30.0,0.0,583.0,239.0,2.0,2.0,3.0,3.0,3.0,2.0,1.0,1.0,0.5025,2530.807,2.0,0.0325,320.0,32,320.0
67047fbe4a73fb7c0e482271,30.0,0.0,160.0,240.0,3.0,2.0,3.0,3.0,3.0,1.0,1.0,1.0,0.4005,2533.0097,1.0,0.0331,410.0,41,410.0
67047fbe4a73fb7c0e482271,30.0,0.0,362.0,241.0,2.0,1.0,3.0,1.0,2.0,2.0,2.0,1.0,0.3702,2535.1093,2.0,0.099,122.0,14,2.0
67047fbe4a73fb7c0e482271,30.0,0.0,157.0,242.0,3.0,2.0,3.0,3.0,3.0,1.0,1.0,1.0,0.2673,2537.2263,1.0,0.1028,410.0,41,410.0
67047fbe4a73fb7c0e482271,30.0,0.0,555.0,243.0,2.0,2.0,3.0,2.0,2.0,2.0,2.0,1.0,0.3339,2539.243,2.0,0.0703,140.0,14,140.0
67047fbe4a73fb7c0e482271,30.0,0.0,518.0,244.0,1.0,3.0,3.0,3.0,2.0,2.0,2.0,1.0,2.0443,2541.2931,2.0,0.1719,311.0,32,1.0
67047fbe4a73fb7c0e482271,30.0,0.0,476.0,245.0,2.0,4.0,2.0,2.0,1.0,2.0,2.0,0.0,0.8346,2545.1595,1.0,0.0663,1031.0,14,1001.0
67047fbe4a73fb7c0e482271,30.0,0.0,149.0,246.0,2.0,4.0,2.0,4.0,4.0,1.0,1.0,1.0,2.3714,2547.774,1.0,0.0344,3020.0,32,3000.0
67047fbe4a73fb7c0e482271,30.0,0.0,239.0,247.0,3.0,4.0,4.0,4.0,2.0,1.0,1.0,1.0,0.4691,2551.8741,1.0,0.0324,3110.0,41,3000.0
67047fbe4a73fb7c0e482271,30.0,0.0,336.0,248.0,1.0,1.0,1.0,3.0,3.0,2.0,2.0,1.0,0.401,2554.0262,2.0,0.0678,203.0,23,3.0
67047fbe4a73fb7c0e482271,30.0,0.0,81.0,249.0,2.0,3.0,3.0,2.0,3.0,1.0,1.0,1.0,0.4296,2556.1406,1.0,0.0013,320.0,32,320.0
67047fbe4a73fb7c0e482271,30.0,0.0,147.0,250.0,2.0,4.0,2.0,4.0,4.0,1.0,1.0,1.0,0.3026,2558.2407,1.0,0.036,3020.0,32,3000.0
67047fbe4a73fb7c0e482271,30.0,0.0,252.0,251.0,3.0,3.0,3.0,3.0,3.0,1.0,1.0,1.0,0.433,2560.2266,1.0,0.0674,500.0,50,500.0
67047fbe4a73fb7c0e482271,30.0,0.0,484.0,252.0,2.0,1.0,3.0,2.0,3.0,2.0,2.0,1.0,0.3111,2562.3904,2.0,0.0016,221.0,23,1.0
67047fbe4a73fb7c0e482271,30.0,0.0,262.0,253.0,4.0,3.0,3.0,3.0,3.0,1.0,1.0,1.0,0.2761,2564.3739,1.0,0.1106,1400.0,50,1000.0
67047fbe4a73fb7c0e482271,30.0,0.0,136.0,254.0,4.0,3.0,2.0,2.0,4.0,1.0,1.0,1.0,2.5502,2566.44,1.0,0.0684,2120.0,32,2000.0
67047fbe4a73fb7c0e482271,30.0,0.0,325.0,255.0,1.0,1.0,3.0,1.0,2.0,2.0,2.0,1.0,0.6658,2570.7257,2.0,0.0326,113.0,14,3.0
67047fbe4a73fb7c0e482271,30.0,0.0,115.0,256.0,2.0,4.0,3.0,2.0,3.0,1.0,1.0,1.0,0.551,2573.0742,1.0,0.0015,1220.0,32,1000.0
67047fbe4a73fb7c0e482271,30.0,0.0,148.0,257.0,2.0,4.0,2.0,4.0,4.0,1.0,1.0,1.0,0.4363,2575.2765,1.0,0.0989,3020.0,32,3000.0
67047fbe4a73fb7c0e482271,30.0,0.0,431.0,258.0,2.0,2.0,1.0,2.0,2.0,2.0,2.0,1.0,0.5648,2577.4598,2.0,0.0014,41.0,5,1.0
67047fbe4a73fb7c0e482271,30.0,0.0,378.0,259.0,2.0,1.0,3.0,1.0,2.0,2.0,2.0,1.0,0.231,2579.6733,2.0,0.1399,122.0,14,2.0
67047fbe4a73fb7c0e482271,30.0,0.0,381.0,260.0,2.0,1.0,3.0,1.0,2.0,2.0,2.0,1.0,0.2669,2581.6926,2.0,0.0991,122.0,14,2.0
67047fbe4a73fb7c0e482271,30.0,0.0,461.0,261.0,1.0,2.0,2.0,3.0,2.0,2.0,2.0,1.0,0.202,2583.7236,2.0,0.1769,131.0,14,1.0
67047fbe4a73fb7c0e482271,30.0,0.0,95.0,262.0,2.0,4.0,3.0,2.0,3.0,1.0,1.0,1.0,0.4649,2585.7447,1.0,0.0014,1220.0,32,1000.0
67047fbe4a73fb7c0e482271,30.0,0.0,569.0,263.0,2.0,3.0,2.0,2.0,3.0,2.0,2.0,0.0,0.6105,2587.8569,1.0,0.0672,230.0,23,230.0
67047fbe4a73fb7c0e482271,30.0,0.0,323.0,264.0,1.0,1.0,3.0,1.0,2.0,2.0,2.0,1.0,2.2956,2590.2582,2.0,0.1341,113.0,14,3.0
67047fbe4a73fb7c0e482271,30.0,0.0,466.0,265.0,1.0,2.0,2.0,3.0,2.0,2.0,2.0,1.0,0.7689,2594.3901,2.0,0.0681,131.0,14,1.0
67047fbe4a73fb7c0e482271,30.0,0.0,17.0,266.0,3.0,2.0,4.0,3.0,1.0,1.0,1.0,1.0,0.4985,2596.8762,1.0,0.1033,1211.0,32,1001.0
67047fbe4a73fb7c0e482271,30.0,0.0,396.0,267.0,3.0,1.0,2.0,3.0,1.0,2.0,2.0,1.0,0.3652,2599.1237,2.0,0.073,212.0,23,2.0
67047fbe4a73fb7c0e482271,30.0,0.0,299.0,268.0,4.0,3.0,4.0,4.0,4.0,1.0,1.0,1.0,0.416,2601.2258,1.0,0.0328,4100.0,50,4000.0
67047fbe4a73fb7c0e482271,30.0,0.0,454.0,269.0,1.0,2.0,2.0,3.0,2.0,2.0,2.0,1.0,0.5651,2603.3223,2.0,0.0018,131.0,14,1.0
67047fbe4a73fb7c0e482271,30.0,0.0,174.0,270.0,4.0,3.0,3.0,2.0,3.0,1.0,1.0,1.0,0.2472,2605.5591,1.0,0.0988,1310.0,41,1000.0
67047fbe4a73fb7c0e482271,30.0,0.0,428.0,271.0,2.0,2.0,1.0,2.0,2.0,2.0,2.0,1.0,0.2007,2607.5589,2.0,0.1343,41.0,5,1.0
67047fbe4a73fb7c0e482271,30.0,0.0,459.0,272.0,1.0,2.0,2.0,3.0,2.0,2.0,2.0,1.0,0.2319,2609.5423,2.0,0.1348,131.0,14,1.0
67047fbe4a73fb7c0e482271,30.0,0.0,24.0,273.0,4.0,3.0,3.0,1.0,3.0,1.0,1.0,1.0,0.2324,2611.5572,1.0,0.1034,1301.0,41,1001.0
67047fbe4a73fb7c0e482271,30.0,0.0,311.0,274.0,1.0,1.0,2.0,1.0,2.0,2.0,2.0,1.0,0.2142,2613.5404,2.0,0.0998,23.0,5,3.0
67047fbe4a73fb7c0e482271,30.0,0.0,124.0,275.0,4.0,3.0,2.0,2.0,4.0,1.0,1.0,1.0,0.2356,2615.5105,1.0,0.0353,2120.0,32,2000.0
67047fbe4a73fb7c0e482271,30.0,0.0,106.0,276.0,2.0,4.0,3.0,2.0,3.0,1.0,1.0,1.0,1.0359,2617.4585,1.0,0.1001,1220.0,32,1000.0
67047fbe4a73fb7c0e482271,30.0,0.0,566.0,277.0,2.0,3.0,2.0,2.0,3.0,2.0,2.0,1.0,0.5109,2620.2431,2.0,0.0362,230.0,23,230.0
67047fbe4a73fb7c0e482271,30.0,0.0,224.0,278.0,3.0,3.0,4.0,4.0,2.0,1.0,1.0,1.0,0.3631,2622.459,1.0,0.0018,2210.0,41,2000.0
67047fbe4a73fb7c0e482271,30.0,0.0,219.0,279.0,3.0,3.0,4.0,4.0,2.0,1.0,1.0,1.0,0.4992,2624.4923,1.0,0.0016,2210.0,41,2000.0
67047fbe4a73fb7c0e482271,30.0,0.0,208.0,280.0,3.0,3.0,4.0,4.0,2.0,1.0,1.0,1.0,0.3372,2626.6392,1.0,0.0676,2210.0,41,2000.0
67047fbe4a73fb7c0e482271,30.0,0.0,565.0,281.0,2.0,3.0,2.0,2.0,3.0,2.0,2.0,0.0,0.5097,2628.7237,1.0,0.0013,230.0,23,230.0
67047fbe4a73fb7c0e482271,30.0,0.0,207.0,282.0,3.0,3.0,4.0,4.0,2.0,1.0,1.0,1.0,0.6484,2630.9591,1.0,0.0678,2210.0,41,2000.0
67047fbe4a73fb7c0e482271,30.0,0.0,46.0,283.0,2.0,2.0,3.0,3.0,2.0,1.0,2.0,1.0,0.3651,2633.3979,1.0,0.0014,230.0,23,230.0
67047fbe4a73fb7c0e482271,30.0,0.0,335.0,284.0,1.0,1.0,1.0,3.0,3.0,2.0,2.0,1.0,3.8273,2635.4235,2.0,0.1034,203.0,23,3.0
67047fbe4a73fb7c0e482271,30.0,0.0,98.0,285.0,2.0,4.0,3.0,2.0,3.0,1.0,1.0,1.0,0.7531,2641.0094,1.0,0.0361,1220.0,32,1000.0
67047fbe4a73fb7c0e482271,30.0,0.0,488.0,286.0,2.0,1.0,3.0,2.0,3.0,2.0,2.0,1.0,0.8353,2643.4429,2.0,0.0013,221.0,23,1.0
67047fbe4a73fb7c0e482271,30.0,0.0,197.0,287.0,4.0,3.0,3.0,2.0,3.0,1.0,1.0,1.0,0.2979,2645.9427,1.0,0.0705,1310.0,41,1000.0
67047fbe4a73fb7c0e482271,30.0,0.0,96.0,288.0,2.0,4.0,3.0,2.0,3.0,1.0,1.0,1.0,0.303,2647.9728,1.0,0.1009,1220.0,32,1000.0
67047fbe4a73fb7c0e482271,30.0,0.0,226.0,289.0,3.0,3.0,4.0,4.0,2.0,1.0,1.0,1.0,0.3002,2650.026,1.0,0.0347,2210.0,41,2000.0
67047fbe4a73fb7c0e482271,30.0,0.0,203.0,290.0,3.0,3.0,4.0,4.0,2.0,1.0,1.0,1.0,0.2008,2652.0233,1.0,0.0676,2210.0,41,2000.0
67047fbe4a73fb7c0e482271,30.0,0.0,579.0,291.0,2.0,3.0,2.0,2.0,4.0,2.0,1.0,0.0,0.2132,2653.9571,1.0,0.0328,1130.0,23,1000.0
67047fbe4a73fb7c0e482271,30.0,0.0,342.0,292.0,1.0,1.0,2.0,2.0,2.0,2.0,2.0,1.0,0.2077,2655.9143,2.0,0.2031,32.0,5,2.0
67047fbe4a73fb7c0e482271,30.0,0.0,447.0,293.0,1.0,2.0,2.0,3.0,2.0,2.0,2.0,1.0,0.3383,2658.0236,2.0,0.0359,131.0,14,1.0
67047fbe4a73fb7c0e482271,30.0,0.0,64.0,294.0,4.0,2.0,2.0,2.0,3.0,1.0,1.0,1.0,0.1695,2660.061,1.0,0.1341,1130.0,23,1000.0
67047fbe4a73fb7c0e482271,30.0,0.0,25.0,295.0,4.0,3.0,3.0,1.0,3.0,1.0,1.0,1.0,0.2973,2662.009,1.0,0.0367,1301.0,41,1001.0
67047fbe4a73fb7c0e482271,30.0,0.0,389.0,296.0,2.0,1.0,3.0,1.0,2.0,2.0,2.0,1.0,0.2669,2664.0091,2.0,0.0013,122.0,14,2.0
67047fbe4a73fb7c0e482271,30.0,0.0,502.0,297.0,2.0,1.0,3.0,2.0,3.0,2.0,2.0,1.0,0.2375,2665.9231,2.0,0.0343,221.0,23,1.0
67047fbe4a73fb7c0e482271,30.0,0.0,129.0,298.0,4.0,3.0,2.0,2.0,4.0,1.0,1.0,1.0,0.1767,2667.8592,1.0,0.1055,2120.0,32,2000.0
67047fbe4a73fb7c0e482271,30.0,0.0,288.0,299.0,4.0,4.0,4.0,3.0,3.0,1.0,1.0,1.0,0.201,2669.8024,1.0,0.0644,3200.0,50,3000.0
67047fbe4a73fb7c0e482271,30.0,0.0,460.0,300.0,1.0,2.0,2.0,3.0,2.0,2.0,2.0,1.0,0.2315,2671.7235,2.0,0.0332,131.0,14,1.0
67047fbe4a73fb7c0e482271,30.0,0.0,32.0,301.0,2.0,2.0,3.0,2.0,2.0,1.0,2.0,1.0,0.2671,2673.6399,1.0,0.0363,140.0,14,140.0
67047fbe4a73fb7c0e482271,30.0,0.0,292.0,302.0,4.0,4.0,4.0,3.0,3.0,1.0,1.0,1.0,0.5026,2675.5923,1.0,0.1343,3200.0,50,3000.0
67047fbe4a73fb7c0e482271,30.0,0.0,259.0,303.0,4.0,3.0,3.0,3.0,3.0,1.0,1.0,1.0,0.4982,2677.8943,1.0,0.1355,1400.0,50,1000.0
67047fbe4a73fb7c0e482271,30.0,0.0,274.0,304.0,4.0,4.0,3.0,3.0,3.0,1.0,1.0,1.0,2.3872,2680.1731,1.0,0.0326,2300.0,50,2000.0
67047fbe4a73fb7c0e482271,30.0,0.0,357.0,305.0,2.0,1.0,3.0,1.0,2.0,2.0,2.0,1.0,0.2382,2684.2621,2.0,0.1094,122.0,14,2.0
67047fbe4a73fb7c0e482271,30.0,0.0,185.0,306.0,4.0,3.0,3.0,2.0,3.0,1.0,1.0,1.0,0.4038,2686.2773,1.0,0.0682,1310.0,41,1000.0
67047fbe4a73fb7c0e482271,30.0,0.0,437.0,307.0,2.0,2.0,1.0,2.0,2.0,2.0,2.0,1.0,0.4691,2688.395,2.0,0.0014,41.0,5,1.0
67047fbe4a73fb7c0e482271,30.0,0.0,200.0,308.0,4.0,3.0,3.0,2.0,3.0,1.0,1.0,1.0,0.3626,2690.5089,1.0,0.0643,1310.0,41,1000.0
67047fbe4a73fb7c0e482271,30.0,0.0,564.0,309.0,2.0,3.0,2.0,2.0,3.0,2.0,2.0,1.0,0.4604,2692.5897,2.0,0.0983,230.0,23,230.0
67047fbe4a73fb7c0e482271,30.0,0.0,18.0,310.0,2.0,4.0,3.0,4.0,1.0,1.0,1.0,1.0,0.3895,2694.8,1.0,0.0709,2111.0,32,2001.0
67047fbe4a73fb7c0e482271,30.0,0.0,505.0,311.0,2.0,1.0,3.0,2.0,3.0,2.0,2.0,1.0,0.3652,2696.8807,2.0,0.0694,221.0,23,1.0
67047fbe4a73fb7c0e482271,30.0,0.0,571.0,312.0,2.0,3.0,2.0,2.0,3.0,2.0,2.0,0.0,0.5721,2698.9733,1.0,0.0014,230.0,23,230.0
67047fbe4a73fb7c0e482271,30.0,0.0,346.0,313.0,1.0,1.0,2.0,2.0,2.0,2.0,2.0,1.0,0.2452,2701.2758,2.0,0.0696,32.0,5,2.0
67047fbe4a73fb7c0e482271,30.0,0.0,161.0,314.0,3.0,2.0,3.0,3.0,3.0,1.0,1.0,1.0,0.3825,2703.3096,1.0,0.0701,410.0,41,410.0
67047fbe4a73fb7c0e482271,30.0,0.0,271.0,315.0,4.0,4.0,3.0,3.0,3.0,1.0,1.0,1.0,0.2652,2705.4312,1.0,0.1339,2300.0,50,2000.0
67047fbe4a73fb7c0e482271,30.0,0.0,596.0,316.0,2.0,3.0,3.0,3.0,3.0,2.0,1.0,1.0,0.641,2707.505,2.0,0.1014,410.0,41,410.0
67047fbe4a73fb7c0e482271,30.0,0.0,372.0,317.0,2.0,1.0,3.0,1.0,2.0,2.0,2.0,1.0,2.8646,2709.9176,2.0,0.0703,122.0,14,2.0
67047fbe4a73fb7c0e482271,30.0,0.0,278.0,318.0,4.0,4.0,3.0,3.0,3.0,1.0,1.0,1.0,0.48,2714.5224,1.0,0.0333,2300.0,50,2000.0
67047fbe4a73fb7c0e482271,30.0,0.0,85.0,319.0,2.0,3.0,3.0,2.0,3.0,1.0,1.0,0.0,0.6217,2716.6902,2.0,0.1324,320.0,32,320.0
67047fbe4a73fb7c0e482271,30.0,0.0,351.0,320.0,1.0,1.0,2.0,2.0,2.0,2.0,2.0,1.0,0.6859,2719.1747,2.0,0.1007,32.0,5,2.0
67047fbe4a73fb7c0e482271,30.0,0.0,31.0,321.0,2.0,2.0,3.0,2.0,2.0,1.0,2.0,0.0,1.3067,2721.7109,2.0,0.0656,140.0,14,140.0
67047fbe4a73fb7c0e482271,30.0,0.0,401.0,322.0,3.0,1.0,2.0,3.0,1.0,2.0,2.0,1.0,0.5318,2724.8254,2.0,0.069,212.0,23,2.0
67047fbe4a73fb7c0e482271,30.0,0.0,309.0,323.0,1.0,1.0,2.0,1.0,2.0,2.0,2.0,1.0,0.368,2727.1578,2.0,0.1002,23.0,5,3.0
67047fbe4a73fb7c0e482271,30.0,0.0,395.0,324.0,3.0,1.0,2.0,3.0,1.0,2.0,2.0,1.0,0.2999,2729.2738,2.0,0.0328,212.0,23,2.0
67047fbe4a73fb7c0e482271,30.0,0.0,533.0,325.0,3.0,2.0,3.0,1.0,4.0,2.0,1.0,0.0,0.5844,2731.2575,1.0,0.0361,1211.0,32,1001.0
67047fbe4a73fb7c0e482271,30.0,0.0,355.0,326.0,1.0,1.0,2.0,2.0,2.0,2.0,2.0,1.0,0.4345,2733.6345,2.0,0.0385,32.0,5,2.0
67047fbe4a73fb7c0e482271,30.0,0.0,577.0,327.0,2.0,3.0,2.0,2.0,4.0,2.0,1.0,1.0,0.4611,2735.8089,2.0,0.0016,1130.0,23,1000.0
67047fbe4a73fb7c0e482271,30.0,0.0,383.0,328.0,2.0,1.0,3.0,1.0,2.0,2.0,2.0,1.0,0.365,2737.9385,2.0,0.0687,122.0,14,2.0
67047fbe4a73fb7c0e482271,30.0,0.0,358.0,329.0,2.0,1.0,3.0,1.0,2.0,2.0,2.0,1.0,0.2698,2740.0246,2.0,0.13,122.0,14,2.0
67047fbe4a73fb7c0e482271,30.0,0.0,284.0,330.0,4.0,4.0,3.0,3.0,3.0,1.0,1.0,1.0,0.2973,2742.0758,1.0,0.1332,2300.0,50,2000.0
67047fbe4a73fb7c0e482271,30.0,0.0,290.0,331.0,4.0,4.0,4.0,3.0,3.0,1.0,1.0,1.0,0.3666,2744.1587,1.0,0.1032,3200.0,50,3000.0
67047fbe4a73fb7c0e482271,30.0,0.0,531.0,332.0,1.0,3.0,3.0,3.0,2.0,2.0,2.0,1.0,0.3671,2746.2913,2.0,0.0345,311.0,32,1.0
67047fbe4a73fb7c0e482271,30.0,0.0,233.0,333.0,3.0,3.0,4.0,4.0,2.0,1.0,1.0,1.0,0.397,2748.3583,1.0,0.1018,2210.0,41,2000.0
67047fbe4a73fb7c0e482271,30.0,0.0,296.0,334.0,4.0,4.0,4.0,3.0,3.0,1.0,1.0,1.0,0.4825,2750.5082,1.0,0.0013,3200.0,50,3000.0
67047fbe4a73fb7c0e482271,30.0,0.0,154.0,335.0,3.0,2.0,3.0,3.0,3.0,1.0,1.0,1.0,0.5331,2752.6226,1.0,0.1035,410.0,41,410.0
67047fbe4a73fb7c0e482271,30.0,0.0,49.0,336.0,4.0,2.0,2.0,2.0,3.0,1.0,1.0,1.0,2.8506,2754.9082,1.0,0.1002,1130.0,23,1000.0
67047fbe4a73fb7c0e482271,30.0,0.0,339.0,337.0,1.0,3.0,1.0,4.0,1.0,2.0,2.0,1.0,0.545,2759.5061,2.0,0.0985,1103.0,23,1003.0
67047fbe4a73fb7c0e482271,30.0,0.0,333.0,338.0,2.0,1.0,4.0,1.0,1.0,2.0,2.0,1.0,0.4653,2761.806,2.0,0.0332,1013.0,14,1003.0
67047fbe4a73fb7c0e482271,30.0,0.0,70.0,339.0,2.0,3.0,3.0,2.0,3.0,1.0,1.0,1.0,0.3957,2763.9566,1.0,0.0983,320.0,32,320.0
67047fbe4a73fb7c0e482271,30.0,0.0,390.0,340.0,2.0,1.0,3.0,1.0,2.0,2.0,2.0,1.0,0.615,2766.1282,2.0,0.0015,122.0,14,2.0
67047fbe4a73fb7c0e482271,30.0,0.0,112.0,341.0,2.0,4.0,3.0,2.0,3.0,1.0,1.0,1.0,0.4385,2768.3946,1.0,0.0012,1220.0,32,1000.0
67047fbe4a73fb7c0e482271,30.0,0.0,4.0,342.0,2.0,2.0,1.0,3.0,3.0,1.0,2.0,0.0,3.0981,2770.5063,2.0,0.0018,221.0,23,1.0
67047fbe4a73fb7c0e482271,30.0,0.0,286.0,343.0,4.0,4.0,4.0,3.0,3.0,1.0,1.0,1.0,0.6784,2775.3255,1.0,0.0676,3200.0,50,3000.0
67047fbe4a73fb7c0e482271,30.0,0.0,317.0,344.0,1.0,1.0,2.0,1.0,2.0,2.0,2.0,1.0,0.4228,2777.8087,2.0,0.0326,23.0,5,3.0
67047fbe4a73fb7c0e482271,30.0,0.0,83.0,345.0,2.0,3.0,3.0,2.0,3.0,1.0,1.0,1.0,0.5197,2779.8953,1.0,0.0012,320.0,32,320.0
67047fbe4a73fb7c0e482271,30.0,0.0,230.0,346.0,3.0,3.0,4.0,4.0,2.0,1.0,1.0,1.0,0.2796,2782.0813,1.0,0.101,2210.0,41,2000.0
67047fbe4a73fb7c0e482271,30.0,0.0,48.0,347.0,2.0,2.0,3.0,3.0,2.0,1.0,2.0,0.0,0.5381,2784.1251,2.0,0.0649,230.0,23,230.0
67047fbe4a73fb7c0e482271,30.0,0.0,167.0,348.0,4.0,3.0,3.0,2.0,3.0,1.0,1.0,1.0,0.2336,2786.4731,1.0,0.0985,1310.0,41,1000.0
67047fbe4a73fb7c0e482271,30.0,0.0,68.0,349.0,2.0,2.0,4.0,2.0,4.0,1.0,1.0,0.0,0.4424,2788.5405,2.0,0.0974,2030.0,23,2000.0
67047fbe4a73fb7c0e482271,30.0,0.0,188.0,350.0,4.0,3.0,3.0,2.0,3.0,1.0,1.0,1.0,0.4681,2790.7924,1.0,0.0707,1310.0,41,1000.0
67047fbe4a73fb7c0e482271,30.0,0.0,216.0,351.0,3.0,3.0,4.0,4.0,2.0,1.0,1.0,1.0,0.2008,2793.0746,1.0,0.0998,2210.0,41,2000.0
67047fbe4a73fb7c0e482271,30.0,0.0,8.0,352.0,2.0,1.0,2.0,3.0,4.0,1.0,2.0,0.0,0.5687,2795.0451,2.0,0.0676,1121.0,23,1001.0
67047fbe4a73fb7c0e482271,30.0,0.0,449.0,353.0,1.0,2.0,2.0,3.0,2.0,2.0,2.0,1.0,0.535,2797.4083,2.0,0.0988,131.0,14,1.0
67047fbe4a73fb7c0e482271,30.0,0.0,217.0,354.0,3.0,3.0,4.0,4.0,2.0,1.0,1.0,1.0,0.4686,2799.7911,1.0,0.0326,2210.0,41,2000.0
67047fbe4a73fb7c0e482271,30.0,0.0,171.0,355.0,4.0,3.0,3.0,2.0,3.0,1.0,1.0,1.0,2.2206,2801.9403,1.0,0.0017,1310.0,41,1000.0
67047fbe4a73fb7c0e482271,30.0,0.0,509.0,356.0,2.0,1.0,3.0,2.0,3.0,2.0,2.0,1.0,0.504,2805.8566,2.0,0.0641,221.0,23,1.0
67047fbe4a73fb7c0e482271,30.0,0.0,585.0,357.0,2.0,2.0,3.0,3.0,3.0,2.0,1.0,0.0,0.5561,2808.0757,1.0,0.0661,320.0,32,320.0
67047fbe4a73fb7c0e482271,30.0,0.0,588.0,358.0,2.0,2.0,3.0,3.0,3.0,2.0,1.0,0.0,0.3746,2810.4116,1.0,0.0674,320.0,32,320.0
67047fbe4a73fb7c0e482271,30.0,0.0,598.0,359.0,2.0,3.0,3.0,3.0,3.0,2.0,1.0,0.0,0.3629,2812.5222,1.0,0.0013,410.0,41,410.0
67047fbe4a73fb7c0e482271,30.0,0.0,205.0,360.0,3.0,3.0,4.0,4.0,2.0,1.0,1.0,1.0,0.3034,2814.5405,1.0,0.0367,2210.0,41,2000.0
67047fbe4a73fb7c0e482271,30.0,0.0,420.0,361.0,1.0,3.0,3.0,3.0,1.0,2.0,2.0,1.0,0.3342,2816.6421,2.0,0.0675,302.0,32,2.0
67047fbe4a73fb7c0e482271,30.0,0.0,9.0,362.0,2.0,2.0,1.0,4.0,4.0,1.0,1.0,1.0,0.4324,2818.691,1.0,0.0772,2021.0,23,2001.0
67047fbe4a73fb7c0e482271,30.0,0.0,394.0,363.0,3.0,1.0,2.0,3.0,1.0,2.0,2.0,1.0,0.3028,2820.8717,2.0,0.0014,212.0,23,2.0
67047fbe4a73fb7c0e482271,30.0,0.0,69.0,364.0,2.0,2.0,4.0,2.0,4.0,1.0,1.0,1.0,0.3626,2822.8252,1.0,0.0012,2030.0,23,2000.0
67047fbe4a73fb7c0e482271,30.0,0.0,187.0,365.0,4.0,3.0,3.0,2.0,3.0,1.0,1.0,1.0,0.3622,2824.8385,1.0,0.0013,1310.0,41,1000.0
67047fbe4a73fb7c0e482271,30.0,0.0,105.0,366.0,2.0,4.0,3.0,2.0,3.0,1.0,1.0,1.0,0.301,2826.8731,1.0,0.0332,1220.0,32,1000.0
67047fbe4a73fb7c0e482271,30.0,0.0,385.0,367.0,2.0,1.0,3.0,1.0,2.0,2.0,2.0,1.0,0.2388,2828.8736,2.0,0.0013,122.0,14,2.0
67047fbe4a73fb7c0e482271,30.0,0.0,400.0,368.0,3.0,1.0,2.0,3.0,1.0,2.0,2.0,1.0,0.3026,2830.7879,2.0,0.0015,212.0,23,2.0
67047fbe4a73fb7c0e482271,30.0,0.0,554.0,369.0,2.0,2.0,3.0,2.0,2.0,2.0,2.0,1.0,0.4006,2832.7418,2.0,0.0328,140.0,14,140.0
67047fbe4a73fb7c0e482271,30.0,0.0,580.0,370.0,2.0,2.0,3.0,3.0,3.0,2.0,1.0,0.0,0.2083,2834.8249,1.0,0.0347,320.0,32,320.0
67047fbe4a73fb7c0e482271,30.0,0.0,181.0,371.0,4.0,3.0,3.0,2.0,3.0,1.0,1.0,1.0,0.2107,2836.8048,1.0,0.0678,1310.0,41,1000.0
67047fbe4a73fb7c0e482271,30.0,0.0,145.0,372.0,4.0,3.0,2.0,2.0,4.0,1.0,1.0,1.0,4.335,2838.8239,1.0,0.0357,2120.0,32,2000.0
67047fbe4a73fb7c0e482271,30.0,0.0,51.0,373.0,4.0,2.0,2.0,2.0,3.0,1.0,1.0,1.0,0.4454,2844.8583,1.0,0.0014,1130.0,23,1000.0
67047fbe4a73fb7c0e482271,30.0,0.0,321.0,374.0,1.0,1.0,3.0,1.0,2.0,2.0,2.0,1.0,0.2668,2846.9582,2.0,0.1011,113.0,14,3.0
67047fbe4a73fb7c0e482271,30.0,0.0,574.0,375.0,2.0,3.0,2.0,2.0,3.0,2.0,2.0,1.0,0.2992,2848.9768,2.0,0.1067,230.0,23,230.0
67047fbe4a73fb7c0e482271,30.0,0.0,172.0,376.0,4.0,3.0,3.0,2.0,3.0,1.0,1.0,1.0,0.4021,2851.0391,1.0,0.0012,1310.0,41,1000.0
67047fbe4a73fb7c0e482271,30.0,0.0,89.0,377.0,2.0,4.0,3.0,2.0,3.0,1.0,1.0,1.0,1.3329,2853.0908,1.0,0.0013,1220.0,32,1000.0
67047fbe4a73fb7c0e482271,30.0,0.0,133.0,378.0,4.0,3.0,2.0,2.0,4.0,1.0,1.0,1.0,0.4326,2856.0732,1.0,0.0014,2120.0,32,2000.0
67047fbe4a73fb7c0e482271,30.0,0.0,168.0,379.0,4.0,3.0,3.0,2.0,3.0,1.0,1.0,1.0,0.2349,2858.1552,1.0,0.1053,1310.0,41,1000.0
67047fbe4a73fb7c0e482271,30.0,0.0,374.0,380.0,2.0,1.0,3.0,1.0,2.0,2.0,2.0,1.0,0.236,2860.1584,2.0,0.0675,122.0,14,2.0
67047fbe4a73fb7c0e482271,30.0,0.0,104.0,381.0,2.0,4.0,3.0,2.0,3.0,1.0,1.0,1.0,0.7523,2862.1079,1.0,0.1331,1220.0,32,1000.0
67047fbe4a73fb7c0e482271,30.0,0.0,545.0,382.0,2.0,2.0,3.0,2.0,2.0,2.0,2.0,1.0,1.0096,2864.6453,2.0,0.0014,140.0,14,140.0
67047fbe4a73fb7c0e482271,30.0,0.0,246.0,383.0,3.0,4.0,4.0,4.0,2.0,1.0,1.0,1.0,0.4673,2867.3064,1.0,0.0013,3110.0,41,3000.0
67047fbe4a73fb7c0e482271,30.0,0.0,189.0,384.0,4.0,3.0,3.0,2.0,3.0,1.0,1.0,1.0,0.4022,2869.4078,1.0,0.0367,1310.0,41,1000.0
67047fbe4a73fb7c0e482271,30.0,0.0,334.0,385.0,1.0,1.0,1.0,3.0,3.0,2.0,2.0,1.0,0.2059,2871.5074,2.0,0.1051,203.0,23,3.0
67047fbe4a73fb7c0e482271,30.0,0.0,595.0,386.0,2.0,3.0,3.0,3.0,3.0,2.0,1.0,0.0,0.3387,2873.4668,1.0,0.1039,410.0,41,410.0
67047fbe4a73fb7c0e482271,30.0,0.0,127.0,387.0,4.0,3.0,2.0,2.0,4.0,1.0,1.0,1.0,0.4364,2875.643,1.0,0.1029,2120.0,32,2000.0
67047fbe4a73fb7c0e482271,30.0,0.0,142.0,388.0,4.0,3.0,2.0,2.0,4.0,1.0,1.0,1.0,0.3103,2877.9083,1.0,0.0676,2120.0,32,2000.0
67047fbe4a73fb7c0e482271,30.0,0.0,2.0,389.0,4.0,2.0,2.0,1.0,2.0,1.0,2.0,1.0,0.3672,2879.9548,1.0,0.0679,1031.0,14,1001.0
67047fbe4a73fb7c0e482271,30.0,0.0,479.0,390.0,2.0,1.0,3.0,2.0,3.0,2.0,2.0,1.0,0.3671,2882.0567,2.0,0.0325,221.0,23,1.0
67047fbe4a73fb7c0e482271,30.0,0.0,539.0,391.0,1.0,3.0,4.0,3.0,3.0,2.0,1.0,1.0,0.2731,2884.1054,2.0,0.1002,1301.0,41,1001.0
67047fbe4a73fb7c0e482271,30.0,0.0,303.0,392.0,2.0,1.0,1.0,1.0,1.0,2.0,2.0,1.0,3.0183,2886.1301,2.0,0.0018,14.0,5,4.0
67047fbe4a73fb7c0e482271,30.0,0.0,495.0,393.0,2.0,1.0,3.0,2.0,3.0,2.0,2.0,1.0,0.4662,2890.7909,2.0,0.0676,221.0,23,1.0
67047fbe4a73fb7c0e482271,30.0,0.0,475.0,394.0,2.0,4.0,2.0,2.0,1.0,2.0,2.0,0.0,0.4373,2892.972,1.0,0.0998,1031.0,14,1001.0
67047fbe4a73fb7c0e482271,30.0,0.0,483.0,395.0,2.0,1.0,3.0,2.0,3.0,2.0,2.0,1.0,0.377,2895.2254,2.0,0.0344,221.0,23,1.0
67047fbe4a73fb7c0e482271,30.0,0.0,79.0,396.0,2.0,3.0,3.0,2.0,3.0,1.0,1.0,0.0,0.2033,2897.3714,2.0,0.0657,320.0,32,320.0
67047fbe4a73fb7c0e482271,30.0,0.0,37.0,397.0,2.0,2.0,3.0,3.0,2.0,1.0,2.0,1.0,0.4084,2899.4074,1.0,0.0012,230.0,23,230.0
67047fbe4a73fb7c0e482271,30.0,0.0,238.0,398.0,3.0,4.0,4.0,4.0,2.0,1.0,1.0,1.0,0.5411,2901.5584,1.0,0.0683,3110.0,41,3000.0
67047fbe4a73fb7c0e482271,30.0,0.0,532.0,399.0,1.0,3.0,3.0,3.0,2.0,2.0,2.0,1.0,0.3788,2903.8144,2.0,0.0013,311.0,32,1.0
67047fbe4a73fb7c0e482271,30.0,0.0,373.0,400.0,2.0,1.0,3.0,1.0,2.0,2.0,2.0,1.0,0.3761,2905.8392,2.0,0.0365,122.0,14,2.0
67047fbe4a73fb7c0e482271,30.0,0.0,220.0,401.0,3.0,3.0,4.0,4.0,2.0,1.0,1.0,1.0,0.4079,2907.8997,1.0,0.0993,2210.0,41,2000.0
67047fbe4a73fb7c0e482271,30.0,0.0,258.0,402.0,4.0,3.0,3.0,3.0,3.0,1.0,1.0,1.0,0.2082,2910.0794,1.0,0.1038,1400.0,50,1000.0
67047fbe4a73fb7c0e482271,30.0,0.0,404.0,403.0,3.0,1.0,2.0,3.0,1.0,2.0,2.0,1.0,0.2969,2912.0704,2.0,0.0012,212.0,23,2.0
67047fbe4a73fb7c0e482271,30.0,0.0,214.0,404.0,3.0,3.0,4.0,4.0,2.0,1.0,1.0,1.0,0.3662,2914.0232,1.0,0.0389,2210.0,41,2000.0
67047fbe4a73fb7c0e482271,30.0,0.0,155.0,405.0,3.0,2.0,3.0,3.0,3.0,1.0,1.0,1.0,0.4008,2916.0741,1.0,0.0995,410.0,41,410.0
67047fbe4a73fb7c0e482271,30.0,0.0,340.0,406.0,1.0,1.0,2.0,2.0,2.0,2.0,2.0,1.0,0.2016,2918.2412,2.0,0.0656,32.0,5,2.0
67047fbe4a73fb7c0e482271,30.0,0.0,468.0,407.0,1.0,2.0,2.0,3.0,2.0,2.0,2.0,1.0,0.5001,2920.1786,2.0,0.0015,131.0,14,1.0
67047fbe4a73fb7c0e482271,30.0,0.0,74.0,408.0,2.0,3.0,3.0,2.0,3.0,1.0,1.0,1.0,0.4053,2922.3399,1.0,0.067,320.0,32,320.0
67047fbe4a73fb7c0e482271,30.0,0.0,493.0,409.0,2.0,1.0,3.0,2.0,3.0,2.0,2.0,1.0,0.3315,2924.4443,2.0,0.1332,221.0,23,1.0
67047fbe4a73fb7c0e482271,30.0,0.0,578.0,410.0,2.0,3.0,2.0,2.0,4.0,2.0,1.0,0.0,0.6074,2926.5747,1.0,0.0998,1130.0,23,1000.0
67047fbe4a73fb7c0e482271,30.0,0.0,19.0,411.0,2.0,4.0,3.0,4.0,1.0,1.0,1.0,0.0,0.6511,2929.0297,2.0,0.3033,2111.0,32,2001.0
67047fbe4a73fb7c0e482271,30.0,0.0,143.0,412.0,4.0,3.0,2.0,2.0,4.0,1.0,1.0,1.0,2.7998,2931.6578,1.0,0.0671,2120.0,32,2000.0
67047fbe4a73fb7c0e482271,30.0,0.0,166.0,413.0,4.0,3.0,3.0,2.0,3.0,1.0,1.0,1.0,0.5341,2936.2606,1.0,0.0329,1310.0,41,1000.0
67047fbe4a73fb7c0e482271,30.0,0.0,298.0,414.0,4.0,3.0,4.0,4.0,4.0,1.0,1.0,1.0,0.4501,2938.4884,1.0,0.0012,4100.0,50,4000.0
67047fbe4a73fb7c0e482271,30.0,0.0,30.0,415.0,2.0,2.0,3.0,2.0,2.0,1.0,2.0,1.0,0.4631,2940.6068,1.0,0.1327,140.0,14,140.0
67047fbe4a73fb7c0e482271,30.0,0.0,341.0,416.0,1.0,1.0,2.0,2.0,2.0,2.0,2.0,1.0,0.5001,2942.8548,2.0,0.0013,32.0,5,2.0
67047fbe4a73fb7c0e482271,30.0,0.0,412.0,417.0,3.0,1.0,2.0,3.0,1.0,2.0,2.0,1.0,0.3348,2945.0243,2.0,0.0678,212.0,23,2.0
67047fbe4a73fb7c0e482271,30.0,0.0,316.0,418.0,1.0,1.0,2.0,1.0,2.0,2.0,2.0,1.0,0.3031,2947.0726,2.0,0.0732,23.0,5,3.0
67047fbe4a73fb7c0e482271,30.0,0.0,474.0,419.0,2.0,4.0,2.0,2.0,1.0,2.0,2.0,1.0,0.5009,2949.1235,2.0,0.0975,1031.0,14,1001.0
67047fbe4a73fb7c0e482271,30.0,0.0,338.0,420.0,1.0,1.0,1.0,3.0,3.0,2.0,2.0,1.0,0.4672,2951.3904,2.0,0.0326,203.0,23,3.0
67047fbe4a73fb7c0e482271,30.0,0.0,27.0,421.0,3.0,4.0,1.0,3.0,4.0,1.0,1.0,1.0,0.4305,2953.5581,1.0,0.1115,2201.0,41,2001.0
67047fbe4a73fb7c0e482271,30.0,0.0,198.0,422.0,4.0,3.0,3.0,2.0,3.0,1.0,1.0,1.0,2.8673,2955.7749,1.0,0.0015,1310.0,41,1000.0
67047fbe4a73fb7c0e482271,30.0,0.0,297.0,423.0,4.0,3.0,4.0,4.0,4.0,1.0,1.0,1.0,0.4667,2960.3215,1.0,0.0358,4100.0,50,4000.0
67047fbe4a73fb7c0e482271,30.0,0.0,295.0,424.0,4.0,4.0,4.0,3.0,3.0,1.0,1.0,1.0,0.4969,2962.4899,1.0,0.0991,3200.0,50,3000.0
67047fbe4a73fb7c0e482271,30.0,0.0,210.0,425.0,3.0,3.0,4.0,4.0,2.0,1.0,1.0,1.0,0.3691,2964.7376,1.0,0.0013,2210.0,41,2000.0
67047fbe4a73fb7c0e482271,30.0,0.0,248.0,426.0,3.0,4.0,4.0,4.0,2.0,1.0,1.0,1.0,0.3342,2966.7569,1.0,0.1009,3110.0,41,3000.0
67047fbe4a73fb7c0e482271,30.0,0.0,307.0,427.0,1.0,1.0,2.0,1.0,2.0,2.0,2.0,1.0,0.3976,2968.855,2.0,0.0013,23.0,5,3.0
67047fbe4a73fb7c0e482271,30.0,0.0,487.0,428.0,2.0,1.0,3.0,2.0,3.0,2.0,2.0,1.0,0.3679,2970.9235,2.0,0.0642,221.0,23,1.0
67047fbe4a73fb7c0e482271,30.0,0.0,52.0,429.0,4.0,2.0,2.0,2.0,3.0,1.0,1.0,1.0,0.4322,2973.0067,1.0,0.0012,1130.0,23,1000.0
67047fbe4a73fb7c0e482271,30.0,0.0,139.0,430.0,4.0,3.0,2.0,2.0,4.0,1.0,1.0,1.0,0.4087,2975.088,1.0,0.1011,2120.0,32,2000.0
67047fbe4a73fb7c0e482271,30.0,0.0,349.0,431.0,1.0,1.0,2.0,2.0,2.0,2.0,2.0,1.0,0.2694,2977.2733,2.0,0.0648,32.0,5,2.0
67047fbe4a73fb7c0e482271,30.0,0.0,94.0,432.0,2.0,4.0,3.0,2.0,3.0,1.0,1.0,1.0,0.5346,2979.2596,1.0,0.1694,1220.0,32,1000.0
67047fbe4a73fb7c0e482271,30.0,0.0,445.0,433.0,1.0,2.0,2.0,3.0,2.0,2.0,2.0,1.0,0.5149,2981.6076,2.0,0.304,131.0,14,1.0
67047fbe4a73fb7c0e482271,30.0,0.0,11.0,434.0,2.0,3.0,1.0,3.0,3.0,1.0,2.0,0.0,0.6063,2984.0882,2.0,0.0366,311.0,32,1.0
67047fbe4a73fb7c0e482271,30.0,0.0,1.0,435.0,1.0,3.0,2.0,2.0,2.0,1.0,2.0,0.0,0.4529,2986.4556,2.0,0.0366,131.0,14,1.0
67047fbe4a73fb7c0e482271,30.0,0.0,529.0,436.0,1.0,3.0,3.0,3.0,2.0,2.0,2.0,1.0,0.5403,2988.5894,2.0,0.0989,311.0,32,1.0
67047fbe4a73fb7c0e482271,30.0,0.0,440.0,437.0,1.0,2.0,2.0,3.0,2.0,2.0,2.0,1.0,0.4422,2990.9544,2.0,0.0677,131.0,14,1.0
67047fbe4a73fb7c0e482271,30.0,0.0,175.0,438.0,4.0,3.0,3.0,2.0,3.0,1.0,1.0,1.0,0.5655,2993.1216,1.0,0.0687,1310.0,41,1000.0
67047fbe4a73fb7c0e482271,30.0,0.0,410.0,439.0,3.0,1.0,2.0,3.0,1.0,2.0,2.0,1.0,3.6167,2995.4071,2.0,0.0361,212.0,23,2.0
67047fbe4a73fb7c0e482271,30.0,0.0,257.0,440.0,4.0,3.0,3.0,3.0,3.0,1.0,1.0,1.0,0.5025,3000.7213,1.0,0.1004,1400.0,50,1000.0
67047fbe4a73fb7c0e482271,30.0,0.0,72.0,441.0,2.0,3.0,3.0,2.0,3.0,1.0,1.0,0.0,0.5667,3002.9902,2.0,0.0338,320.0,32,320.0
67047fbe4a73fb7c0e482271,30.0,0.0,221.0,442.0,3.0,3.0,4.0,4.0,2.0,1.0,1.0,1.0,0.4697,3005.3405,1.0,0.1333,2210.0,41,2000.0
67047fbe4a73fb7c0e482271,30.0,0.0,158.0,443.0,3.0,2.0,3.0,3.0,3.0,1.0,1.0,1.0,0.5252,3007.6739,1.0,0.136,410.0,41,410.0
67047fbe4a73fb7c0e482271,30.0,0.0,204.0,444.0,3.0,3.0,4.0,4.0,2.0,1.0,1.0,1.0,0.3991,3010.0031,1.0,0.0683,2210.0,41,2000.0
67047fbe4a73fb7c0e482271,30.0,0.0,347.0,445.0,1.0,1.0,2.0,2.0,2.0,2.0,2.0,1.0,0.531,3012.1226,2.0,0.0349,32.0,5,2.0
67047fbe4a73fb7c0e482271,30.0,0.0,263.0,446.0,4.0,3.0,3.0,3.0,3.0,1.0,1.0,1.0,0.5012,3014.3414,1.0,0.1009,1400.0,50,1000.0
67047fbe4a73fb7c0e482271,30.0,0.0,592.0,447.0,2.0,4.0,3.0,3.0,2.0,2.0,1.0,0.0,0.371,3016.5959,1.0,0.0013,1220.0,32,1000.0
67047fbe4a73fb7c0e482271,30.0,0.0,438.0,448.0,1.0,2.0,2.0,3.0,2.0,2.0,2.0,1.0,0.3691,3018.738,2.0,0.086,131.0,14,1.0
67047fbe4a73fb7c0e482271,30.0,0.0,367.0,449.0,2.0,1.0,3.0,1.0,2.0,2.0,2.0,1.0,0.4673,3020.9549,2.0,0.0656,122.0,14,2.0
67047fbe4a73fb7c0e482271,30.0,0.0,107.0,450.0,2.0,4.0,3.0,2.0,3.0,1.0,1.0,1.0,0.4831,3023.1407,1.0,0.0334,1220.0,32,1000.0
67047fbe4a73fb7c0e482271,30.0,0.0,407.0,451.0,3.0,1.0,2.0,3.0,1.0,2.0,2.0,1.0,0.4966,3025.3063,2.0,0.0335,212.0,23,2.0
67047fbe4a73fb7c0e482271,30.0,0.0,586.0,452.0,2.0,2.0,3.0,3.0,3.0,2.0,1.0,1.0,0.4451,3027.4881,2.0,0.1011,320.0,32,320.0
67047fbe4a73fb7c0e482271,30.0,0.0,301.0,453.0,2.0,1.0,1.0,1.0,1.0,2.0,2.0,1.0,0.396,3029.7057,2.0,0.0339,14.0,5,4.0
67047fbe4a73fb7c0e482271,30.0,0.0,45.0,454.0,2.0,2.0,3.0,3.0,2.0,1.0,2.0,0.0,0.5452,3031.7885,2.0,0.0012,230.0,23,230.0
67047fbe4a73fb7c0e482271,30.0,0.0,237.0,455.0,3.0,4.0,4.0,4.0,2.0,1.0,1.0,1.0,2.1461,3034.0891,1.0,0.1333,3110.0,41,3000.0
67047fbe4a73fb7c0e482271,30.0,0.0,218.0,456.0,3.0,3.0,4.0,4.0,2.0,1.0,1.0,1.0,0.5749,3038.1405,1.0,0.0013,2210.0,41,2000.0
67047fbe4a73fb7c0e482271,30.0,0.0,512.0,457.0,2.0,3.0,4.0,2.0,1.0,2.0,2.0,1.0,0.5121,3040.3834,2.0,0.0012,1121.0,23,1001.0
67047fbe4a73fb7c0e482271,30.0,0.0,558.0,458.0,2.0,2.0,4.0,2.0,2.0,2.0,1.0,0.0,0.4369,3042.5737,1.0,0.1007,1040.0,14,1000.0
67047fbe4a73fb7c0e482271,30.0,0.0,20.0,459.0,2.0,4.0,3.0,4.0,1.0,1.0,1.0,0.0,0.6291,3044.8564,2.0,0.1008,2111.0,32,2001.0
67047fbe4a73fb7c0e482271,30.0,0.0,140.0,460.0,4.0,3.0,2.0,2.0,4.0,1.0,1.0,1.0,0.3694,3047.2388,1.0,0.0334,2120.0,32,2000.0
67047fbe4a73fb7c0e482271,30.0,0.0,113.0,461.0,2.0,4.0,3.0,2.0,3.0,1.0,1.0,1.0,0.3636,3049.3887,1.0,0.0335,1220.0,32,1000.0
67047fbe4a73fb7c0e482271,30.0,0.0,125.0,462.0,4.0,3.0,2.0,2.0,4.0,1.0,1.0,1.0,0.4117,3051.4551,1.0,0.0013,2120.0,32,2000.0
67047fbe4a73fb7c0e482271,30.0,0.0,236.0,463.0,3.0,4.0,4.0,4.0,2.0,1.0,1.0,1.0,0.5297,3053.5221,1.0,0.0327,3110.0,41,3000.0
67047fbe4a73fb7c0e482271,30.0,0.0,183.0,464.0,4.0,3.0,3.0,2.0,3.0,1.0,1.0,1.0,2.3349,3055.7376,1.0,0.0347,1310.0,41,1000.0
67047fbe4a73fb7c0e482271,30.0,0.0,411.0,465.0,3.0,1.0,2.0,3.0,1.0,2.0,2.0,1.0,0.429,3059.7632,2.0,0.067,212.0,23,2.0
67047fbe4a73fb7c0e482271,30.0,0.0,90.0,466.0,2.0,4.0,3.0,2.0,3.0,1.0,1.0,1.0,0.5339,3061.9052,1.0,0.0014,1220.0,32,1000.0
67047fbe4a73fb7c0e482271,30.0,0.0,523.0,467.0,1.0,3.0,3.0,3.0,2.0,2.0,2.0,1.0,0.5102,3064.1121,2.0,0.0015,311.0,32,1.0
67047fbe4a73fb7c0e482271,30.0,0.0,452.0,468.0,1.0,2.0,2.0,3.0,2.0,2.0,2.0,1.0,0.3797,3066.29,2.0,0.1334,131.0,14,1.0
67047fbe4a73fb7c0e482271,30.0,0.0,87.0,469.0,2.0,3.0,3.0,2.0,3.0,1.0,1.0,0.0,0.536,3068.4544,2.0,0.1656,320.0,32,320.0
67047fbe4a73fb7c0e482271,30.0,0.0,365.0,470.0,2.0,1.0,3.0,1.0,2.0,2.0,2.0,1.0,0.5066,3070.905,2.0,0.1003,122.0,14,2.0
67047fbe4a73fb7c0e482271,30.0,0.0,272.0,471.0,4.0,4.0,3.0,3.0,3.0,1.0,1.0,1.0,0.3982,3073.2717,1.0,0.0013,2300.0,50,2000.0
67047fbe4a73fb7c0e482271,30.0,0.0,424.0,472.0,3.0,4.0,1.0,3.0,1.0,2.0,2.0,1.0,0.6562,3075.3416,2.0,0.4298,1202.0,32,1002.0
67047fbe4a73fb7c0e482271,30.0,0.0,138.0,473.0,4.0,3.0,2.0,2.0,4.0,1.0,1.0,1.0,0.3999,3078.0971,1.0,0.0017,2120.0,32,2000.0
67047fbe4a73fb7c0e482271,30.0,0.0,28.0,474.0,4.0,1.0,3.0,4.0,4.0,1.0,1.0,1.0,0.3971,3080.1411,1.0,0.0658,3101.0,41,3001.0
67047fbe4a73fb7c0e482271,30.0,0.0,50.0,475.0,4.0,2.0,2.0,2.0,3.0,1.0,1.0,1.0,0.3894,3082.2732,1.0,0.0013,1130.0,23,1000.0
67047fbe4a73fb7c0e482271,30.0,0.0,223.0,476.0,3.0,3.0,4.0,4.0,2.0,1.0,1.0,1.0,2.3015,3084.3122,1.0,0.0738,2210.0,41,2000.0
67047fbe4a73fb7c0e482271,30.0,0.0,455.0,477.0,1.0,2.0,2.0,3.0,2.0,2.0,2.0,1.0,0.4636,3088.3623,2.0,0.0012,131.0,14,1.0
67047fbe4a73fb7c0e482271,30.0,0.0,581.0,478.0,2.0,2.0,3.0,3.0,3.0,2.0,1.0,0.0,0.5043,3090.474,1.0,0.0331,320.0,32,320.0
67047fbe4a73fb7c0e482271,30.0,0.0,436.0,479.0,2.0,2.0,1.0,2.0,2.0,2.0,2.0,1.0,0.5699,3092.7719,2.0,0.1474,41.0,5,1.0
67047fbe4a73fb7c0e482271,30.0,0.0,99.0,480.0,2.0,4.0,3.0,2.0,3.0,1.0,1.0,1.0,0.413,3095.2051,1.0,0.0674,1220.0,32,1000.0
67047fbe4a73fb7c0e482271,30.0,0.0,312.0,481.0,1.0,1.0,2.0,1.0,2.0,2.0,2.0,1.0,0.3635,3097.3569,2.0,0.1314,23.0,5,3.0
67047fbe4a73fb7c0e482271,30.0,0.0,59.0,482.0,4.0,2.0,2.0,2.0,3.0,1.0,1.0,1.0,0.3633,3099.5219,1.0,0.1347,1130.0,23,1000.0
67047fbe4a73fb7c0e482271,30.0,0.0,444.0,483.0,1.0,2.0,2.0,3.0,2.0,2.0,2.0,1.0,0.3647,3101.6873,2.0,0.1315,131.0,14,1.0
67047fbe4a73fb7c0e482271,30.0,0.0,527.0,484.0,1.0,3.0,3.0,3.0,2.0,2.0,2.0,1.0,0.4039,3103.8388,2.0,0.0017,311.0,32,1.0
67047fbe4a73fb7c0e482271,30.0,0.0,416.0,485.0,1.0,3.0,4.0,2.0,1.0,2.0,2.0,1.0,0.4985,3105.9086,2.0,0.0014,1112.0,23,1002.0
67047fbe4a73fb7c0e482271,30.0,0.0,38.0,486.0,2.0,2.0,3.0,3.0,2.0,1.0,2.0,1.0,0.43,3108.0707,1.0,0.1011,230.0,23,230.0
67047fbe4a73fb7c0e482271,30.0,0.0,514.0,487.0,2.0,3.0,4.0,2.0,1.0,2.0,2.0,1.0,0.5538,3110.2722,2.0,0.0012,1121.0,23,1001.0
67047fbe4a73fb7c0e482271,30.0,0.0,421.0,488.0,1.0,3.0,3.0,3.0,1.0,2.0,2.0,1.0,1.9136,3112.5031,2.0,0.101,302.0,32,2.0
67047fbe4a73fb7c0e482271,30.0,0.0,201.0,489.0,3.0,3.0,4.0,4.0,2.0,1.0,1.0,1.0,0.4439,3116.1741,1.0,0.0343,2210.0,41,2000.0
67047fbe4a73fb7c0e482271,30.0,0.0,108.0,490.0,2.0,4.0,3.0,2.0,3.0,1.0,1.0,1.0,0.5233,3118.3212,1.0,0.0015,1220.0,32,1000.0
67047fbe4a73fb7c0e482271,30.0,0.0,515.0,491.0,2.0,3.0,4.0,2.0,1.0,2.0,2.0,1.0,0.5636,3120.5015,2.0,0.0998,1121.0,23,1001.0
67047fbe4a73fb7c0e482271,30.0,0.0,152.0,492.0,3.0,2.0,3.0,3.0,3.0,1.0,1.0,1.0,0.5628,3122.8041,1.0,0.1012,410.0,41,410.0
67047fbe4a73fb7c0e482271,30.0,0.0,128.0,493.0,4.0,3.0,2.0,2.0,4.0,1.0,1.0,1.0,0.3775,3125.1216,1.0,0.0012,2120.0,32,2000.0
67047fbe4a73fb7c0e482271,30.0,0.0,117.0,494.0,2.0,4.0,3.0,2.0,3.0,1.0,1.0,1.0,0.31,3127.1706,1.0,0.0673,1220.0,32,1000.0
67047fbe4a73fb7c0e482271,30.0,0.0,308.0,495.0,1.0,1.0,2.0,1.0,2.0,2.0,2.0,1.0,0.4109,3129.2034,2.0,0.0013,23.0,5,3.0
67047fbe4a73fb7c0e482271,30.0,0.0,324.0,496.0,1.0,1.0,3.0,1.0,2.0,2.0,2.0,1.0,0.3668,3131.2901,2.0,0.0338,113.0,14,3.0
67047fbe4a73fb7c0e482271,30.0,0.0,332.0,497.0,1.0,1.0,3.0,1.0,2.0,2.0,2.0,1.0,0.3476,3133.3415,2.0,0.1146,113.0,14,3.0
67047fbe4a73fb7c0e482271,30.0,0.0,486.0,498.0,2.0,1.0,3.0,2.0,3.0,2.0,2.0,1.0,0.1992,3135.4905,2.0,0.1006,221.0,23,1.0
67047fbe4a73fb7c0e482271,30.0,0.0,345.0,499.0,1.0,1.0,2.0,2.0,2.0,2.0,2.0,1.0,0.2768,3137.4573,2.0,0.0014,32.0,5,2.0
67047fbe4a73fb7c0e482271,30.0,0.0,88.0,500.0,2.0,4.0,3.0,2.0,3.0,1.0,1.0,1.0,0.3136,3139.3727,1.0,0.1007,1220.0,32,1000.0
67047fbe4a73fb7c0e482271,30.0,0.0,110.0,501.0,2.0,4.0,3.0,2.0,3.0,1.0,1.0,1.0,2.1454,3141.4404,1.0,0.0346,1220.0,32,1000.0
67047fbe4a73fb7c0e482271,30.0,0.0,60.0,502.0,4.0,2.0,2.0,2.0,3.0,1.0,1.0,1.0,0.3995,3145.2885,1.0,0.0012,1130.0,23,1000.0
67047fbe4a73fb7c0e482271,30.0,0.0,42.0,503.0,2.0,2.0,3.0,3.0,2.0,1.0,2.0,1.0,0.3637,3147.3231,1.0,0.1346,230.0,23,230.0
67047fbe4a73fb7c0e482271,30.0,0.0,494.0,504.0,2.0,1.0,3.0,2.0,3.0,2.0,2.0,1.0,0.345,3149.4884,2.0,0.0352,221.0,23,1.0
67047fbe4a73fb7c0e482271,30.0,0.0,206.0,505.0,3.0,3.0,4.0,4.0,2.0,1.0,1.0,1.0,0.2088,3151.5396,1.0,0.1343,2210.0,41,2000.0
67047fbe4a73fb7c0e482271,30.0,0.0,320.0,506.0,1.0,1.0,3.0,1.0,2.0,2.0,2.0,1.0,0.2346,3153.555,2.0,0.1013,113.0,14,3.0
67047fbe4a73fb7c0e482271,30.0,0.0,287.0,507.0,4.0,4.0,4.0,3.0,3.0,1.0,1.0,1.0,0.3556,3155.5442,1.0,0.1133,3200.0,50,3000.0
67047fbe4a73fb7c0e482271,30.0,0.0,176.0,508.0,4.0,3.0,3.0,2.0,3.0,1.0,1.0,1.0,0.3621,3157.6465,1.0,0.0366,1310.0,41,1000.0
67047fbe4a73fb7c0e482271,30.0,0.0,199.0,509.0,4.0,3.0,3.0,2.0,3.0,1.0,1.0,1.0,0.3306,3159.7046,1.0,0.0331,1310.0,41,1000.0
67047fbe4a73fb7c0e482271,30.0,0.0,116.0,510.0,2.0,4.0,3.0,2.0,3.0,1.0,1.0,1.0,0.4795,3161.7214,1.0,0.0658,1220.0,32,1000.0
67047fbe4a73fb7c0e482271,30.0,0.0,306.0,511.0,1.0,1.0,1.0,1.0,3.0,2.0,2.0,1.0,0.5344,3163.9382,2.0,0.0993,104.0,14,4.0
67047fbe4a73fb7c0e482271,30.0,0.0,63.0,512.0,4.0,2.0,2.0,2.0,3.0,1.0,1.0,1.0,2.5287,3166.2225,1.0,0.0012,1130.0,23,1000.0
67047fbe4a73fb7c0e482271,30.0,0.0,314.0,513.0,1.0,1.0,2.0,1.0,2.0,2.0,2.0,1.0,0.4811,3170.404,2.0,0.1027,23.0,5,3.0
67047fbe4a73fb7c0e482271,30.0,0.0,213.0,514.0,3.0,3.0,4.0,4.0,2.0,1.0,1.0,1.0,0.2306,3172.6567,1.0,0.1008,2210.0,41,2000.0
67047fbe4a73fb7c0e482271,30.0,0.0,36.0,515.0,2.0,2.0,2.0,4.0,2.0,1.0,1.0,1.0,0.4106,3174.6387,1.0,0.068,1040.0,14,1000.0
67047fbe4a73fb7c0e482271,30.0,0.0,491.0,516.0,2.0,1.0,3.0,2.0,3.0,2.0,2.0,1.0,0.402,3176.7707,2.0,0.0651,221.0,23,1.0
67047fbe4a73fb7c0e482271,30.0,0.0,285.0,517.0,4.0,4.0,3.0,3.0,3.0,1.0,1.0,1.0,0.4119,3178.8901,1.0,0.0343,2300.0,50,2000.0
67047fbe4a73fb7c0e482271,30.0,0.0,485.0,518.0,2.0,1.0,3.0,2.0,3.0,2.0,2.0,1.0,0.3439,3181.005,2.0,0.1008,221.0,23,1.0
67047fbe4a73fb7c0e482271,30.0,0.0,587.0,519.0,2.0,2.0,3.0,3.0,3.0,2.0,1.0,0.0,0.4699,3183.1204,1.0,0.0012,320.0,32,320.0
67047fbe4a73fb7c0e482271,30.0,0.0,419.0,520.0,1.0,3.0,3.0,3.0,1.0,2.0,2.0,1.0,0.3903,3185.3371,2.0,0.0012,302.0,32,2.0
67047fbe4a73fb7c0e482271,30.0,0.0,343.0,521.0,1.0,1.0,2.0,2.0,2.0,2.0,2.0,1.0,2.4256,3187.4718,2.0,0.0674,32.0,5,2.0
67047fbe4a73fb7c0e482271,30.0,0.0,86.0,522.0,2.0,3.0,3.0,2.0,3.0,1.0,1.0,0.0,0.5704,3191.6377,2.0,0.0331,320.0,32,320.0
67047fbe4a73fb7c0e482271,30.0,0.0,281.0,523.0,4.0,4.0,3.0,3.0,3.0,1.0,1.0,1.0,0.136,3194.0046,1.0,0.1051,2300.0,50,2000.0
67047fbe4a73fb7c0e482271,30.0,0.0,446.0,524.0,1.0,2.0,2.0,3.0,2.0,2.0,2.0,1.0,0.299,3196.0049,2.0,0.0652,131.0,14,1.0
67047fbe4a73fb7c0e482271,30.0,0.0,550.0,525.0,2.0,2.0,3.0,2.0,2.0,2.0,2.0,1.0,0.8438,3198.0416,2.0,0.1342,140.0,14,140.0
67047fbe4a73fb7c0e482271,30.0,0.0,546.0,526.0,2.0,2.0,3.0,2.0,2.0,2.0,2.0,1.0,0.486,3200.6698,2.0,0.0014,140.0,14,140.0
67047fbe4a73fb7c0e482271,30.0,0.0,448.0,527.0,1.0,2.0,2.0,3.0,2.0,2.0,2.0,1.0,0.3317,3202.8289,2.0,0.0686,131.0,14,1.0
67047fbe4a73fb7c0e482271,30.0,0.0,71.0,528.0,2.0,3.0,3.0,2.0,3.0,1.0,1.0,0.0,3.6775,3204.904,2.0,0.101,320.0,32,320.0
67047fbe4a73fb7c0e482271,30.0,0.0,193.0,529.0,4.0,3.0,3.0,2.0,3.0,1.0,1.0,1.0,0.4028,3210.4378,1.0,0.1011,1310.0,41,1000.0
67047fbe4a73fb7c0e482271,30.0,0.0,451.0,530.0,1.0,2.0,2.0,3.0,2.0,2.0,2.0,1.0,0.4786,3212.7061,2.0,0.1015,131.0,14,1.0
67047fbe4a73fb7c0e482271,30.0,0.0,169.0,531.0,4.0,3.0,3.0,2.0,3.0,1.0,1.0,1.0,0.4309,3214.9563,1.0,0.0341,1310.0,41,1000.0
67047fbe4a73fb7c0e482271,30.0,0.0,356.0,532.0,1.0,1.0,2.0,2.0,2.0,2.0,2.0,1.0,0.2336,3217.0718,2.0,0.098,32.0,5,2.0
67047fbe4a73fb7c0e482271,30.0,0.0,202.0,533.0,3.0,3.0,4.0,4.0,2.0,1.0,1.0,1.0,0.3971,3219.0721,1.0,0.0345,2210.0,41,2000.0
67047fbe4a73fb7c0e482271,30.0,0.0,391.0,534.0,1.0,1.0,4.0,2.0,2.0,2.0,2.0,1.0,0.2394,3221.1726,2.0,0.1676,1022.0,14,1002.0
67047fbe4a73fb7c0e482271,30.0,0.0,442.0,535.0,1.0,2.0,2.0,3.0,2.0,2.0,2.0,1.0,0.2648,3223.2321,2.0,0.0339,131.0,14,1.0
67047fbe4a73fb7c0e482271,30.0,0.0,56.0,536.0,4.0,2.0,2.0,2.0,3.0,1.0,1.0,1.0,0.332,3225.188,1.0,0.0367,1130.0,23,1000.0
67047fbe4a73fb7c0e482271,30.0,0.0,253.0,537.0,3.0,3.0,3.0,3.0,3.0,1.0,1.0,1.0,0.6795,3227.2034,1.0,0.1346,500.0,50,500.0
67047fbe4a73fb7c0e482271,30.0,0.0,470.0,538.0,1.0,2.0,2.0,3.0,2.0,2.0,2.0,1.0,0.4123,3229.6893,2.0,0.0012,131.0,14,1.0
67047fbe4a73fb7c0e482271,30.0,0.0,364.0,539.0,2.0,1.0,3.0,1.0,2.0,2.0,2.0,1.0,0.4464,3231.7718,2.0,0.0672,122.0,14,2.0
67047fbe4a73fb7c0e482271,30.0,0.0,275.0,540.0,4.0,4.0,3.0,3.0,3.0,1.0,1.0,1.0,0.4674,3233.9396,1.0,0.0013,2300.0,50,2000.0
67047fbe4a73fb7c0e482271,30.0,0.0,109.0,541.0,2.0,4.0,3.0,2.0,3.0,1.0,1.0,1.0,0.2449,3236.0721,1.0,0.0676,1220.0,32,1000.0
67047fbe4a73fb7c0e482271,30.0,0.0,302.0,542.0,2.0,1.0,1.0,1.0,1.0,2.0,2.0,1.0,0.2336,3238.0376,2.0,0.1025,14.0,5,4.0
67047fbe4a73fb7c0e482271,30.0,0.0,553.0,543.0,2.0,2.0,3.0,2.0,2.0,2.0,2.0,1.0,0.8365,3245.0855,2.0,0.1372,140.0,14,140.0
67047fbe4a73fb7c0e482271,30.0,0.0,593.0,544.0,2.0,4.0,3.0,3.0,2.0,2.0,1.0,0.0,0.2111,3247.8209,1.0,0.0014,1220.0,32,1000.0
67047fbe4a73fb7c0e482271,30.0,0.0,377.0,545.0,2.0,1.0,3.0,1.0,2.0,2.0,2.0,1.0,0.1065,3249.7742,2.0,0.033,122.0,14,2.0
67047fbe4a73fb7c0e482271,30.0,0.0,594.0,546.0,2.0,4.0,3.0,3.0,2.0,2.0,1.0,0.0,2.738,3251.6537,1.0,0.1344,1220.0,32,1000.0
67047fbe4a73fb7c0e482271,30.0,0.0,418.0,547.0,1.0,3.0,4.0,2.0,1.0,2.0,2.0,1.0,1.0007,3256.2877,2.0,0.067,1112.0,23,1002.0
67047fbe4a73fb7c0e482271,30.0,0.0,543.0,548.0,2.0,2.0,2.0,2.0,2.0,2.0,2.0,1.0,0.5323,3259.1047,2.0,0.0338,50.0,5,50.0
67047fbe4a73fb7c0e482271,30.0,0.0,283.0,549.0,4.0,4.0,3.0,3.0,3.0,1.0,1.0,1.0,0.1665,3261.3225,1.0,0.1009,2300.0,50,2000.0
67047fbe4a73fb7c0e482271,30.0,0.0,441.0,550.0,1.0,2.0,2.0,3.0,2.0,2.0,2.0,1.0,0.5031,3263.2416,2.0,0.0012,131.0,14,1.0
67047fbe4a73fb7c0e482271,30.0,0.0,243.0,551.0,3.0,4.0,4.0,4.0,2.0,1.0,1.0,1.0,0.3971,3265.3887,1.0,0.0013,3110.0,41,3000.0
67047fbe4a73fb7c0e482271,30.0,0.0,134.0,552.0,4.0,3.0,2.0,2.0,4.0,1.0,1.0,1.0,0.2359,3267.4558,1.0,0.0013,2120.0,32,2000.0
67047fbe4a73fb7c0e482271,30.0,0.0,560.0,553.0,2.0,3.0,2.0,2.0,3.0,2.0,2.0,1.0,0.5361,3269.3607,2.0,0.0368,230.0,23,230.0
67047fbe4a73fb7c0e482271,30.0,0.0,497.0,554.0,2.0,1.0,3.0,2.0,3.0,2.0,2.0,1.0,0.2575,3271.5581,2.0,0.0781,221.0,23,1.0
67047fbe4a73fb7c0e482271,30.0,0.0,254.0,555.0,3.0,3.0,3.0,3.0,3.0,1.0,1.0,1.0,0.31,3273.5677,1.0,0.0687,500.0,50,500.0
67047fbe4a73fb7c0e482271,30.0,0.0,414.0,556.0,3.0,1.0,2.0,3.0,1.0,2.0,2.0,1.0,0.2964,3275.6192,2.0,0.1009,212.0,23,2.0
67047fbe4a73fb7c0e482271,30.0,0.0,211.0,557.0,3.0,3.0,4.0,4.0,2.0,1.0,1.0,1.0,0.2328,3277.6708,1.0,0.0338,2210.0,41,2000.0
67047fbe4a73fb7c0e482271,30.0,0.0,471.0,558.0,1.0,2.0,2.0,3.0,2.0,2.0,2.0,1.0,0.3344,3279.5906,2.0,0.0336,131.0,14,1.0
67047fbe4a73fb7c0e482271,30.0,0.0,291.0,559.0,4.0,4.0,4.0,3.0,3.0,1.0,1.0,1.0,0.6685,3281.6228,1.0,0.1486,3200.0,50,3000.0
67047fbe4a73fb7c0e482271,30.0,0.0,170.0,560.0,4.0,3.0,3.0,2.0,3.0,1.0,1.0,1.0,0.303,3284.1208,1.0,0.04,1310.0,41,1000.0
67047fbe4a73fb7c0e482271,30.0,0.0,180.0,561.0,4.0,3.0,3.0,2.0,3.0,1.0,1.0,1.0,0.3011,3286.1366,1.0,0.0012,1310.0,41,1000.0
67047fbe4a73fb7c0e482271,30.0,0.0,144.0,562.0,4.0,3.0,2.0,2.0,4.0,1.0,1.0,1.0,0.2641,3288.1059,1.0,0.0668,2120.0,32,2000.0
67047fbe4a73fb7c0e482271,30.0,0.0,240.0,563.0,3.0,4.0,4.0,4.0,2.0,1.0,1.0,1.0,0.266,3290.1057,1.0,0.066,3110.0,41,3000.0
67047fbe4a73fb7c0e482271,30.0,0.0,215.0,564.0,3.0,3.0,4.0,4.0,2.0,1.0,1.0,1.0,0.279,3292.1074,1.0,0.1121,2210.0,41,2000.0
67047fbe4a73fb7c0e482271,30.0,0.0,541.0,565.0,2.0,2.0,2.0,2.0,2.0,2.0,2.0,1.0,3.8786,3294.1368,2.0,0.1658,50.0,5,50.0
67047fbe4a73fb7c0e482271,30.0,0.0,165.0,566.0,4.0,3.0,3.0,2.0,3.0,1.0,1.0,1.0,0.2687,3299.8369,1.0,0.0343,1310.0,41,1000.0
67047fbe4a73fb7c0e482271,30.0,0.0,439.0,567.0,1.0,2.0,2.0,3.0,2.0,2.0,2.0,1.0,0.2652,3301.7898,2.0,0.0017,131.0,14,1.0
67047fbe4a73fb7c0e482271,30.0,0.0,573.0,568.0,2.0,3.0,2.0,2.0,3.0,2.0,2.0,1.0,0.8302,3303.7367,2.0,0.0664,230.0,23,230.0
67047fbe4a73fb7c0e482271,30.0,0.0,456.0,569.0,1.0,2.0,2.0,3.0,2.0,2.0,2.0,1.0,0.2715,3306.2879,2.0,0.1335,131.0,14,1.0
67047fbe4a73fb7c0e482271,30.0,0.0,350.0,570.0,1.0,1.0,2.0,2.0,2.0,2.0,2.0,1.0,0.294,3308.3438,2.0,0.0337,32.0,5,2.0
67047fbe4a73fb7c0e482271,30.0,0.0,368.0,571.0,2.0,1.0,3.0,1.0,2.0,2.0,2.0,1.0,0.3324,3310.3031,2.0,0.0662,122.0,14,2.0
67047fbe4a73fb7c0e482271,30.0,0.0,528.0,572.0,1.0,3.0,3.0,3.0,2.0,2.0,2.0,1.0,0.3096,3312.3556,2.0,0.0345,311.0,32,1.0
67047fbe4a73fb7c0e482271,30.0,0.0,504.0,573.0,2.0,1.0,3.0,2.0,3.0,2.0,2.0,1.0,0.2681,3314.3539,2.0,0.0701,221.0,23,1.0
67047fbe4a73fb7c0e482271,30.0,0.0,179.0,574.0,4.0,3.0,3.0,2.0,3.0,1.0,1.0,1.0,0.8629,3316.3585,1.0,0.1017,1310.0,41,1000.0
67047fbe4a73fb7c0e482271,30.0,0.0,191.0,575.0,4.0,3.0,3.0,2.0,3.0,1.0,1.0,1.0,1.5111,3322.1849,1.0,0.0012,1310.0,41,1000.0
67047fbe4a73fb7c0e482271,30.0,0.0,250.0,576.0,2.0,4.0,4.0,4.0,4.0,1.0,1.0,1.0,0.4334,3325.4372,1.0,0.0664,4010.0,41,4000.0
67047fbe4a73fb7c0e482271,30.0,0.0,279.0,577.0,4.0,4.0,3.0,3.0,3.0,1.0,1.0,1.0,2.1648,3327.6047,1.0,0.1118,2300.0,50,2000.0
67047fbe4a73fb7c0e482271,30.0,0.0,123.0,578.0,4.0,3.0,2.0,2.0,4.0,1.0,1.0,1.0,0.464,3331.5387,1.0,0.0012,2120.0,32,2000.0
67047fbe4a73fb7c0e482271,30.0,0.0,500.0,579.0,2.0,1.0,3.0,2.0,3.0,2.0,2.0,1.0,0.4297,3333.6718,2.0,0.0655,221.0,23,1.0
67047fbe4a73fb7c0e482271,30.0,0.0,327.0,580.0,1.0,1.0,3.0,1.0,2.0,2.0,2.0,1.0,0.4122,3335.8374,2.0,0.0343,113.0,14,3.0
67047fbe4a73fb7c0e482271,30.0,0.0,244.0,581.0,3.0,4.0,4.0,4.0,2.0,1.0,1.0,1.0,0.3639,3337.9373,1.0,0.078,3110.0,41,3000.0
67047fbe4a73fb7c0e482271,30.0,0.0,6.0,582.0,2.0,1.0,2.0,3.0,4.0,1.0,2.0,0.0,0.6237,3340.0552,2.0,0.0757,1121.0,23,1001.0
67047fbe4a73fb7c0e482271,30.0,0.0,162.0,583.0,3.0,2.0,3.0,3.0,3.0,1.0,1.0,1.0,0.5622,3342.4941,1.0,0.0683,410.0,41,410.0
67047fbe4a73fb7c0e482271,30.0,0.0,366.0,584.0,2.0,1.0,3.0,1.0,2.0,2.0,2.0,1.0,0.4305,3344.9036,2.0,0.0012,122.0,14,2.0
67047fbe4a73fb7c0e482271,30.0,0.0,536.0,585.0,3.0,3.0,3.0,3.0,1.0,2.0,2.0,1.0,0.4997,3347.004,2.0,0.0017,401.0,41,1.0
67047fbe4a73fb7c0e482271,30.0,0.0,511.0,586.0,2.0,1.0,3.0,2.0,3.0,2.0,2.0,1.0,0.4686,3349.1536,2.0,0.0715,221.0,23,1.0
67047fbe4a73fb7c0e482271,30.0,0.0,103.0,587.0,2.0,4.0,3.0,2.0,3.0,1.0,1.0,1.0,0.3803,3351.3902,1.0,0.1012,1220.0,32,1000.0
67047fbe4a73fb7c0e482271,30.0,0.0,329.0,588.0,1.0,1.0,3.0,1.0,2.0,2.0,2.0,1.0,0.3218,3353.5725,2.0,0.0665,113.0,14,3.0
67047fbe4a73fb7c0e482271,30.0,0.0,423.0,589.0,1.0,3.0,3.0,3.0,1.0,2.0,2.0,1.0,0.2336,3355.6448,2.0,0.1066,302.0,32,2.0
67047fbe4a73fb7c0e482271,30.0,0.0,120.0,590.0,2.0,4.0,3.0,2.0,3.0,1.0,1.0,1.0,0.2954,3357.6714,1.0,0.0012,1220.0,32,1000.0
67047fbe4a73fb7c0e482271,30.0,0.0,600.0,591.0,3.0,3.0,3.0,3.0,3.0,2.0,1.0,0.0,1.2723,3359.6197,1.0,0.039,500.0,50,500.0
67047fbe4a73fb7c0e482271,30.0,0.0,551.0,592.0,2.0,2.0,3.0,2.0,2.0,2.0,2.0,1.0,0.468,3362.672,2.0,0.0015,140.0,14,140.0
67047fbe4a73fb7c0e482271,30.0,0.0,506.0,593.0,2.0,1.0,3.0,2.0,3.0,2.0,2.0,1.0,0.2644,3364.9055,2.0,0.0332,221.0,23,1.0
67047fbe4a73fb7c0e482271,30.0,0.0,387.0,594.0,2.0,1.0,3.0,1.0,2.0,2.0,2.0,1.0,0.399,3366.8685,2.0,0.0337,122.0,14,2.0
67047fbe4a73fb7c0e482271,30.0,0.0,10.0,595.0,2.0,3.0,1.0,3.0,3.0,1.0,2.0,0.0,2.8979,3372.9375,2.0,0.001,311.0,32,1.0
67047fbe4a73fb7c0e482271,30.0,0.0,519.0,596.0,1.0,3.0,3.0,3.0,2.0,2.0,2.0,1.0,1.0783,3377.5721,2.0,0.0013,311.0,32,1.0
67047fbe4a73fb7c0e482271,30.0,0.0,255.0,597.0,3.0,3.0,3.0,3.0,3.0,1.0,1.0,1.0,0.7327,3380.392,1.0,0.0012,500.0,50,500.0
67047fbe4a73fb7c0e482271,30.0,0.0,549.0,598.0,2.0,2.0,3.0,2.0,2.0,2.0,2.0,1.0,0.5982,3382.7717,2.0,0.0013,140.0,14,140.0
67047fbe4a73fb7c0e482271,30.0,0.0,23.0,599.0,4.0,3.0,3.0,1.0,3.0,1.0,1.0,0.0,0.6087,3385.0558,2.0,0.1001,1301.0,41,1001.0
5fb951898639c17a684074e1,31.0,0.0,380.0,0.0,2.0,1.0,3.0,1.0,2.0,2.0,2.0,1.0,0.631,1101.668,2.0,0.245,122.0,14,2.0
5fb951898639c17a684074e1,31.0,0.0,491.0,1.0,2.0,1.0,3.0,2.0,3.0,2.0,2.0,1.0,0.461,1104.627,2.0,0.257,221.0,23,1.0
5fb951898639c17a684074e1,31.0,0.0,525.0,2.0,1.0,3.0,3.0,3.0,2.0,2.0,2.0,1.0,0.486,1107.035,2.0,0.281,311.0,32,1.0
5fb951898639c17a684074e1,31.0,0.0,580.0,3.0,2.0,2.0,3.0,3.0,3.0,2.0,1.0,0.0,10.559,1109.491,1.0,0.233,320.0,32,320.0
5fb951898639c17a684074e1,31.0,0.0,467.0,4.0,1.0,2.0,2.0,3.0,2.0,2.0,2.0,1.0,0.631,1122.093,2.0,0.003,131.0,14,1.0
5fb951898639c17a684074e1,31.0,0.0,455.0,5.0,1.0,2.0,2.0,3.0,2.0,2.0,2.0,1.0,0.54,1124.497,2.0,0.314,131.0,14,1.0
5fb951898639c17a684074e1,31.0,0.0,351.0,6.0,1.0,1.0,2.0,2.0,2.0,2.0,2.0,1.0,2.094,1127.031,2.0,0.302,32.0,5,2.0
5fb951898639c17a684074e1,31.0,0.0,563.0,7.0,2.0,3.0,2.0,2.0,3.0,2.0,2.0,1.0,0.442,1131.094,2.0,0.243,230.0,23,230.0
5fb951898639c17a684074e1,31.0,0.0,177.0,8.0,4.0,3.0,3.0,2.0,3.0,1.0,1.0,1.0,0.478,1133.438,1.0,0.413,1310.0,41,1000.0
5fb951898639c17a684074e1,31.0,0.0,115.0,9.0,2.0,4.0,3.0,2.0,3.0,1.0,1.0,1.0,0.39,1135.996,1.0,0.254,1220.0,32,1000.0
5fb951898639c17a684074e1,31.0,0.0,105.0,10.0,2.0,4.0,3.0,2.0,3.0,1.0,1.0,1.0,0.494,1138.325,1.0,0.091,1220.0,32,1000.0
5fb951898639c17a684074e1,31.0,0.0,403.0,11.0,3.0,1.0,2.0,3.0,1.0,2.0,2.0,1.0,0.479,1140.578,2.0,0.397,212.0,23,2.0
5fb951898639c17a684074e1,31.0,0.0,138.0,12.0,4.0,3.0,2.0,2.0,4.0,1.0,1.0,1.0,0.434,1143.141,1.0,0.293,2120.0,32,2000.0
5fb951898639c17a684074e1,31.0,0.0,354.0,13.0,1.0,1.0,2.0,2.0,2.0,2.0,2.0,1.0,0.493,1145.507,2.0,0.222,32.0,5,2.0
5fb951898639c17a684074e1,31.0,0.0,341.0,14.0,1.0,1.0,2.0,2.0,2.0,2.0,2.0,1.0,0.445,1147.817,2.0,0.246,32.0,5,2.0
5fb951898639c17a684074e1,31.0,0.0,533.0,15.0,3.0,2.0,3.0,1.0,4.0,2.0,1.0,0.0,0.613,1150.189,1.0,0.301,1211.0,32,1001.0
5fb951898639c17a684074e1,31.0,0.0,517.0,16.0,1.0,3.0,3.0,3.0,2.0,2.0,2.0,0.0,0.482,1152.843,1.0,0.249,311.0,32,1.0
5fb951898639c17a684074e1,31.0,0.0,530.0,17.0,1.0,3.0,3.0,3.0,2.0,2.0,2.0,1.0,0.581,1155.247,2.0,0.276,311.0,32,1.0
5fb951898639c17a684074e1,31.0,0.0,220.0,18.0,3.0,3.0,4.0,4.0,2.0,1.0,1.0,1.0,0.413,1157.846,1.0,0.231,2210.0,41,2000.0
5fb951898639c17a684074e1,31.0,0.0,566.0,19.0,2.0,3.0,2.0,2.0,3.0,2.0,2.0,1.0,0.363,1160.174,2.0,0.229,230.0,23,230.0
5fb951898639c17a684074e1,31.0,0.0,330.0,20.0,1.0,1.0,3.0,1.0,2.0,2.0,2.0,1.0,0.518,1162.444,2.0,0.262,113.0,14,3.0
5fb951898639c17a684074e1,31.0,0.0,562.0,21.0,2.0,3.0,2.0,2.0,3.0,2.0,2.0,1.0,0.377,1164.891,2.0,0.314,230.0,23,230.0
5fb951898639c17a684074e1,31.0,0.0,450.0,22.0,1.0,2.0,2.0,3.0,2.0,2.0,2.0,1.0,0.343,1167.235,2.0,0.301,131.0,14,1.0
5fb951898639c17a684074e1,31.0,0.0,303.0,23.0,2.0,1.0,1.0,1.0,1.0,2.0,2.0,1.0,0.301,1169.523,2.0,0.244,14.0,5,4.0
5fb951898639c17a684074e1,31.0,0.0,490.0,24.0,2.0,1.0,3.0,2.0,3.0,2.0,2.0,1.0,0.299,1171.719,2.0,0.255,221.0,23,1.0
5fb951898639c17a684074e1,31.0,0.0,228.0,25.0,3.0,3.0,4.0,4.0,2.0,1.0,1.0,1.0,0.372,1173.939,1.0,0.255,2210.0,41,2000.0
5fb951898639c17a684074e1,31.0,0.0,180.0,26.0,4.0,3.0,3.0,2.0,3.0,1.0,1.0,1.0,0.625,1176.239,1.0,0.254,1310.0,41,1000.0
5fb951898639c17a684074e1,31.0,0.0,136.0,27.0,4.0,3.0,2.0,2.0,4.0,1.0,1.0,1.0,0.442,1178.783,1.0,0.166,2120.0,32,2000.0
5fb951898639c17a684074e1,31.0,0.0,347.0,28.0,1.0,1.0,2.0,2.0,2.0,2.0,2.0,1.0,0.536,1181.07,2.0,0.079,32.0,5,2.0
5fb951898639c17a684074e1,31.0,0.0,44.0,29.0,2.0,2.0,3.0,3.0,2.0,1.0,2.0,0.0,0.744,1183.344,2.0,0.256,230.0,23,230.0
5fb951898639c17a684074e1,31.0,0.0,160.0,30.0,3.0,2.0,3.0,3.0,3.0,1.0,1.0,1.0,1.036,1186.112,1.0,0.234,410.0,41,410.0
5fb951898639c17a684074e1,31.0,0.0,445.0,31.0,1.0,2.0,2.0,3.0,2.0,2.0,2.0,1.0,0.65,1189.142,2.0,0.37,131.0,14,1.0
5fb951898639c17a684074e1,31.0,0.0,431.0,32.0,2.0,2.0,1.0,2.0,2.0,2.0,2.0,1.0,0.455,1191.834,2.0,0.349,41.0,5,1.0
5fb951898639c17a684074e1,31.0,0.0,325.0,33.0,1.0,1.0,3.0,1.0,2.0,2.0,2.0,1.0,0.381,1194.324,2.0,0.255,113.0,14,3.0
5fb951898639c17a684074e1,31.0,0.0,521.0,34.0,1.0,3.0,3.0,3.0,2.0,2.0,2.0,1.0,0.501,1196.612,2.0,0.075,311.0,32,1.0
5fb951898639c17a684074e1,31.0,0.0,274.0,35.0,4.0,4.0,3.0,3.0,3.0,1.0,1.0,1.0,0.5,1198.84,1.0,0.251,2300.0,50,2000.0
5fb951898639c17a684074e1,31.0,0.0,489.0,36.0,2.0,1.0,3.0,2.0,3.0,2.0,2.0,1.0,0.492,1201.288,2.0,0.044,221.0,23,1.0
5fb951898639c17a684074e1,31.0,0.0,475.0,37.0,2.0,4.0,2.0,2.0,1.0,2.0,2.0,0.0,0.664,1203.54,1.0,0.301,1031.0,14,1001.0
5fb951898639c17a684074e1,31.0,0.0,405.0,38.0,3.0,1.0,2.0,3.0,1.0,2.0,2.0,1.0,0.403,1206.262,2.0,0.309,212.0,23,2.0
5fb951898639c17a684074e1,31.0,0.0,434.0,39.0,2.0,2.0,1.0,2.0,2.0,2.0,2.0,1.0,0.527,1211.823,2.0,0.235,41.0,5,1.0
5fb951898639c17a684074e1,31.0,0.0,234.0,40.0,3.0,3.0,4.0,4.0,2.0,1.0,1.0,1.0,0.587,1214.336,1.0,0.086,2210.0,41,2000.0
5fb951898639c17a684074e1,31.0,0.0,356.0,41.0,1.0,1.0,2.0,2.0,2.0,2.0,2.0,1.0,0.446,1216.656,2.0,0.124,32.0,5,2.0
5fb951898639c17a684074e1,31.0,0.0,470.0,42.0,1.0,2.0,2.0,3.0,2.0,2.0,2.0,1.0,0.472,1218.892,2.0,0.088,131.0,14,1.0
5fb951898639c17a684074e1,31.0,0.0,179.0,43.0,4.0,3.0,3.0,2.0,3.0,1.0,1.0,1.0,0.477,1221.139,1.0,0.194,1310.0,41,1000.0
5fb951898639c17a684074e1,31.0,0.0,130.0,44.0,4.0,3.0,2.0,2.0,4.0,1.0,1.0,1.0,0.402,1223.476,1.0,0.262,2120.0,32,2000.0
5fb951898639c17a684074e1,31.0,0.0,357.0,45.0,2.0,1.0,3.0,1.0,2.0,2.0,2.0,1.0,0.492,1225.792,2.0,0.213,122.0,14,2.0
5fb951898639c17a684074e1,31.0,0.0,92.0,46.0,2.0,4.0,3.0,2.0,3.0,1.0,1.0,1.0,0.356,1228.152,1.0,0.235,1220.0,32,1000.0
5fb951898639c17a684074e1,31.0,0.0,253.0,47.0,3.0,3.0,3.0,3.0,3.0,1.0,1.0,1.0,0.469,1230.417,1.0,0.133,500.0,50,500.0
5fb951898639c17a684074e1,31.0,0.0,231.0,48.0,3.0,3.0,4.0,4.0,2.0,1.0,1.0,1.0,0.524,1232.702,1.0,0.279,2210.0,41,2000.0
5fb951898639c17a684074e1,31.0,0.0,13.0,49.0,3.0,2.0,4.0,3.0,1.0,1.0,1.0,1.0,0.397,1235.153,1.0,0.209,1211.0,32,1001.0
5fb951898639c17a684074e1,31.0,0.0,592.0,50.0,2.0,4.0,3.0,3.0,2.0,2.0,1.0,0.0,0.861,1237.426,1.0,0.356,1220.0,32,1000.0
5fb951898639c17a684074e1,31.0,0.0,279.0,51.0,4.0,4.0,3.0,3.0,3.0,1.0,1.0,1.0,0.456,1240.416,1.0,0.254,2300.0,50,2000.0
5fb951898639c17a684074e1,31.0,0.0,371.0,52.0,2.0,1.0,3.0,1.0,2.0,2.0,2.0,1.0,0.364,1242.874,2.0,0.184,122.0,14,2.0
5fb951898639c17a684074e1,31.0,0.0,11.0,53.0,2.0,3.0,1.0,3.0,3.0,1.0,2.0,0.0,0.496,1245.075,2.0,0.181,311.0,32,1.0
5fb951898639c17a684074e1,31.0,0.0,146.0,54.0,2.0,4.0,2.0,4.0,4.0,1.0,1.0,1.0,0.367,1247.52,1.0,0.305,3020.0,32,3000.0
5fb951898639c17a684074e1,31.0,0.0,52.0,55.0,4.0,2.0,2.0,2.0,3.0,1.0,1.0,1.0,0.421,1249.956,1.0,0.26,1130.0,23,1000.0
5fb951898639c17a684074e1,31.0,0.0,164.0,56.0,3.0,2.0,3.0,3.0,3.0,1.0,1.0,1.0,0.459,1252.298,1.0,0.144,410.0,41,410.0
5fb951898639c17a684074e1,31.0,0.0,120.0,57.0,2.0,4.0,3.0,2.0,3.0,1.0,1.0,1.0,0.364,1254.585,1.0,0.393,1220.0,32,1000.0
5fb951898639c17a684074e1,31.0,0.0,243.0,58.0,3.0,4.0,4.0,4.0,2.0,1.0,1.0,1.0,0.584,1256.995,1.0,0.233,3110.0,41,3000.0
5fb951898639c17a684074e1,31.0,0.0,503.0,59.0,2.0,1.0,3.0,2.0,3.0,2.0,2.0,1.0,0.333,1259.477,2.0,0.24,221.0,23,1.0
5fb951898639c17a684074e1,31.0,0.0,261.0,60.0,4.0,3.0,3.0,3.0,3.0,1.0,1.0,1.0,0.484,1261.718,1.0,0.268,1400.0,50,1000.0
5fb951898639c17a684074e1,31.0,0.0,423.0,61.0,1.0,3.0,3.0,3.0,1.0,2.0,2.0,1.0,0.421,1264.133,2.0,0.259,302.0,32,2.0
5fb951898639c17a684074e1,31.0,0.0,208.0,62.0,3.0,3.0,4.0,4.0,2.0,1.0,1.0,1.0,0.447,1266.462,1.0,0.098,2210.0,41,2000.0
5fb951898639c17a684074e1,31.0,0.0,389.0,63.0,2.0,1.0,3.0,1.0,2.0,2.0,2.0,1.0,0.372,1268.687,2.0,0.282,122.0,14,2.0
5fb951898639c17a684074e1,31.0,0.0,49.0,64.0,4.0,2.0,2.0,2.0,3.0,1.0,1.0,1.0,0.412,1270.993,1.0,0.128,1130.0,23,1000.0
5fb951898639c17a684074e1,31.0,0.0,329.0,65.0,1.0,1.0,3.0,1.0,2.0,2.0,2.0,1.0,0.425,1273.201,2.0,0.255,113.0,14,3.0
5fb951898639c17a684074e1,31.0,0.0,476.0,66.0,2.0,4.0,2.0,2.0,1.0,2.0,2.0,1.0,0.61,1275.531,2.0,0.306,1031.0,14,1001.0
5fb951898639c17a684074e1,31.0,0.0,107.0,67.0,2.0,4.0,3.0,2.0,3.0,1.0,1.0,1.0,0.396,1278.092,1.0,0.297,1220.0,32,1000.0
5fb951898639c17a684074e1,31.0,0.0,99.0,68.0,2.0,4.0,3.0,2.0,3.0,1.0,1.0,1.0,0.37,1280.464,1.0,0.282,1220.0,32,1000.0
5fb951898639c17a684074e1,31.0,0.0,414.0,69.0,3.0,1.0,2.0,3.0,1.0,2.0,2.0,1.0,0.444,1282.743,2.0,0.258,212.0,23,2.0
5fb951898639c17a684074e1,31.0,0.0,275.0,70.0,4.0,4.0,3.0,3.0,3.0,1.0,1.0,1.0,0.446,1285.144,1.0,0.23,2300.0,50,2000.0
5fb951898639c17a684074e1,31.0,0.0,188.0,71.0,4.0,3.0,3.0,2.0,3.0,1.0,1.0,1.0,0.518,1287.481,1.0,0.262,1310.0,41,1000.0
5fb951898639c17a684074e1,31.0,0.0,485.0,72.0,2.0,1.0,3.0,2.0,3.0,2.0,2.0,1.0,0.596,1289.957,2.0,0.207,221.0,23,1.0
5fb951898639c17a684074e1,31.0,0.0,362.0,73.0,2.0,1.0,3.0,1.0,2.0,2.0,2.0,1.0,0.355,1292.431,2.0,0.164,122.0,14,2.0
5fb951898639c17a684074e1,31.0,0.0,512.0,74.0,2.0,3.0,4.0,2.0,1.0,2.0,2.0,1.0,0.398,1294.61,2.0,0.399,1121.0,23,1001.0
5fb951898639c17a684074e1,31.0,0.0,291.0,75.0,4.0,4.0,4.0,3.0,3.0,1.0,1.0,1.0,0.492,1297.104,1.0,0.293,3200.0,50,3000.0
5fb951898639c17a684074e1,31.0,0.0,515.0,76.0,2.0,3.0,4.0,2.0,1.0,2.0,2.0,0.0,1.489,1299.544,1.0,0.324,1121.0,23,1001.0
5fb951898639c17a684074e1,31.0,0.0,451.0,77.0,1.0,2.0,2.0,3.0,2.0,2.0,2.0,1.0,0.399,1303.12,2.0,0.261,131.0,14,1.0
5fb951898639c17a684074e1,31.0,0.0,374.0,78.0,2.0,1.0,3.0,1.0,2.0,2.0,2.0,1.0,0.321,1305.528,2.0,0.25,122.0,14,2.0
5fb951898639c17a684074e1,31.0,0.0,577.0,79.0,2.0,3.0,2.0,2.0,4.0,2.0,1.0,1.0,0.428,1307.779,2.0,0.29,1130.0,23,1000.0
5fb951898639c17a684074e1,31.0,0.0,119.0,80.0,2.0,4.0,3.0,2.0,3.0,1.0,1.0,1.0,0.33,1310.162,1.0,0.212,1220.0,32,1000.0
5fb951898639c17a684074e1,31.0,0.0,463.0,81.0,1.0,2.0,2.0,3.0,2.0,2.0,2.0,1.0,0.355,1312.362,2.0,0.214,131.0,14,1.0
5fb951898639c17a684074e1,31.0,0.0,17.0,82.0,3.0,2.0,4.0,3.0,1.0,1.0,1.0,1.0,0.409,1314.602,1.0,0.328,1211.0,32,1001.0
5fb951898639c17a684074e1,31.0,0.0,597.0,83.0,2.0,3.0,3.0,3.0,3.0,2.0,1.0,0.0,0.579,1316.974,1.0,0.213,410.0,41,410.0
5fb951898639c17a684074e1,31.0,0.0,507.0,84.0,2.0,1.0,3.0,2.0,3.0,2.0,2.0,1.0,0.46,1319.502,2.0,0.226,221.0,23,1.0
5fb951898639c17a684074e1,31.0,0.0,382.0,85.0,2.0,1.0,3.0,1.0,2.0,2.0,2.0,1.0,0.365,1321.972,2.0,0.196,122.0,14,2.0
5fb951898639c17a684074e1,31.0,0.0,322.0,86.0,1.0,1.0,3.0,1.0,2.0,2.0,2.0,1.0,0.547,1324.199,2.0,0.004,113.0,14,3.0
5fb951898639c17a684074e1,31.0,0.0,440.0,87.0,1.0,2.0,2.0,3.0,2.0,2.0,2.0,1.0,0.454,1326.41,2.0,0.187,131.0,14,1.0
5fb951898639c17a684074e1,31.0,0.0,247.0,88.0,3.0,4.0,4.0,4.0,2.0,1.0,1.0,1.0,0.427,1328.717,1.0,0.138,3110.0,41,3000.0
5fb951898639c17a684074e1,31.0,0.0,312.0,89.0,1.0,1.0,2.0,1.0,2.0,2.0,2.0,1.0,0.594,1330.938,2.0,0.129,23.0,5,3.0
5fb951898639c17a684074e1,31.0,0.0,81.0,90.0,2.0,3.0,3.0,2.0,3.0,1.0,1.0,1.0,0.553,1333.287,1.0,0.043,320.0,32,320.0
5fb951898639c17a684074e1,31.0,0.0,500.0,91.0,2.0,1.0,3.0,2.0,3.0,2.0,2.0,1.0,0.372,1335.564,2.0,0.428,221.0,23,1.0
5fb951898639c17a684074e1,31.0,0.0,372.0,92.0,2.0,1.0,3.0,1.0,2.0,2.0,2.0,1.0,0.327,1338.031,2.0,0.236,122.0,14,2.0
5fb951898639c17a684074e1,31.0,0.0,205.0,93.0,3.0,3.0,4.0,4.0,2.0,1.0,1.0,1.0,2.867,1340.271,1.0,0.262,2210.0,41,2000.0
5fb951898639c17a684074e1,31.0,0.0,91.0,94.0,2.0,4.0,3.0,2.0,3.0,1.0,1.0,1.0,0.743,1345.076,1.0,0.228,1220.0,32,1000.0
5fb951898639c17a684074e1,31.0,0.0,77.0,95.0,2.0,3.0,3.0,2.0,3.0,1.0,1.0,1.0,0.513,1352.234,1.0,0.26,320.0,32,320.0
5fb951898639c17a684074e1,31.0,0.0,96.0,96.0,2.0,4.0,3.0,2.0,3.0,1.0,1.0,1.0,0.431,1354.817,1.0,0.281,1220.0,32,1000.0
5fb951898639c17a684074e1,31.0,0.0,184.0,97.0,4.0,3.0,3.0,2.0,3.0,1.0,1.0,1.0,0.744,1357.213,1.0,0.26,1310.0,41,1000.0
5fb951898639c17a684074e1,31.0,0.0,233.0,98.0,3.0,3.0,4.0,4.0,2.0,1.0,1.0,1.0,0.516,1359.882,1.0,0.283,2210.0,41,2000.0
5fb951898639c17a684074e1,31.0,0.0,8.0,99.0,2.0,1.0,2.0,3.0,4.0,1.0,2.0,0.0,0.654,1362.347,2.0,0.226,1121.0,23,1001.0
5fb951898639c17a684074e1,31.0,0.0,111.0,100.0,2.0,4.0,3.0,2.0,3.0,1.0,1.0,1.0,0.508,1365.056,1.0,0.138,1220.0,32,1000.0
5fb951898639c17a684074e1,31.0,0.0,570.0,101.0,2.0,3.0,2.0,2.0,3.0,2.0,2.0,0.0,0.472,1367.462,1.0,0.354,230.0,23,230.0
5fb951898639c17a684074e1,31.0,0.0,499.0,102.0,2.0,1.0,3.0,2.0,3.0,2.0,2.0,1.0,0.552,1370.044,2.0,0.252,221.0,23,1.0
5fb951898639c17a684074e1,31.0,0.0,42.0,103.0,2.0,2.0,3.0,3.0,2.0,1.0,2.0,0.0,0.881,1372.614,2.0,0.002,230.0,23,230.0
5fb951898639c17a684074e1,31.0,0.0,78.0,104.0,2.0,3.0,3.0,2.0,3.0,1.0,1.0,1.0,0.444,1375.274,1.0,0.091,320.0,32,320.0
5fb951898639c17a684074e1,31.0,0.0,174.0,105.0,4.0,3.0,3.0,2.0,3.0,1.0,1.0,1.0,0.529,1377.539,1.0,0.074,1310.0,41,1000.0
5fb951898639c17a684074e1,31.0,0.0,175.0,106.0,4.0,3.0,3.0,2.0,3.0,1.0,1.0,1.0,0.496,1379.773,1.0,0.006,1310.0,41,1000.0
5fb951898639c17a684074e1,31.0,0.0,124.0,107.0,4.0,3.0,2.0,2.0,4.0,1.0,1.0,1.0,0.487,1381.941,1.0,0.094,2120.0,32,2000.0
5fb951898639c17a684074e1,31.0,0.0,203.0,108.0,3.0,3.0,4.0,4.0,2.0,1.0,1.0,1.0,0.543,1384.19,1.0,0.066,2210.0,41,2000.0
5fb951898639c17a684074e1,31.0,0.0,297.0,109.0,4.0,3.0,4.0,4.0,4.0,1.0,1.0,1.0,0.467,1386.457,1.0,0.003,4100.0,50,4000.0
5fb951898639c17a684074e1,31.0,0.0,262.0,110.0,4.0,3.0,3.0,3.0,3.0,1.0,1.0,1.0,0.475,1388.598,1.0,0.137,1400.0,50,1000.0
5fb951898639c17a684074e1,31.0,0.0,140.0,111.0,4.0,3.0,2.0,2.0,4.0,1.0,1.0,1.0,0.645,1390.886,1.0,0.089,2120.0,32,2000.0
5fb951898639c17a684074e1,31.0,0.0,14.0,112.0,3.0,2.0,4.0,3.0,1.0,1.0,1.0,0.0,0.441,1393.323,2.0,0.211,1211.0,32,1001.0
5fb951898639c17a684074e1,31.0,0.0,153.0,113.0,3.0,2.0,3.0,3.0,3.0,1.0,1.0,1.0,0.448,1398.386,1.0,0.141,410.0,41,410.0
5fb951898639c17a684074e1,31.0,0.0,344.0,114.0,1.0,1.0,2.0,2.0,2.0,2.0,2.0,1.0,0.415,1400.71,2.0,0.372,32.0,5,2.0
5fb951898639c17a684074e1,31.0,0.0,79.0,115.0,2.0,3.0,3.0,2.0,3.0,1.0,1.0,0.0,0.45,1403.124,2.0,0.21,320.0,32,320.0
5fb951898639c17a684074e1,31.0,0.0,38.0,116.0,2.0,2.0,3.0,3.0,2.0,1.0,2.0,0.0,0.677,1405.518,2.0,0.099,230.0,23,230.0
5fb951898639c17a684074e1,31.0,0.0,427.0,117.0,2.0,2.0,1.0,2.0,2.0,2.0,2.0,1.0,0.645,1407.956,2.0,0.019,41.0,5,1.0
5fb951898639c17a684074e1,31.0,0.0,596.0,118.0,2.0,3.0,3.0,3.0,3.0,2.0,1.0,0.0,0.833,1410.352,1.0,0.085,410.0,41,410.0
5fb951898639c17a684074e1,31.0,0.0,191.0,119.0,4.0,3.0,3.0,2.0,3.0,1.0,1.0,1.0,0.416,1413.027,1.0,0.067,1310.0,41,1000.0
5fb951898639c17a684074e1,31.0,0.0,296.0,120.0,4.0,4.0,4.0,3.0,3.0,1.0,1.0,1.0,0.445,1415.308,1.0,0.254,3200.0,50,3000.0
5fb951898639c17a684074e1,31.0,0.0,157.0,121.0,3.0,2.0,3.0,3.0,3.0,1.0,1.0,1.0,0.404,1417.669,1.0,0.218,410.0,41,410.0
5fb951898639c17a684074e1,31.0,0.0,192.0,122.0,4.0,3.0,3.0,2.0,3.0,1.0,1.0,1.0,0.495,1419.966,1.0,0.237,1310.0,41,1000.0
5fb951898639c17a684074e1,31.0,0.0,324.0,123.0,1.0,1.0,3.0,1.0,2.0,2.0,2.0,1.0,0.543,1422.387,2.0,0.109,113.0,14,3.0
5fb951898639c17a684074e1,31.0,0.0,320.0,124.0,1.0,1.0,3.0,1.0,2.0,2.0,2.0,1.0,0.441,1424.722,2.0,0.034,113.0,14,3.0
5fb951898639c17a684074e1,31.0,0.0,271.0,125.0,4.0,4.0,3.0,3.0,3.0,1.0,1.0,1.0,0.462,1426.836,1.0,0.142,2300.0,50,2000.0
5fb951898639c17a684074e1,31.0,0.0,125.0,126.0,4.0,3.0,2.0,2.0,4.0,1.0,1.0,1.0,0.469,1429.119,1.0,0.046,2120.0,32,2000.0
5fb951898639c17a684074e1,31.0,0.0,542.0,127.0,2.0,2.0,2.0,2.0,2.0,2.0,2.0,1.0,0.589,1431.321,2.0,0.173,50.0,5,50.0
5fb951898639c17a684074e1,31.0,0.0,10.0,128.0,2.0,3.0,1.0,3.0,3.0,1.0,2.0,1.0,0.585,1433.715,1.0,0.093,311.0,32,1.0
5fb951898639c17a684074e1,31.0,0.0,144.0,129.0,4.0,3.0,2.0,2.0,4.0,1.0,1.0,1.0,0.712,1436.062,1.0,0.033,2120.0,32,2000.0
5fb951898639c17a684074e1,31.0,0.0,264.0,130.0,4.0,3.0,3.0,3.0,3.0,1.0,1.0,1.0,0.808,1438.443,1.0,0.009,1400.0,50,1000.0
5fb951898639c17a684074e1,31.0,0.0,567.0,131.0,2.0,3.0,2.0,2.0,3.0,2.0,2.0,1.0,0.486,1440.928,2.0,0.177,230.0,23,230.0
5fb951898639c17a684074e1,31.0,0.0,373.0,132.0,2.0,1.0,3.0,1.0,2.0,2.0,2.0,1.0,0.478,1443.251,2.0,0.21,122.0,14,2.0
5fb951898639c17a684074e1,31.0,0.0,216.0,133.0,3.0,3.0,4.0,4.0,2.0,1.0,1.0,0.0,0.502,1445.6,2.0,0.139,2210.0,41,2000.0
5fb951898639c17a684074e1,31.0,0.0,534.0,134.0,3.0,2.0,3.0,1.0,4.0,2.0,1.0,1.0,0.541,1448.032,2.0,0.279,1211.0,32,1001.0
5fb951898639c17a684074e1,31.0,0.0,497.0,135.0,2.0,1.0,3.0,2.0,3.0,2.0,2.0,1.0,0.588,1450.599,2.0,0.309,221.0,23,1.0
5fb951898639c17a684074e1,31.0,0.0,400.0,136.0,3.0,1.0,2.0,3.0,1.0,2.0,2.0,1.0,0.773,1453.176,2.0,0.057,212.0,23,2.0
5fb951898639c17a684074e1,31.0,0.0,134.0,137.0,4.0,3.0,2.0,2.0,4.0,1.0,1.0,1.0,1.213,1455.647,1.0,0.046,2120.0,32,2000.0
5fb951898639c17a684074e1,31.0,0.0,73.0,138.0,2.0,3.0,3.0,2.0,3.0,1.0,1.0,1.0,0.653,1458.533,1.0,0.395,320.0,32,320.0
5fb951898639c17a684074e1,31.0,0.0,181.0,139.0,4.0,3.0,3.0,2.0,3.0,1.0,1.0,1.0,0.507,1461.264,1.0,0.187,1310.0,41,1000.0
5fb951898639c17a684074e1,31.0,0.0,195.0,140.0,4.0,3.0,3.0,2.0,3.0,1.0,1.0,1.0,0.632,1463.624,1.0,0.089,1310.0,41,1000.0
5fb951898639c17a684074e1,31.0,0.0,583.0,141.0,2.0,2.0,3.0,3.0,3.0,2.0,1.0,0.0,0.788,1466.026,1.0,0.111,320.0,32,320.0
5fb951898639c17a684074e1,31.0,0.0,369.0,142.0,2.0,1.0,3.0,1.0,2.0,2.0,2.0,1.0,1.096,1468.664,2.0,0.165,122.0,14,2.0
5fb951898639c17a684074e1,31.0,0.0,358.0,143.0,2.0,1.0,3.0,1.0,2.0,2.0,2.0,1.0,0.704,1471.679,2.0,0.076,122.0,14,2.0
5fb951898639c17a684074e1,31.0,0.0,21.0,144.0,2.0,4.0,4.0,1.0,4.0,1.0,1.0,1.0,0.651,1474.097,1.0,0.03,3011.0,32,3001.0
5fb951898639c17a684074e1,31.0,0.0,210.0,145.0,3.0,3.0,4.0,4.0,2.0,1.0,1.0,1.0,0.501,1476.505,1.0,0.008,2210.0,41,2000.0
5fb951898639c17a684074e1,31.0,0.0,488.0,146.0,2.0,1.0,3.0,2.0,3.0,2.0,2.0,1.0,0.58,1478.693,2.0,0.061,221.0,23,1.0
5fb951898639c17a684074e1,31.0,0.0,550.0,147.0,2.0,2.0,3.0,2.0,2.0,2.0,2.0,1.0,0.516,1480.991,2.0,0.229,140.0,14,140.0
5fb951898639c17a684074e1,31.0,0.0,599.0,148.0,2.0,4.0,3.0,3.0,3.0,2.0,1.0,0.0,0.515,1483.409,1.0,0.004,1310.0,41,1000.0
5fb951898639c17a684074e1,31.0,0.0,336.0,149.0,1.0,1.0,1.0,3.0,3.0,2.0,2.0,1.0,0.539,1488.816,2.0,0.119,203.0,23,3.0
5fb951898639c17a684074e1,31.0,0.0,457.0,150.0,1.0,2.0,2.0,3.0,2.0,2.0,2.0,1.0,0.579,1491.261,2.0,0.089,131.0,14,1.0
5fb951898639c17a684074e1,31.0,0.0,447.0,151.0,1.0,2.0,2.0,3.0,2.0,2.0,2.0,1.0,0.533,1493.601,2.0,0.168,131.0,14,1.0
5fb951898639c17a684074e1,31.0,0.0,18.0,152.0,2.0,4.0,3.0,4.0,1.0,1.0,1.0,1.0,0.69,1495.972,1.0,0.193,2111.0,32,2001.0
5fb951898639c17a684074e1,31.0,0.0,367.0,153.0,2.0,1.0,3.0,1.0,2.0,2.0,2.0,1.0,0.556,1498.534,2.0,0.317,122.0,14,2.0
5fb951898639c17a684074e1,31.0,0.0,225.0,154.0,3.0,3.0,4.0,4.0,2.0,1.0,1.0,1.0,0.418,1501.04,1.0,0.115,2210.0,41,2000.0
5fb951898639c17a684074e1,31.0,0.0,544.0,155.0,2.0,2.0,3.0,2.0,2.0,2.0,2.0,1.0,0.398,1503.266,2.0,0.096,140.0,14,140.0
5fb951898639c17a684074e1,31.0,0.0,413.0,156.0,3.0,1.0,2.0,3.0,1.0,2.0,2.0,1.0,0.471,1505.447,2.0,0.254,212.0,23,2.0
5fb951898639c17a684074e1,31.0,0.0,20.0,157.0,2.0,4.0,3.0,4.0,1.0,1.0,1.0,1.0,0.578,1507.873,1.0,0.091,2111.0,32,2001.0
5fb951898639c17a684074e1,31.0,0.0,187.0,158.0,4.0,3.0,3.0,2.0,3.0,1.0,1.0,1.0,0.401,1510.215,1.0,0.328,1310.0,41,1000.0
5fb951898639c17a684074e1,31.0,0.0,202.0,159.0,3.0,3.0,4.0,4.0,2.0,1.0,1.0,1.0,0.424,1512.612,1.0,0.313,2210.0,41,2000.0
5fb951898639c17a684074e1,31.0,0.0,156.0,160.0,3.0,2.0,3.0,3.0,3.0,1.0,1.0,1.0,0.395,1515.007,1.0,0.279,410.0,41,410.0
5fb951898639c17a684074e1,31.0,0.0,273.0,161.0,4.0,4.0,3.0,3.0,3.0,1.0,1.0,1.0,0.55,1517.353,1.0,0.022,2300.0,50,2000.0
5fb951898639c17a684074e1,31.0,0.0,560.0,162.0,2.0,3.0,2.0,2.0,3.0,2.0,2.0,1.0,0.755,1519.594,2.0,0.304,230.0,23,230.0
5fb951898639c17a684074e1,31.0,0.0,242.0,163.0,3.0,4.0,4.0,4.0,2.0,1.0,1.0,1.0,0.589,1522.342,1.0,0.073,3110.0,41,3000.0
5fb951898639c17a684074e1,31.0,0.0,5.0,164.0,2.0,2.0,1.0,3.0,3.0,1.0,2.0,1.0,0.491,1524.669,1.0,0.273,221.0,23,1.0
5fb951898639c17a684074e1,31.0,0.0,154.0,165.0,3.0,2.0,3.0,3.0,3.0,1.0,1.0,1.0,0.606,1527.101,1.0,0.308,410.0,41,410.0
5fb951898639c17a684074e1,31.0,0.0,501.0,166.0,2.0,1.0,3.0,2.0,3.0,2.0,2.0,1.0,0.498,1529.698,2.0,0.272,221.0,23,1.0
5fb951898639c17a684074e1,31.0,0.0,429.0,167.0,2.0,2.0,1.0,2.0,2.0,2.0,2.0,1.0,1.83,1532.137,2.0,0.243,41.0,5,1.0
5fb951898639c17a684074e1,31.0,0.0,211.0,168.0,3.0,3.0,4.0,4.0,2.0,1.0,1.0,1.0,0.696,1535.883,1.0,0.114,2210.0,41,2000.0
5fb951898639c17a684074e1,31.0,0.0,398.0,169.0,3.0,1.0,2.0,3.0,1.0,2.0,2.0,1.0,0.436,1538.41,2.0,0.142,212.0,23,2.0
5fb951898639c17a684074e1,31.0,0.0,72.0,170.0,2.0,3.0,3.0,2.0,3.0,1.0,1.0,1.0,0.483,1540.666,1.0,0.208,320.0,32,320.0
5fb951898639c17a684074e1,31.0,0.0,150.0,171.0,2.0,4.0,2.0,4.0,4.0,1.0,1.0,1.0,0.342,1543.006,1.0,0.135,3020.0,32,3000.0
5fb951898639c17a684074e1,31.0,0.0,426.0,172.0,2.0,2.0,1.0,2.0,2.0,2.0,2.0,1.0,0.638,1545.16,2.0,0.077,41.0,5,1.0
5fb951898639c17a684074e1,31.0,0.0,106.0,173.0,2.0,4.0,3.0,2.0,3.0,1.0,1.0,1.0,0.543,1547.547,1.0,0.334,1220.0,32,1000.0
5fb951898639c17a684074e1,31.0,0.0,559.0,174.0,2.0,3.0,2.0,2.0,3.0,2.0,2.0,1.0,0.534,1562.288,2.0,0.029,230.0,23,230.0
5fb951898639c17a684074e1,31.0,0.0,361.0,175.0,2.0,1.0,3.0,1.0,2.0,2.0,2.0,1.0,0.46,1564.631,2.0,0.126,122.0,14,2.0
5fb951898639c17a684074e1,31.0,0.0,56.0,176.0,4.0,2.0,2.0,2.0,3.0,1.0,1.0,0.0,0.475,1566.854,2.0,0.233,1130.0,23,1000.0
5fb951898639c17a684074e1,31.0,0.0,334.0,177.0,1.0,1.0,1.0,3.0,3.0,2.0,2.0,1.0,0.456,1569.346,2.0,0.231,203.0,23,3.0
5fb951898639c17a684074e1,31.0,0.0,86.0,178.0,2.0,3.0,3.0,2.0,3.0,1.0,1.0,1.0,0.511,1571.77,1.0,0.215,320.0,32,320.0
5fb951898639c17a684074e1,31.0,0.0,496.0,179.0,2.0,1.0,3.0,2.0,3.0,2.0,2.0,1.0,0.362,1574.16,2.0,0.166,221.0,23,1.0
5fb951898639c17a684074e1,31.0,0.0,540.0,180.0,2.0,2.0,2.0,2.0,2.0,2.0,2.0,1.0,0.391,1576.36,2.0,0.245,50.0,5,50.0
5fb951898639c17a684074e1,31.0,0.0,350.0,181.0,1.0,1.0,2.0,2.0,2.0,2.0,2.0,1.0,0.371,1578.678,2.0,0.177,32.0,5,2.0
5fb951898639c17a684074e1,31.0,0.0,123.0,182.0,4.0,3.0,2.0,2.0,4.0,1.0,1.0,1.0,0.445,1580.917,1.0,0.168,2120.0,32,2000.0
5fb951898639c17a684074e1,31.0,0.0,536.0,183.0,3.0,3.0,3.0,3.0,1.0,2.0,2.0,0.0,0.519,1583.208,1.0,0.047,401.0,41,1.0
5fb951898639c17a684074e1,31.0,0.0,509.0,184.0,2.0,1.0,3.0,2.0,3.0,2.0,2.0,1.0,0.396,1585.553,2.0,0.241,221.0,23,1.0
5fb951898639c17a684074e1,31.0,0.0,104.0,185.0,2.0,4.0,3.0,2.0,3.0,1.0,1.0,1.0,0.418,1587.938,1.0,0.121,1220.0,32,1000.0
5fb951898639c17a684074e1,31.0,0.0,147.0,186.0,2.0,4.0,2.0,4.0,4.0,1.0,1.0,1.0,0.434,1590.139,1.0,0.004,3020.0,32,3000.0
5fb951898639c17a684074e1,31.0,0.0,375.0,187.0,2.0,1.0,3.0,1.0,2.0,2.0,2.0,1.0,0.412,1592.25,2.0,0.05,122.0,14,2.0
5fb951898639c17a684074e1,31.0,0.0,518.0,188.0,1.0,3.0,3.0,3.0,2.0,2.0,2.0,1.0,0.307,1594.332,2.0,0.212,311.0,32,1.0
5fb951898639c17a684074e1,31.0,0.0,598.0,189.0,2.0,3.0,3.0,3.0,3.0,2.0,1.0,0.0,0.287,1596.536,1.0,0.098,410.0,41,410.0
5fb951898639c17a684074e1,31.0,0.0,25.0,190.0,4.0,3.0,3.0,1.0,3.0,1.0,1.0,1.0,0.302,1598.696,1.0,0.236,1301.0,41,1001.0
5fb951898639c17a684074e1,31.0,0.0,88.0,191.0,2.0,4.0,3.0,2.0,3.0,1.0,1.0,1.0,0.278,1600.981,1.0,0.192,1220.0,32,1000.0
5fb951898639c17a684074e1,31.0,0.0,421.0,192.0,1.0,3.0,3.0,3.0,1.0,2.0,2.0,1.0,0.333,1603.137,2.0,0.187,302.0,32,2.0
5fb951898639c17a684074e1,31.0,0.0,194.0,193.0,4.0,3.0,3.0,2.0,3.0,1.0,1.0,1.0,0.388,1605.346,1.0,0.35,1310.0,41,1000.0
5fb951898639c17a684074e1,31.0,0.0,337.0,194.0,1.0,1.0,1.0,3.0,3.0,2.0,2.0,1.0,0.328,1607.739,2.0,0.079,203.0,23,3.0
5fb951898639c17a684074e1,31.0,0.0,319.0,195.0,1.0,1.0,3.0,1.0,2.0,2.0,2.0,1.0,0.534,1609.803,2.0,0.004,113.0,14,3.0
5fb951898639c17a684074e1,31.0,0.0,204.0,196.0,3.0,3.0,4.0,4.0,2.0,1.0,1.0,1.0,0.428,1612.046,1.0,0.163,2210.0,41,2000.0
5fb951898639c17a684074e1,31.0,0.0,466.0,197.0,1.0,2.0,2.0,3.0,2.0,2.0,2.0,1.0,0.257,1614.301,2.0,0.28,131.0,14,1.0
5fb951898639c17a684074e1,31.0,0.0,131.0,198.0,4.0,3.0,2.0,2.0,4.0,1.0,1.0,1.0,0.38,1616.532,1.0,0.184,2120.0,32,2000.0
5fb951898639c17a684074e1,31.0,0.0,574.0,199.0,2.0,3.0,2.0,2.0,3.0,2.0,2.0,1.0,0.303,1618.713,2.0,0.298,230.0,23,230.0
5fb951898639c17a684074e1,31.0,0.0,479.0,200.0,2.0,1.0,3.0,2.0,3.0,2.0,2.0,1.0,0.349,1620.993,2.0,0.287,221.0,23,1.0
5fb951898639c17a684074e1,31.0,0.0,80.0,201.0,2.0,3.0,3.0,2.0,3.0,1.0,1.0,1.0,0.406,1623.296,1.0,0.315,320.0,32,320.0
5fb951898639c17a684074e1,31.0,0.0,26.0,202.0,3.0,4.0,1.0,3.0,4.0,1.0,1.0,1.0,0.33,1625.693,1.0,0.208,2201.0,41,2001.0
5fb951898639c17a684074e1,31.0,0.0,248.0,203.0,3.0,4.0,4.0,4.0,2.0,1.0,1.0,1.0,0.422,1627.898,1.0,0.003,3110.0,41,3000.0
5fb951898639c17a684074e1,31.0,0.0,558.0,204.0,2.0,2.0,4.0,2.0,2.0,2.0,1.0,1.0,0.42,1629.976,2.0,0.159,1040.0,14,1000.0
5fb951898639c17a684074e1,31.0,0.0,285.0,205.0,4.0,4.0,3.0,3.0,3.0,1.0,1.0,1.0,0.372,1632.231,1.0,0.262,2300.0,50,2000.0
5fb951898639c17a684074e1,31.0,0.0,58.0,206.0,4.0,2.0,2.0,2.0,3.0,1.0,1.0,1.0,0.325,1634.525,1.0,0.231,1130.0,23,1000.0
5fb951898639c17a684074e1,31.0,0.0,535.0,207.0,3.0,2.0,3.0,1.0,4.0,2.0,1.0,1.0,0.413,1636.763,2.0,0.11,1211.0,32,1001.0
5fb951898639c17a684074e1,31.0,0.0,305.0,208.0,1.0,1.0,1.0,1.0,3.0,2.0,2.0,1.0,0.327,1638.967,2.0,0.259,104.0,14,4.0
5fb951898639c17a684074e1,31.0,0.0,286.0,209.0,4.0,4.0,4.0,3.0,3.0,1.0,1.0,1.0,0.424,1641.213,1.0,0.139,3200.0,50,3000.0
5fb951898639c17a684074e1,31.0,0.0,502.0,210.0,2.0,1.0,3.0,2.0,3.0,2.0,2.0,1.0,0.329,1650.048,2.0,0.259,221.0,23,1.0
5fb951898639c17a684074e1,31.0,0.0,585.0,211.0,2.0,2.0,3.0,3.0,3.0,2.0,1.0,0.0,0.592,1652.402,1.0,0.006,320.0,32,320.0
5fb951898639c17a684074e1,31.0,0.0,545.0,212.0,2.0,2.0,3.0,2.0,2.0,2.0,2.0,1.0,0.406,1654.76,2.0,0.134,140.0,14,140.0
5fb951898639c17a684074e1,31.0,0.0,436.0,213.0,2.0,2.0,1.0,2.0,2.0,2.0,2.0,1.0,0.394,1657.043,2.0,0.211,41.0,5,1.0
5fb951898639c17a684074e1,31.0,0.0,214.0,214.0,3.0,3.0,4.0,4.0,2.0,1.0,1.0,1.0,0.508,1659.285,1.0,0.199,2210.0,41,2000.0
5fb951898639c17a684074e1,31.0,0.0,167.0,215.0,4.0,3.0,3.0,2.0,3.0,1.0,1.0,1.0,0.693,1661.662,1.0,0.097,1310.0,41,1000.0
5fb951898639c17a684074e1,31.0,0.0,284.0,216.0,4.0,4.0,3.0,3.0,3.0,1.0,1.0,0.0,0.484,1664.108,2.0,0.166,2300.0,50,2000.0
5fb951898639c17a684074e1,31.0,0.0,215.0,217.0,3.0,3.0,4.0,4.0,2.0,1.0,1.0,1.0,0.801,1666.574,1.0,0.262,2210.0,41,2000.0
5fb951898639c17a684074e1,31.0,0.0,36.0,218.0,2.0,2.0,2.0,4.0,2.0,1.0,1.0,0.0,0.515,1669.42,2.0,0.007,1040.0,14,1000.0
5fb951898639c17a684074e1,31.0,0.0,33.0,219.0,2.0,2.0,3.0,2.0,2.0,1.0,2.0,0.0,0.39,1671.703,2.0,0.284,140.0,14,140.0
5fb951898639c17a684074e1,31.0,0.0,419.0,220.0,1.0,3.0,3.0,3.0,1.0,2.0,2.0,1.0,0.41,1674.055,2.0,0.045,302.0,32,2.0
5fb951898639c17a684074e1,31.0,0.0,15.0,221.0,3.0,2.0,4.0,3.0,1.0,1.0,1.0,1.0,0.358,1676.298,1.0,0.213,1211.0,32,1001.0
5fb951898639c17a684074e1,31.0,0.0,538.0,222.0,3.0,3.0,3.0,3.0,1.0,2.0,2.0,1.0,0.383,1678.505,2.0,0.253,401.0,41,1.0
5fb951898639c17a684074e1,31.0,0.0,299.0,223.0,4.0,3.0,4.0,4.0,4.0,1.0,1.0,1.0,0.464,1680.76,1.0,0.02,4100.0,50,4000.0
5fb951898639c17a684074e1,31.0,0.0,250.0,224.0,2.0,4.0,4.0,4.0,4.0,1.0,1.0,1.0,0.455,1682.871,1.0,0.002,4010.0,41,4000.0
5fb951898639c17a684074e1,31.0,0.0,408.0,225.0,3.0,1.0,2.0,3.0,1.0,2.0,2.0,1.0,0.305,1685.015,2.0,0.229,212.0,23,2.0
5fb951898639c17a684074e1,31.0,0.0,410.0,226.0,3.0,1.0,2.0,3.0,1.0,2.0,2.0,1.0,0.323,1687.214,2.0,0.258,212.0,23,2.0
5fb951898639c17a684074e1,31.0,0.0,148.0,227.0,2.0,4.0,2.0,4.0,4.0,1.0,1.0,1.0,0.448,1689.438,1.0,0.071,3020.0,32,3000.0
5fb951898639c17a684074e1,31.0,0.0,506.0,228.0,2.0,1.0,3.0,2.0,3.0,2.0,2.0,1.0,0.371,1691.638,2.0,0.209,221.0,23,1.0
5fb951898639c17a684074e1,31.0,0.0,473.0,229.0,1.0,2.0,2.0,3.0,2.0,2.0,2.0,1.0,0.39,1693.878,2.0,0.209,131.0,14,1.0
5fb951898639c17a684074e1,31.0,0.0,390.0,230.0,2.0,1.0,3.0,1.0,2.0,2.0,2.0,1.0,0.756,1696.148,2.0,0.165,122.0,14,2.0
5fb951898639c17a684074e1,31.0,0.0,578.0,231.0,2.0,3.0,2.0,2.0,4.0,2.0,1.0,1.0,0.373,1698.731,2.0,0.1,1130.0,23,1000.0
5fb951898639c17a684074e1,31.0,0.0,118.0,232.0,2.0,4.0,3.0,2.0,3.0,1.0,1.0,1.0,0.304,1700.86,1.0,0.239,1220.0,32,1000.0
5fb951898639c17a684074e1,31.0,0.0,126.0,233.0,4.0,3.0,2.0,2.0,4.0,1.0,1.0,1.0,0.383,1703.098,1.0,0.191,2120.0,32,2000.0
5fb951898639c17a684074e1,31.0,0.0,35.0,234.0,2.0,2.0,2.0,4.0,2.0,1.0,1.0,0.0,0.484,1705.351,2.0,0.161,1040.0,14,1000.0
