subject_ID,subject_index,exclude_Ixr,trial_ID,trial_index,observation_1,observation_2,observation_3,observation_4,observation_5,latent_state,optimal_choice,correct,intertrial_duration,trial_start_time,choice,rt,observation_encoding,observation_encoding_ew,observation_encoding_iw
5e8a69c836bc63718a82cb90,0.0,0.0,320.0,0.0,1.0,1.0,3.0,1.0,2.0,2.0,2.0,1.0,4.2891,1167.8003,2.0,0.2669,113.0,14,3.0
5e8a69c836bc63718a82cb90,0.0,0.0,200.0,1.0,3.0,3.0,4.0,4.0,2.0,1.0,1.0,1.0,0.4265,1174.4231,1.0,0.2069,2210.0,41,2000.0
5e8a69c836bc63718a82cb90,0.0,0.0,227.0,2.0,2.0,4.0,4.0,4.0,4.0,1.0,1.0,1.0,0.5314,1179.5054,1.0,0.1691,4010.0,41,4000.0
5e8a69c836bc63718a82cb90,0.0,0.0,367.0,3.0,2.0,1.0,3.0,1.0,2.0,2.0,2.0,0.0,0.8808,1181.8991,1.0,0.2602,122.0,14,2.0
5e8a69c836bc63718a82cb90,0.0,0.0,383.0,4.0,3.0,1.0,2.0,3.0,1.0,2.0,2.0,1.0,0.4118,1184.7554,2.0,0.2306,212.0,23,2.0
5e8a69c836bc63718a82cb90,0.0,0.0,365.0,5.0,2.0,1.0,3.0,1.0,2.0,2.0,2.0,1.0,0.7427,1187.0885,2.0,0.2976,122.0,14,2.0
5e8a69c836bc63718a82cb90,0.0,0.0,428.0,6.0,1.0,2.0,2.0,3.0,2.0,2.0,2.0,1.0,0.7436,1189.7728,2.0,0.2965,131.0,14,1.0
5e8a69c836bc63718a82cb90,0.0,0.0,91.0,7.0,4.0,2.0,2.0,2.0,3.0,1.0,2.0,0.0,0.5151,1192.4559,2.0,0.2929,1130.0,23,1000.0
5e8a69c836bc63718a82cb90,0.0,0.0,591.0,8.0,2.0,4.0,3.0,3.0,2.0,2.0,1.0,0.0,0.6921,1194.9681,1.0,0.3022,1220.0,32,1000.0
5e8a69c836bc63718a82cb90,0.0,0.0,18.0,9.0,2.0,1.0,2.0,3.0,4.0,1.0,2.0,0.0,0.7794,1197.5893,2.0,0.4266,1121.0,23,1001.0
5e8a69c836bc63718a82cb90,0.0,0.0,82.0,10.0,2.0,2.0,3.0,2.0,2.0,1.0,2.0,0.0,0.8586,1200.4407,2.0,0.3064,140.0,14,140.0
5e8a69c836bc63718a82cb90,0.0,0.0,171.0,11.0,4.0,3.0,3.0,2.0,3.0,1.0,1.0,1.0,0.6461,1203.2559,1.0,0.3637,1310.0,41,1000.0
5e8a69c836bc63718a82cb90,0.0,0.0,233.0,12.0,3.0,3.0,3.0,3.0,3.0,1.0,1.0,1.0,0.7985,1208.9387,1.0,0.2532,500.0,50,500.0
5e8a69c836bc63718a82cb90,0.0,0.0,212.0,13.0,3.0,3.0,4.0,4.0,2.0,1.0,1.0,1.0,0.677,1214.6562,1.0,0.1366,2210.0,41,2000.0
5e8a69c836bc63718a82cb90,0.0,0.0,319.0,14.0,1.0,1.0,3.0,1.0,2.0,2.0,2.0,1.0,0.6918,1217.173,2.0,0.2464,113.0,14,3.0
5e8a69c836bc63718a82cb90,0.0,0.0,324.0,15.0,1.0,3.0,1.0,4.0,1.0,2.0,2.0,1.0,0.5247,1219.7559,2.0,0.0946,1103.0,23,1003.0
5e8a69c836bc63718a82cb90,0.0,0.0,205.0,16.0,3.0,3.0,4.0,4.0,2.0,1.0,1.0,1.0,0.4795,1222.0229,1.0,0.1928,2210.0,41,2000.0
5e8a69c836bc63718a82cb90,0.0,0.0,176.0,17.0,4.0,3.0,3.0,2.0,3.0,1.0,1.0,1.0,1.1521,1224.3423,1.0,0.2822,1310.0,41,1000.0
5e8a69c836bc63718a82cb90,0.0,0.0,89.0,18.0,4.0,2.0,2.0,2.0,3.0,1.0,2.0,0.0,0.7491,1227.4132,2.0,0.2286,1130.0,23,1000.0
5e8a69c836bc63718a82cb90,0.0,0.0,415.0,19.0,2.0,2.0,1.0,2.0,2.0,2.0,2.0,1.0,0.5333,1230.1004,2.0,0.2587,41.0,5,1.0
5e8a69c836bc63718a82cb90,0.0,0.0,98.0,20.0,2.0,3.0,3.0,2.0,3.0,1.0,1.0,1.0,0.6777,1232.5892,1.0,0.2641,320.0,32,320.0
5e8a69c836bc63718a82cb90,0.0,0.0,597.0,21.0,2.0,2.0,3.0,4.0,4.0,2.0,1.0,0.0,20.9,1235.1894,1.0,0.2436,2120.0,32,2000.0
5e8a69c836bc63718a82cb90,0.0,0.0,119.0,22.0,2.0,4.0,3.0,2.0,3.0,1.0,1.0,1.0,1.0854,1258.0363,1.0,0.2718,1220.0,32,1000.0
5e8a69c836bc63718a82cb90,0.0,0.0,226.0,23.0,3.0,4.0,4.0,4.0,2.0,1.0,1.0,1.0,0.7084,1261.1012,1.0,0.3045,3110.0,41,3000.0
5e8a69c836bc63718a82cb90,0.0,0.0,236.0,24.0,3.0,3.0,3.0,3.0,3.0,1.0,1.0,1.0,0.5622,1263.7405,1.0,0.2647,500.0,50,500.0
5e8a69c836bc63718a82cb90,0.0,0.0,436.0,25.0,1.0,2.0,2.0,3.0,2.0,2.0,2.0,1.0,0.6029,1266.2254,2.0,0.3294,131.0,14,1.0
5e8a69c836bc63718a82cb90,0.0,0.0,366.0,26.0,2.0,1.0,3.0,1.0,2.0,2.0,2.0,1.0,0.5586,1268.8007,2.0,0.264,122.0,14,2.0
5e8a69c836bc63718a82cb90,0.0,0.0,398.0,27.0,2.0,2.0,1.0,2.0,2.0,2.0,2.0,1.0,0.4842,1271.2734,2.0,0.2455,41.0,5,1.0
5e8a69c836bc63718a82cb90,0.0,0.0,46.0,28.0,2.0,4.0,3.0,4.0,1.0,1.0,1.0,1.0,0.5471,1273.665,1.0,0.414,2111.0,32,2001.0
5e8a69c836bc63718a82cb90,0.0,0.0,357.0,29.0,2.0,1.0,3.0,1.0,2.0,2.0,2.0,0.0,0.616,1276.2736,1.0,0.4486,122.0,14,2.0
5e8a69c836bc63718a82cb90,0.0,0.0,122.0,30.0,2.0,4.0,3.0,2.0,3.0,1.0,1.0,1.0,0.5555,1279.0492,1.0,0.2266,1220.0,32,1000.0
5e8a69c836bc63718a82cb90,0.0,0.0,443.0,31.0,1.0,2.0,2.0,3.0,2.0,2.0,2.0,1.0,0.3786,1281.5233,2.0,0.2255,131.0,14,1.0
5e8a69c836bc63718a82cb90,0.0,0.0,368.0,32.0,2.0,1.0,3.0,1.0,2.0,2.0,2.0,1.0,0.3767,1283.7745,2.0,0.1091,122.0,14,2.0
5e8a69c836bc63718a82cb90,0.0,0.0,565.0,33.0,2.0,3.0,2.0,2.0,3.0,2.0,2.0,1.0,0.5603,1285.9065,2.0,0.1866,230.0,23,230.0
5e8a69c836bc63718a82cb90,0.0,0.0,20.0,34.0,2.0,1.0,2.0,3.0,4.0,1.0,2.0,1.0,0.4946,1288.2906,1.0,0.4307,1121.0,23,1001.0
5e8a69c836bc63718a82cb90,0.0,0.0,470.0,35.0,2.0,4.0,2.0,2.0,1.0,2.0,2.0,1.0,0.4773,1290.8569,2.0,0.2585,1031.0,14,1001.0
5e8a69c836bc63718a82cb90,0.0,0.0,159.0,36.0,3.0,2.0,3.0,3.0,3.0,1.0,1.0,1.0,0.526,1293.24,1.0,0.3146,410.0,41,410.0
5e8a69c836bc63718a82cb90,0.0,0.0,101.0,37.0,2.0,3.0,3.0,2.0,3.0,1.0,1.0,0.0,0.6124,1295.7232,2.0,0.4256,320.0,32,320.0
5e8a69c836bc63718a82cb90,0.0,0.0,220.0,38.0,3.0,4.0,4.0,4.0,2.0,1.0,1.0,1.0,0.564,1298.4743,1.0,0.0152,3110.0,41,3000.0
5e8a69c836bc63718a82cb90,0.0,0.0,106.0,39.0,2.0,3.0,3.0,2.0,3.0,1.0,1.0,1.0,0.3415,1300.7674,1.0,0.1081,320.0,32,320.0
5e8a69c836bc63718a82cb90,0.0,0.0,294.0,40.0,4.0,4.0,4.0,3.0,3.0,1.0,1.0,1.0,0.5077,1302.8568,1.0,0.1591,3200.0,50,3000.0
5e8a69c836bc63718a82cb90,0.0,0.0,191.0,41.0,4.0,3.0,3.0,2.0,3.0,1.0,1.0,1.0,2.9913,1318.6946,1.0,0.4357,1310.0,41,1000.0
5e8a69c836bc63718a82cb90,0.0,0.0,326.0,42.0,1.0,1.0,2.0,2.0,2.0,2.0,2.0,0.0,0.8505,1323.8238,1.0,0.2494,32.0,5,2.0
5e8a69c836bc63718a82cb90,0.0,0.0,97.0,43.0,2.0,3.0,3.0,2.0,3.0,1.0,1.0,1.0,1.546,1326.6242,1.0,0.2517,320.0,32,320.0
5e8a69c836bc63718a82cb90,0.0,0.0,358.0,44.0,2.0,1.0,3.0,1.0,2.0,2.0,2.0,1.0,1.2767,1330.1239,2.0,0.26,122.0,14,2.0
5e8a69c836bc63718a82cb90,0.0,0.0,532.0,45.0,2.0,2.0,3.0,2.0,2.0,2.0,2.0,1.0,1.1941,1333.3077,2.0,0.2435,140.0,14,140.0
5e8a69c836bc63718a82cb90,0.0,0.0,540.0,46.0,2.0,2.0,3.0,2.0,2.0,2.0,2.0,1.0,2.0237,1336.3915,2.0,0.2126,140.0,14,140.0
5e8a69c836bc63718a82cb90,0.0,0.0,254.0,47.0,4.0,3.0,3.0,3.0,3.0,1.0,1.0,1.0,0.8993,1340.2744,1.0,0.0635,1400.0,50,1000.0
5e8a69c836bc63718a82cb90,0.0,0.0,483.0,48.0,2.0,1.0,3.0,2.0,3.0,2.0,2.0,1.0,3.8764,1342.8907,2.0,0.2422,221.0,23,1.0
5e8a69c836bc63718a82cb90,0.0,0.0,437.0,49.0,1.0,2.0,2.0,3.0,2.0,2.0,2.0,1.0,0.8917,1348.658,2.0,0.2147,131.0,14,1.0
5e8a69c836bc63718a82cb90,0.0,0.0,86.0,50.0,2.0,2.0,3.0,3.0,2.0,1.0,2.0,0.0,25.5696,1351.3911,2.0,0.2426,230.0,23,230.0
5e8a69c836bc63718a82cb90,0.0,0.0,32.0,51.0,2.0,3.0,1.0,3.0,3.0,1.0,1.0,1.0,0.6703,1378.9202,1.0,0.4055,311.0,32,1.0
5e8a69c836bc63718a82cb90,0.0,0.0,594.0,52.0,2.0,4.0,3.0,3.0,2.0,2.0,1.0,1.0,0.5587,1381.7035,2.0,0.3087,1220.0,32,1000.0
5e8a69c836bc63718a82cb90,0.0,0.0,131.0,53.0,4.0,3.0,2.0,2.0,4.0,1.0,1.0,1.0,0.6271,1384.2249,1.0,0.0583,2120.0,32,2000.0
5e8a69c836bc63718a82cb90,0.0,0.0,211.0,54.0,3.0,3.0,4.0,4.0,2.0,1.0,1.0,0.0,0.5906,1386.5579,2.0,0.0324,2210.0,41,2000.0
5e8a69c836bc63718a82cb90,0.0,0.0,125.0,55.0,2.0,4.0,3.0,2.0,3.0,1.0,1.0,1.0,0.5819,1388.8917,1.0,0.0416,1220.0,32,1000.0
5e8a69c836bc63718a82cb90,0.0,0.0,61.0,56.0,4.0,3.0,3.0,1.0,3.0,1.0,1.0,1.0,0.6003,1391.2255,1.0,0.4414,1301.0,41,1001.0
5e8a69c836bc63718a82cb90,0.0,0.0,79.0,57.0,3.0,4.0,1.0,3.0,4.0,1.0,1.0,1.0,0.6089,1393.9146,1.0,0.2444,2201.0,41,2001.0
5e8a69c836bc63718a82cb90,0.0,0.0,331.0,58.0,1.0,1.0,2.0,2.0,2.0,2.0,2.0,1.0,0.8608,1396.4077,2.0,0.2412,32.0,5,2.0
5e8a69c836bc63718a82cb90,0.0,0.0,579.0,59.0,2.0,3.0,2.0,2.0,4.0,2.0,2.0,1.0,0.6295,1399.1579,2.0,0.244,1130.0,23,1000.0
5e8a69c836bc63718a82cb90,0.0,0.0,282.0,60.0,4.0,4.0,3.0,3.0,3.0,1.0,1.0,1.0,0.6049,1401.6747,1.0,0.2765,2300.0,50,2000.0
5e8a69c836bc63718a82cb90,0.0,0.0,217.0,61.0,3.0,3.0,4.0,4.0,2.0,1.0,1.0,1.0,1.6934,1404.2072,1.0,0.2258,2210.0,41,2000.0
5e8a69c836bc63718a82cb90,0.0,0.0,161.0,62.0,4.0,3.0,3.0,2.0,3.0,1.0,1.0,1.0,0.5666,1407.7748,1.0,0.0343,1310.0,41,1000.0
5e8a69c836bc63718a82cb90,0.0,0.0,457.0,63.0,1.0,2.0,2.0,3.0,2.0,2.0,2.0,0.0,0.6175,1410.0159,1.0,0.225,131.0,14,1.0
5e8a69c836bc63718a82cb90,0.0,0.0,283.0,64.0,4.0,4.0,3.0,3.0,3.0,1.0,1.0,1.0,0.7333,1412.5531,1.0,0.1408,2300.0,50,2000.0
5e8a69c836bc63718a82cb90,0.0,0.0,379.0,65.0,1.0,1.0,4.0,2.0,2.0,2.0,2.0,0.0,0.5679,1415.1417,1.0,0.2605,1022.0,14,1002.0
5e8a69c836bc63718a82cb90,0.0,0.0,256.0,66.0,4.0,3.0,3.0,3.0,3.0,1.0,1.0,1.0,1.5667,1420.7917,1.0,0.1849,1400.0,50,1000.0
5e8a69c836bc63718a82cb90,0.0,0.0,501.0,67.0,2.0,3.0,4.0,2.0,1.0,2.0,2.0,1.0,0.857,1424.2413,2.0,0.2312,1121.0,23,1001.0
5e8a69c836bc63718a82cb90,0.0,0.0,442.0,68.0,1.0,2.0,2.0,3.0,2.0,2.0,2.0,1.0,1.0938,1426.9753,2.0,0.2663,131.0,14,1.0
5e8a69c836bc63718a82cb90,0.0,0.0,81.0,69.0,4.0,1.0,3.0,4.0,4.0,1.0,1.0,1.0,0.6676,1429.9752,1.0,0.0271,3101.0,41,3001.0
5e8a69c836bc63718a82cb90,0.0,0.0,14.0,70.0,2.0,2.0,1.0,3.0,3.0,1.0,2.0,0.0,0.7123,1432.308,2.0,0.1747,221.0,23,1.0
5e8a69c836bc63718a82cb90,0.0,0.0,7.0,71.0,4.0,3.0,1.0,3.0,1.0,1.0,1.0,0.0,0.593,1434.9101,2.0,0.2736,1202.0,32,1002.0
5e8a69c836bc63718a82cb90,0.0,0.0,480.0,72.0,2.0,1.0,3.0,2.0,3.0,2.0,2.0,0.0,0.9578,1437.4252,1.0,0.3739,221.0,23,1.0
5e8a69c836bc63718a82cb90,0.0,0.0,36.0,73.0,3.0,2.0,4.0,3.0,1.0,1.0,1.0,0.0,0.4595,1440.4089,2.0,0.3107,1211.0,32,1001.0
5e8a69c836bc63718a82cb90,0.0,0.0,186.0,74.0,4.0,3.0,3.0,2.0,3.0,1.0,1.0,1.0,0.5305,1445.6931,1.0,0.0858,1310.0,41,1000.0
5e8a69c836bc63718a82cb90,0.0,0.0,262.0,75.0,4.0,3.0,3.0,3.0,3.0,1.0,1.0,1.0,3.0774,1448.0042,1.0,0.2489,1400.0,50,1000.0
5e8a69c836bc63718a82cb90,0.0,0.0,12.0,76.0,2.0,2.0,1.0,3.0,3.0,1.0,2.0,0.0,0.7568,1452.9795,2.0,0.1992,221.0,23,1.0
5e8a69c836bc63718a82cb90,0.0,0.0,67.0,77.0,4.0,3.0,3.0,1.0,3.0,1.0,1.0,1.0,0.8996,1455.6602,1.0,0.2258,1301.0,41,1001.0
5e8a69c836bc63718a82cb90,0.0,0.0,536.0,78.0,2.0,2.0,3.0,2.0,2.0,2.0,2.0,1.0,1.0101,1458.4875,2.0,0.1752,140.0,14,140.0
5e8a69c836bc63718a82cb90,0.0,0.0,104.0,79.0,2.0,3.0,3.0,2.0,3.0,1.0,1.0,1.0,0.6081,1461.3253,1.0,0.3424,320.0,32,320.0
5e8a69c836bc63718a82cb90,0.0,0.0,547.0,80.0,2.0,2.0,3.0,2.0,2.0,2.0,2.0,1.0,0.6744,1463.926,2.0,0.2436,140.0,14,140.0
5e8a69c836bc63718a82cb90,0.0,0.0,341.0,81.0,1.0,1.0,2.0,2.0,2.0,2.0,2.0,1.0,0.4416,1466.4925,2.0,0.2271,32.0,5,2.0
5e8a69c836bc63718a82cb90,0.0,0.0,179.0,82.0,4.0,3.0,3.0,2.0,3.0,1.0,1.0,1.0,0.4265,1468.8092,1.0,0.0932,1310.0,41,1000.0
5e8a69c836bc63718a82cb90,0.0,0.0,332.0,83.0,1.0,1.0,2.0,2.0,2.0,2.0,2.0,1.0,0.5278,1470.9759,2.0,0.2493,32.0,5,2.0
5e8a69c836bc63718a82cb90,0.0,0.0,577.0,84.0,2.0,3.0,2.0,2.0,4.0,2.0,2.0,1.0,3.0943,1473.3926,2.0,0.2735,1130.0,23,1000.0
5e8a69c836bc63718a82cb90,0.0,0.0,132.0,85.0,4.0,3.0,2.0,2.0,4.0,1.0,1.0,1.0,0.609,1478.4091,1.0,0.2812,2120.0,32,2000.0
5e8a69c836bc63718a82cb90,0.0,0.0,280.0,86.0,4.0,4.0,3.0,3.0,3.0,1.0,1.0,1.0,0.6086,1480.9261,1.0,0.0839,2300.0,50,2000.0
5e8a69c836bc63718a82cb90,0.0,0.0,284.0,87.0,4.0,4.0,3.0,3.0,3.0,1.0,1.0,1.0,1.2585,1483.2591,1.0,0.2007,2300.0,50,2000.0
5e8a69c836bc63718a82cb90,0.0,0.0,150.0,88.0,3.0,2.0,3.0,3.0,3.0,1.0,1.0,1.0,0.5104,1486.3593,1.0,0.3712,410.0,41,410.0
5e8a69c836bc63718a82cb90,0.0,0.0,424.0,89.0,1.0,2.0,2.0,3.0,2.0,2.0,2.0,1.0,0.5181,1488.8929,2.0,0.0034,131.0,14,1.0
5e8a69c836bc63718a82cb90,0.0,0.0,371.0,90.0,2.0,1.0,3.0,1.0,2.0,2.0,2.0,1.0,0.8103,1491.059,2.0,0.2426,122.0,14,2.0
5e8a69c836bc63718a82cb90,0.0,0.0,249.0,91.0,4.0,3.0,3.0,3.0,3.0,1.0,1.0,1.0,0.875,1493.7594,1.0,0.2143,1400.0,50,1000.0
5e8a69c836bc63718a82cb90,0.0,0.0,451.0,92.0,1.0,2.0,2.0,3.0,2.0,2.0,2.0,1.0,0.4733,1496.4924,2.0,0.3331,131.0,14,1.0
5e8a69c836bc63718a82cb90,0.0,0.0,71.0,93.0,4.0,3.0,3.0,1.0,3.0,1.0,1.0,1.0,0.4756,1498.9432,1.0,0.2245,1301.0,41,1001.0
5e8a69c836bc63718a82cb90,0.0,0.0,557.0,94.0,2.0,2.0,4.0,2.0,2.0,2.0,2.0,1.0,0.4791,1501.2929,2.0,0.3094,1040.0,14,1000.0
5e8a69c836bc63718a82cb90,0.0,0.0,449.0,95.0,1.0,2.0,2.0,3.0,2.0,2.0,2.0,1.0,0.9214,1508.8927,2.0,0.0848,131.0,14,1.0
5e8a69c836bc63718a82cb90,0.0,0.0,314.0,96.0,1.0,1.0,3.0,1.0,2.0,2.0,2.0,1.0,0.4949,1511.5928,2.0,0.1716,113.0,14,3.0
5e8a69c836bc63718a82cb90,0.0,0.0,107.0,97.0,2.0,3.0,3.0,2.0,3.0,1.0,1.0,0.0,0.6115,1513.893,2.0,0.3749,320.0,32,320.0
5e8a69c836bc63718a82cb90,0.0,0.0,208.0,98.0,3.0,3.0,4.0,4.0,2.0,1.0,1.0,1.0,1.1332,1516.5935,1.0,0.0975,2210.0,41,2000.0
5e8a69c836bc63718a82cb90,0.0,0.0,297.0,99.0,4.0,4.0,4.0,3.0,3.0,1.0,1.0,1.0,1.1697,1519.5226,1.0,0.4405,3200.0,50,3000.0
5e8a69c836bc63718a82cb90,0.0,0.0,158.0,100.0,3.0,2.0,3.0,3.0,3.0,1.0,1.0,1.0,0.7871,1522.7887,1.0,0.1233,410.0,41,410.0
5e8a69c836bc63718a82cb90,0.0,0.0,321.0,101.0,2.0,1.0,4.0,1.0,1.0,2.0,2.0,1.0,1.4655,1525.3531,2.0,0.1153,1013.0,14,1003.0
5e8a69c836bc63718a82cb90,0.0,0.0,535.0,102.0,2.0,2.0,3.0,2.0,2.0,2.0,2.0,1.0,0.6935,1528.5769,2.0,0.1163,140.0,14,140.0
5e8a69c836bc63718a82cb90,0.0,0.0,143.0,103.0,3.0,2.0,3.0,3.0,3.0,1.0,1.0,0.0,0.8635,1531.0439,2.0,0.0936,410.0,41,410.0
5e8a69c836bc63718a82cb90,0.0,0.0,225.0,104.0,3.0,4.0,4.0,4.0,2.0,1.0,1.0,1.0,1.0647,1533.71,1.0,0.3102,3110.0,41,3000.0
5e8a69c836bc63718a82cb90,0.0,0.0,54.0,105.0,3.0,3.0,3.0,3.0,1.0,1.0,1.0,1.0,0.8928,1536.7869,1.0,0.2291,401.0,41,1.0
5e8a69c836bc63718a82cb90,0.0,0.0,481.0,106.0,2.0,1.0,3.0,2.0,3.0,2.0,2.0,0.0,0.5998,1539.5432,1.0,0.4018,221.0,23,1.0
5e8a69c836bc63718a82cb90,0.0,0.0,193.0,107.0,4.0,3.0,3.0,2.0,3.0,1.0,1.0,1.0,0.628,1542.2434,1.0,0.1921,1310.0,41,1000.0
5e8a69c836bc63718a82cb90,0.0,0.0,402.0,108.0,2.0,2.0,1.0,2.0,2.0,2.0,2.0,0.0,2.1292,1544.7599,1.0,0.4338,41.0,5,1.0
5e8a69c836bc63718a82cb90,0.0,0.0,274.0,109.0,4.0,4.0,3.0,3.0,3.0,1.0,1.0,1.0,1.6321,1549.0268,1.0,0.2751,2300.0,50,2000.0
5e8a69c836bc63718a82cb90,0.0,0.0,369.0,110.0,2.0,1.0,3.0,1.0,2.0,2.0,2.0,1.0,16.9181,1552.6436,2.0,0.1988,122.0,14,2.0
5e8a69c836bc63718a82cb90,0.0,0.0,6.0,111.0,1.0,3.0,3.0,1.0,3.0,1.0,1.0,1.0,0.5416,1571.3942,1.0,0.3671,302.0,32,2.0
5e8a69c836bc63718a82cb90,0.0,0.0,507.0,112.0,1.0,3.0,3.0,3.0,2.0,2.0,1.0,0.0,0.5859,1573.9438,1.0,0.1923,311.0,32,1.0
5e8a69c836bc63718a82cb90,0.0,0.0,511.0,113.0,1.0,3.0,3.0,3.0,2.0,2.0,1.0,1.0,0.7006,1576.4384,2.0,0.2749,311.0,32,1.0
5e8a69c836bc63718a82cb90,0.0,0.0,184.0,114.0,4.0,3.0,3.0,2.0,3.0,1.0,1.0,1.0,0.5958,1579.1224,1.0,0.2761,1310.0,41,1000.0
5e8a69c836bc63718a82cb90,0.0,0.0,285.0,115.0,4.0,4.0,3.0,3.0,3.0,1.0,1.0,1.0,0.9436,1581.6443,1.0,0.275,2300.0,50,2000.0
5e8a69c836bc63718a82cb90,0.0,0.0,380.0,116.0,3.0,1.0,2.0,3.0,1.0,2.0,2.0,0.0,0.6489,1584.5105,1.0,0.0978,212.0,23,2.0
5e8a69c836bc63718a82cb90,0.0,0.0,234.0,117.0,3.0,3.0,3.0,3.0,3.0,1.0,1.0,1.0,0.883,1586.9562,1.0,0.3021,500.0,50,500.0
5e8a69c836bc63718a82cb90,0.0,0.0,575.0,118.0,2.0,3.0,2.0,2.0,4.0,2.0,2.0,1.0,2.9254,1589.8533,2.0,0.2262,1130.0,23,1000.0
5e8a69c836bc63718a82cb90,0.0,0.0,198.0,119.0,3.0,3.0,4.0,4.0,2.0,1.0,1.0,1.0,0.6774,1594.6442,1.0,0.3466,2210.0,41,2000.0
5e8a69c836bc63718a82cb90,0.0,0.0,384.0,120.0,3.0,1.0,2.0,3.0,1.0,2.0,2.0,0.0,0.4477,1597.3105,1.0,0.3074,212.0,23,2.0
5e8a69c836bc63718a82cb90,0.0,0.0,409.0,121.0,2.0,2.0,1.0,2.0,2.0,2.0,2.0,1.0,0.5707,1599.7717,2.0,0.2092,41.0,5,1.0
5e8a69c836bc63718a82cb90,0.0,0.0,28.0,122.0,2.0,3.0,1.0,3.0,3.0,1.0,1.0,0.0,0.699,1602.2433,2.0,0.1568,311.0,32,1.0
5e8a69c836bc63718a82cb90,0.0,0.0,477.0,123.0,2.0,1.0,3.0,2.0,3.0,2.0,2.0,1.0,0.6257,1604.8065,2.0,0.1315,221.0,23,1.0
5e8a69c836bc63718a82cb90,0.0,0.0,58.0,124.0,3.0,3.0,3.0,3.0,1.0,1.0,1.0,1.0,2.1948,1607.2604,1.0,0.2429,401.0,41,1.0
5e8a69c836bc63718a82cb90,0.0,0.0,135.0,125.0,4.0,3.0,2.0,2.0,4.0,1.0,1.0,1.0,0.7105,1614.4272,1.0,0.2026,2120.0,32,2000.0
5e8a69c836bc63718a82cb90,0.0,0.0,257.0,126.0,4.0,3.0,3.0,3.0,3.0,1.0,1.0,1.0,0.6326,1617.0448,1.0,0.0033,1400.0,50,1000.0
5e8a69c836bc63718a82cb90,0.0,0.0,137.0,127.0,4.0,3.0,2.0,2.0,4.0,1.0,1.0,1.0,0.6924,1619.3277,1.0,0.2422,2120.0,32,2000.0
5e8a69c836bc63718a82cb90,0.0,0.0,109.0,128.0,2.0,4.0,3.0,2.0,3.0,1.0,1.0,1.0,1.2312,1621.9112,1.0,0.3726,1220.0,32,1000.0
5e8a69c836bc63718a82cb90,0.0,0.0,154.0,129.0,3.0,2.0,3.0,3.0,3.0,1.0,1.0,1.0,2.5937,1625.1446,1.0,0.258,410.0,41,410.0
5e8a69c836bc63718a82cb90,0.0,0.0,458.0,130.0,1.0,2.0,2.0,3.0,2.0,2.0,2.0,1.0,0.4612,1629.6453,2.0,0.258,131.0,14,1.0
5e8a69c836bc63718a82cb90,0.0,0.0,530.0,131.0,2.0,2.0,2.0,2.0,2.0,2.0,2.0,1.0,1.2558,1632.0125,2.0,0.2255,50.0,5,50.0
5e8a69c836bc63718a82cb90,0.0,0.0,100.0,132.0,2.0,3.0,3.0,2.0,3.0,1.0,1.0,1.0,1.3442,1635.1451,1.0,0.294,320.0,32,320.0
5e8a69c836bc63718a82cb90,0.0,0.0,520.0,133.0,2.0,2.0,2.0,2.0,2.0,2.0,2.0,1.0,0.615,1641.8781,2.0,0.1679,50.0,5,50.0
5e8a69c836bc63718a82cb90,0.0,0.0,49.0,134.0,2.0,4.0,3.0,4.0,1.0,1.0,1.0,0.0,0.6267,1644.3781,2.0,0.3531,2111.0,32,2001.0
5e8a69c836bc63718a82cb90,0.0,0.0,149.0,135.0,3.0,2.0,3.0,3.0,3.0,1.0,1.0,1.0,0.8653,1647.0776,1.0,0.199,410.0,41,410.0
5e8a69c836bc63718a82cb90,0.0,0.0,17.0,136.0,2.0,1.0,2.0,3.0,4.0,1.0,2.0,0.0,1.0975,1649.8396,2.0,0.2471,1121.0,23,1001.0
5e8a69c836bc63718a82cb90,0.0,0.0,598.0,137.0,2.0,3.0,3.0,3.0,3.0,2.0,1.0,0.0,1.2946,1652.8888,1.0,0.1262,410.0,41,410.0
5e8a69c836bc63718a82cb90,0.0,0.0,394.0,138.0,1.0,3.0,4.0,2.0,1.0,2.0,2.0,1.0,5.2988,1655.9447,2.0,0.1257,1112.0,23,1002.0
5e8a69c836bc63718a82cb90,0.0,0.0,406.0,139.0,2.0,2.0,1.0,2.0,2.0,2.0,2.0,0.0,1.1989,1671.0782,1.0,0.4518,41.0,5,1.0
5e8a69c836bc63718a82cb90,0.0,0.0,19.0,140.0,2.0,1.0,2.0,3.0,4.0,1.0,2.0,0.0,0.6804,1674.4241,2.0,0.0027,1121.0,23,1001.0
5e8a69c836bc63718a82cb90,0.0,0.0,281.0,141.0,4.0,4.0,3.0,3.0,3.0,1.0,1.0,1.0,0.5605,1676.7617,1.0,0.2459,2300.0,50,2000.0
5e8a69c836bc63718a82cb90,0.0,0.0,361.0,142.0,2.0,1.0,3.0,1.0,2.0,2.0,2.0,1.0,1.0886,1679.2783,2.0,0.2638,122.0,14,2.0
5e8a69c836bc63718a82cb90,0.0,0.0,375.0,143.0,1.0,1.0,4.0,2.0,2.0,2.0,2.0,1.0,0.6435,1682.2737,2.0,0.2602,1022.0,14,1002.0
5e8a69c836bc63718a82cb90,0.0,0.0,558.0,144.0,2.0,2.0,4.0,2.0,2.0,2.0,2.0,1.0,1.0585,1684.8285,2.0,0.2761,1040.0,14,1000.0
5e8a69c836bc63718a82cb90,0.0,0.0,462.0,145.0,2.0,4.0,2.0,2.0,1.0,2.0,2.0,1.0,0.6763,1687.812,2.0,0.326,1031.0,14,1001.0
5e8a69c836bc63718a82cb90,0.0,0.0,247.0,146.0,4.0,3.0,3.0,3.0,3.0,1.0,1.0,1.0,1.3576,1693.2783,1.0,0.23,1400.0,50,1000.0
5e8a69c836bc63718a82cb90,0.0,0.0,261.0,147.0,4.0,3.0,3.0,3.0,3.0,1.0,1.0,1.0,1.3098,1696.5786,1.0,0.0575,1400.0,50,1000.0
5e8a69c836bc63718a82cb90,0.0,0.0,219.0,148.0,3.0,3.0,4.0,4.0,2.0,1.0,1.0,1.0,1.1415,1699.5953,1.0,0.2472,2210.0,41,2000.0
5e8a69c836bc63718a82cb90,0.0,0.0,48.0,149.0,2.0,4.0,3.0,4.0,1.0,1.0,1.0,0.0,0.6195,1705.9945,2.0,0.1011,2111.0,32,2001.0
5e8a69c836bc63718a82cb90,0.0,0.0,37.0,150.0,3.0,2.0,4.0,3.0,1.0,1.0,1.0,1.0,0.7355,1708.4315,1.0,0.0027,1211.0,32,1001.0
5e8a69c836bc63718a82cb90,0.0,0.0,223.0,151.0,3.0,4.0,4.0,4.0,2.0,1.0,1.0,1.0,0.716,1710.8565,1.0,0.275,3110.0,41,3000.0
5e8a69c836bc63718a82cb90,0.0,0.0,466.0,152.0,2.0,4.0,2.0,2.0,1.0,2.0,2.0,0.0,0.6002,1713.4789,1.0,0.291,1031.0,14,1001.0
5e8a69c836bc63718a82cb90,0.0,0.0,16.0,153.0,2.0,2.0,1.0,3.0,3.0,1.0,2.0,1.0,0.691,1716.0783,1.0,0.2899,221.0,23,1.0
5e8a69c836bc63718a82cb90,0.0,0.0,80.0,154.0,4.0,1.0,3.0,4.0,4.0,1.0,1.0,1.0,0.5762,1718.7621,1.0,0.1212,3101.0,41,3001.0
5e8a69c836bc63718a82cb90,0.0,0.0,40.0,155.0,3.0,2.0,4.0,3.0,1.0,1.0,1.0,0.0,0.6525,1721.096,2.0,0.2111,1211.0,32,1001.0
5e8a69c836bc63718a82cb90,0.0,0.0,533.0,156.0,2.0,2.0,3.0,2.0,2.0,2.0,2.0,1.0,1.7018,1728.212,2.0,0.0277,140.0,14,140.0
5e8a69c836bc63718a82cb90,0.0,0.0,524.0,157.0,2.0,2.0,2.0,2.0,2.0,2.0,2.0,1.0,0.7414,1731.6245,2.0,0.2917,50.0,5,50.0
5e8a69c836bc63718a82cb90,0.0,0.0,355.0,158.0,2.0,1.0,3.0,1.0,2.0,2.0,2.0,1.0,0.8572,1734.3129,2.0,0.3288,122.0,14,2.0
5e8a69c836bc63718a82cb90,0.0,0.0,13.0,159.0,2.0,2.0,1.0,3.0,3.0,1.0,2.0,0.0,0.5832,1737.146,2.0,0.2993,221.0,23,1.0
5e8a69c836bc63718a82cb90,0.0,0.0,103.0,160.0,2.0,3.0,3.0,2.0,3.0,1.0,1.0,1.0,1.0486,1739.746,1.0,0.2061,320.0,32,320.0
5e8a69c836bc63718a82cb90,0.0,0.0,418.0,161.0,2.0,2.0,1.0,2.0,2.0,2.0,2.0,1.0,0.6356,1745.4961,2.0,0.1676,41.0,5,1.0
5e8a69c836bc63718a82cb90,0.0,0.0,370.0,162.0,2.0,1.0,3.0,1.0,2.0,2.0,2.0,1.0,0.5448,1747.9919,2.0,0.2784,122.0,14,2.0
5e8a69c836bc63718a82cb90,0.0,0.0,259.0,163.0,4.0,3.0,3.0,3.0,3.0,1.0,1.0,1.0,0.8629,1750.4624,1.0,0.3067,1400.0,50,1000.0
5e8a69c836bc63718a82cb90,0.0,0.0,117.0,164.0,2.0,4.0,3.0,2.0,3.0,1.0,1.0,1.0,0.5927,1753.2795,1.0,0.2758,1220.0,32,1000.0
5e8a69c836bc63718a82cb90,0.0,0.0,413.0,165.0,2.0,2.0,1.0,2.0,2.0,2.0,2.0,1.0,0.7114,1755.7958,2.0,0.1943,41.0,5,1.0
5e8a69c836bc63718a82cb90,0.0,0.0,266.0,166.0,4.0,4.0,3.0,3.0,3.0,1.0,1.0,1.0,0.6246,1758.3465,1.0,0.3947,2300.0,50,2000.0
5e8a69c836bc63718a82cb90,0.0,0.0,554.0,167.0,2.0,2.0,4.0,2.0,2.0,2.0,2.0,1.0,0.6928,1761.0125,2.0,0.1755,1040.0,14,1000.0
5e8a69c836bc63718a82cb90,0.0,0.0,52.0,168.0,2.0,4.0,4.0,1.0,4.0,1.0,1.0,1.0,0.6416,1763.5296,1.0,0.3581,3011.0,32,3001.0
5e8a69c836bc63718a82cb90,0.0,0.0,275.0,169.0,4.0,4.0,3.0,3.0,3.0,1.0,1.0,1.0,0.5933,1766.1798,1.0,0.2808,2300.0,50,2000.0
5e8a69c836bc63718a82cb90,0.0,0.0,108.0,170.0,2.0,3.0,3.0,2.0,3.0,1.0,1.0,1.0,0.4072,1768.6962,1.0,0.245,320.0,32,320.0
5e8a69c836bc63718a82cb90,0.0,0.0,102.0,171.0,2.0,3.0,3.0,2.0,3.0,1.0,1.0,1.0,0.4598,1770.9966,1.0,0.2417,320.0,32,320.0
5e8a69c836bc63718a82cb90,0.0,0.0,172.0,172.0,4.0,3.0,3.0,2.0,3.0,1.0,1.0,1.0,0.5458,1773.3464,1.0,0.2792,1310.0,41,1000.0
5e8a69c836bc63718a82cb90,0.0,0.0,272.0,173.0,4.0,4.0,3.0,3.0,3.0,1.0,1.0,1.0,0.5088,1775.8132,1.0,0.4429,2300.0,50,2000.0
5e8a69c836bc63718a82cb90,0.0,0.0,475.0,174.0,2.0,1.0,3.0,2.0,3.0,2.0,2.0,1.0,0.4418,1778.4134,2.0,0.0909,221.0,23,1.0
5e8a69c836bc63718a82cb90,0.0,0.0,583.0,175.0,2.0,3.0,2.0,2.0,4.0,2.0,2.0,1.0,0.5424,1783.4627,2.0,0.3527,1130.0,23,1000.0
5e8a69c836bc63718a82cb90,0.0,0.0,553.0,176.0,2.0,2.0,4.0,2.0,2.0,2.0,2.0,1.0,0.4424,1786.0462,2.0,0.3081,1040.0,14,1000.0
5e8a69c836bc63718a82cb90,0.0,0.0,562.0,177.0,2.0,3.0,2.0,2.0,3.0,2.0,2.0,1.0,0.5925,1788.4459,2.0,0.028,230.0,23,230.0
5e8a69c836bc63718a82cb90,0.0,0.0,567.0,178.0,2.0,3.0,2.0,2.0,3.0,2.0,2.0,1.0,0.5109,1790.7132,2.0,0.4244,230.0,23,230.0
5e8a69c836bc63718a82cb90,0.0,0.0,197.0,179.0,3.0,3.0,4.0,4.0,2.0,1.0,1.0,1.0,0.5459,1793.2961,1.0,0.1957,2210.0,41,2000.0
5e8a69c836bc63718a82cb90,0.0,0.0,3.0,180.0,3.0,2.0,1.0,1.0,3.0,1.0,2.0,0.0,0.5303,1795.6797,2.0,0.4162,212.0,23,2.0
5e8a69c836bc63718a82cb90,0.0,0.0,318.0,181.0,1.0,1.0,3.0,1.0,2.0,2.0,2.0,1.0,0.5517,1798.3305,2.0,0.066,113.0,14,3.0
5e8a69c836bc63718a82cb90,0.0,0.0,421.0,182.0,2.0,2.0,1.0,2.0,2.0,2.0,2.0,1.0,0.6435,1800.6415,2.0,0.0768,41.0,5,1.0
5e8a69c836bc63718a82cb90,0.0,0.0,513.0,183.0,3.0,2.0,3.0,1.0,4.0,2.0,1.0,1.0,3.8745,1803.0137,2.0,0.2278,1211.0,32,1001.0
5e8a69c836bc63718a82cb90,0.0,0.0,486.0,184.0,2.0,1.0,3.0,2.0,3.0,2.0,2.0,0.0,0.5607,1808.7645,1.0,0.2493,221.0,23,1.0
5e8a69c836bc63718a82cb90,0.0,0.0,140.0,185.0,3.0,2.0,3.0,3.0,3.0,1.0,1.0,1.0,0.752,1811.28,1.0,0.1577,410.0,41,410.0
5e8a69c836bc63718a82cb90,0.0,0.0,338.0,186.0,1.0,1.0,2.0,2.0,2.0,2.0,2.0,1.0,0.6257,1813.8921,2.0,0.3322,32.0,5,2.0
5e8a69c836bc63718a82cb90,0.0,0.0,303.0,187.0,1.0,1.0,1.0,1.0,3.0,2.0,2.0,1.0,0.4275,1816.4967,2.0,0.1477,104.0,14,4.0
5e8a69c836bc63718a82cb90,0.0,0.0,310.0,188.0,1.0,1.0,2.0,1.0,2.0,2.0,2.0,1.0,0.6804,1818.7133,2.0,0.2597,23.0,5,3.0
5e8a69c836bc63718a82cb90,0.0,0.0,450.0,189.0,1.0,2.0,2.0,3.0,2.0,2.0,2.0,1.0,0.3745,1821.2963,2.0,0.1945,131.0,14,1.0
5e8a69c836bc63718a82cb90,0.0,0.0,514.0,190.0,3.0,2.0,3.0,1.0,4.0,2.0,1.0,1.0,0.4947,1823.5136,2.0,0.2766,1211.0,32,1001.0
5e8a69c836bc63718a82cb90,0.0,0.0,572.0,191.0,2.0,3.0,2.0,2.0,3.0,2.0,2.0,1.0,0.5918,1825.932,2.0,0.4075,230.0,23,230.0
5e8a69c836bc63718a82cb90,0.0,0.0,313.0,192.0,1.0,1.0,2.0,1.0,2.0,2.0,2.0,1.0,0.4418,1828.5804,2.0,0.2804,23.0,5,3.0
5e8a69c836bc63718a82cb90,0.0,0.0,504.0,193.0,2.0,3.0,4.0,2.0,1.0,2.0,2.0,1.0,0.3938,1830.9469,2.0,0.2834,1121.0,23,1001.0
5e8a69c836bc63718a82cb90,0.0,0.0,550.0,194.0,2.0,2.0,3.0,2.0,2.0,2.0,2.0,1.0,0.4494,1833.2639,2.0,0.2254,140.0,14,140.0
5e8a69c836bc63718a82cb90,0.0,0.0,439.0,195.0,1.0,2.0,2.0,3.0,2.0,2.0,2.0,1.0,0.7078,1838.9331,2.0,0.0022,131.0,14,1.0
5e8a69c836bc63718a82cb90,0.0,0.0,503.0,196.0,2.0,3.0,4.0,2.0,1.0,2.0,2.0,1.0,0.483,1841.3639,2.0,0.1235,1121.0,23,1001.0
5e8a69c836bc63718a82cb90,0.0,0.0,209.0,197.0,3.0,3.0,4.0,4.0,2.0,1.0,1.0,0.0,0.6306,1843.6138,2.0,0.1526,2210.0,41,2000.0
5e8a69c836bc63718a82cb90,0.0,0.0,305.0,198.0,1.0,1.0,2.0,1.0,2.0,2.0,2.0,1.0,2.6342,1846.0969,2.0,0.3539,23.0,5,3.0
5e8a69c836bc63718a82cb90,0.0,0.0,25.0,199.0,2.0,3.0,1.0,3.0,3.0,1.0,1.0,1.0,0.4609,1850.781,1.0,0.2305,311.0,32,1.0
5e8a69c836bc63718a82cb90,0.0,0.0,600.0,200.0,2.0,4.0,3.0,4.0,3.0,2.0,1.0,0.0,0.5924,1853.1142,1.0,0.1579,2210.0,41,2000.0
5e8a69c836bc63718a82cb90,0.0,0.0,576.0,201.0,2.0,3.0,2.0,2.0,4.0,2.0,2.0,1.0,0.6003,1855.5804,2.0,0.3307,1130.0,23,1000.0
5e8a69c836bc63718a82cb90,0.0,0.0,573.0,202.0,2.0,3.0,2.0,2.0,3.0,2.0,2.0,0.0,0.564,1858.2086,1.0,0.3932,230.0,23,230.0
5e8a69c836bc63718a82cb90,0.0,0.0,555.0,203.0,2.0,2.0,4.0,2.0,2.0,2.0,2.0,1.0,23.4692,1860.8642,2.0,0.2761,1040.0,14,1000.0
5e8a69c836bc63718a82cb90,0.0,0.0,295.0,204.0,4.0,4.0,4.0,3.0,3.0,1.0,1.0,1.0,0.3598,1886.3086,1.0,0.2448,3200.0,50,3000.0
5e8a69c836bc63718a82cb90,0.0,0.0,560.0,205.0,2.0,3.0,2.0,2.0,3.0,2.0,2.0,1.0,0.4804,1888.5477,2.0,0.0169,230.0,23,230.0
5e8a69c836bc63718a82cb90,0.0,0.0,460.0,206.0,2.0,4.0,2.0,2.0,1.0,2.0,2.0,1.0,0.4748,1890.6978,2.0,0.1926,1031.0,14,1001.0
5e8a69c836bc63718a82cb90,0.0,0.0,522.0,207.0,2.0,2.0,2.0,2.0,2.0,2.0,2.0,1.0,0.4067,1893.0146,2.0,0.1404,50.0,5,50.0
5e8a69c836bc63718a82cb90,0.0,0.0,293.0,208.0,4.0,4.0,4.0,3.0,3.0,1.0,1.0,1.0,0.3437,1895.2142,1.0,0.1087,3200.0,50,3000.0
5e8a69c836bc63718a82cb90,0.0,0.0,136.0,209.0,4.0,3.0,2.0,2.0,4.0,1.0,1.0,1.0,0.4769,1897.3149,1.0,0.1475,2120.0,32,2000.0
5e8a69c836bc63718a82cb90,0.0,0.0,180.0,210.0,4.0,3.0,3.0,2.0,3.0,1.0,1.0,1.0,0.391,1899.5818,1.0,0.2426,1310.0,41,1000.0
5e8a69c836bc63718a82cb90,0.0,0.0,23.0,211.0,2.0,3.0,1.0,3.0,3.0,1.0,1.0,1.0,0.4616,1901.8645,1.0,0.1383,311.0,32,1.0
5e8a69c836bc63718a82cb90,0.0,0.0,515.0,212.0,3.0,2.0,3.0,1.0,4.0,2.0,1.0,0.0,0.4677,1904.1142,1.0,0.4394,1211.0,32,1001.0
5e8a69c836bc63718a82cb90,0.0,0.0,546.0,213.0,2.0,2.0,3.0,2.0,2.0,2.0,2.0,1.0,0.5092,1906.7262,2.0,0.1248,140.0,14,140.0
5e8a69c836bc63718a82cb90,0.0,0.0,435.0,214.0,1.0,2.0,2.0,3.0,2.0,2.0,2.0,1.0,0.3933,1911.7308,2.0,0.0149,131.0,14,1.0
5e8a69c836bc63718a82cb90,0.0,0.0,401.0,215.0,2.0,2.0,1.0,2.0,2.0,2.0,2.0,1.0,3.8898,1913.8317,2.0,0.2596,41.0,5,1.0
5e8a69c836bc63718a82cb90,0.0,0.0,134.0,216.0,4.0,3.0,2.0,2.0,4.0,1.0,1.0,1.0,0.3753,1919.6317,1.0,0.0983,2120.0,32,2000.0
5e8a69c836bc63718a82cb90,0.0,0.0,26.0,217.0,2.0,3.0,1.0,3.0,3.0,1.0,1.0,1.0,0.4763,1921.7314,1.0,0.1647,311.0,32,1.0
5e8a69c836bc63718a82cb90,0.0,0.0,218.0,218.0,3.0,3.0,4.0,4.0,2.0,1.0,1.0,1.0,0.46,1924.0147,1.0,0.2688,2210.0,41,2000.0
5e8a69c836bc63718a82cb90,0.0,0.0,73.0,219.0,3.0,4.0,1.0,3.0,4.0,1.0,1.0,1.0,0.4907,1926.3817,1.0,0.2237,2201.0,41,2001.0
5e8a69c836bc63718a82cb90,0.0,0.0,232.0,220.0,3.0,3.0,3.0,3.0,3.0,1.0,1.0,1.0,14.799,1931.8487,1.0,0.2854,500.0,50,500.0
5e8a69c836bc63718a82cb90,0.0,0.0,302.0,221.0,2.0,1.0,1.0,1.0,1.0,2.0,2.0,1.0,0.5082,1948.6487,2.0,0.3275,14.0,5,4.0
5e8a69c836bc63718a82cb90,0.0,0.0,485.0,222.0,2.0,1.0,3.0,2.0,3.0,2.0,2.0,1.0,0.3412,1951.1317,2.0,0.1272,221.0,23,1.0
5e8a69c836bc63718a82cb90,0.0,0.0,587.0,223.0,2.0,2.0,3.0,3.0,3.0,2.0,1.0,0.0,1.0314,1953.2488,1.0,0.2736,320.0,32,320.0
5e8a69c836bc63718a82cb90,0.0,0.0,440.0,224.0,1.0,2.0,2.0,3.0,2.0,2.0,2.0,1.0,0.5898,1963.2986,2.0,0.3015,131.0,14,1.0
5e8a69c836bc63718a82cb90,0.0,0.0,312.0,225.0,1.0,1.0,2.0,1.0,2.0,2.0,2.0,1.0,0.7079,1965.8984,2.0,0.2863,23.0,5,3.0
5e8a69c836bc63718a82cb90,0.0,0.0,389.0,226.0,1.0,3.0,4.0,2.0,1.0,2.0,2.0,1.0,0.8097,1968.5321,2.0,0.3613,1112.0,23,1002.0
5e8a69c836bc63718a82cb90,0.0,0.0,202.0,227.0,3.0,3.0,4.0,4.0,2.0,1.0,1.0,1.0,2.1618,1971.3488,1.0,0.2939,2210.0,41,2000.0
5e8a69c836bc63718a82cb90,0.0,0.0,429.0,228.0,1.0,2.0,2.0,3.0,2.0,2.0,2.0,1.0,0.9592,1975.4486,2.0,0.2977,131.0,14,1.0
5e8a69c836bc63718a82cb90,0.0,0.0,96.0,229.0,2.0,3.0,3.0,2.0,3.0,1.0,1.0,1.0,0.414,1981.3155,1.0,0.1686,320.0,32,320.0
5e8a69c836bc63718a82cb90,0.0,0.0,344.0,230.0,1.0,1.0,2.0,2.0,2.0,2.0,2.0,1.0,0.5932,1983.5985,2.0,0.2738,32.0,5,2.0
5e8a69c836bc63718a82cb90,0.0,0.0,452.0,231.0,1.0,2.0,2.0,3.0,2.0,2.0,2.0,1.0,1.1091,1992.1321,2.0,0.2858,131.0,14,1.0
5e8a69c836bc63718a82cb90,0.0,0.0,62.0,232.0,4.0,3.0,3.0,1.0,3.0,1.0,1.0,1.0,0.747,1998.0657,1.0,0.2363,1301.0,41,1001.0
5e8a69c836bc63718a82cb90,0.0,0.0,38.0,233.0,3.0,2.0,4.0,3.0,1.0,1.0,1.0,1.0,0.9703,2000.7491,1.0,0.3798,1211.0,32,1001.0
5e8a69c836bc63718a82cb90,0.0,0.0,352.0,234.0,2.0,1.0,3.0,1.0,2.0,2.0,2.0,0.0,0.6173,2003.7439,1.0,0.2654,122.0,14,2.0
5e8a69c836bc63718a82cb90,0.0,0.0,21.0,235.0,2.0,1.0,2.0,3.0,4.0,1.0,2.0,0.0,0.5747,2006.3267,2.0,0.1101,1121.0,23,1001.0
5e8a69c836bc63718a82cb90,0.0,0.0,240.0,236.0,4.0,3.0,3.0,3.0,3.0,1.0,1.0,1.0,5.1843,2011.4826,1.0,0.2853,1400.0,50,1000.0
5e8a69c836bc63718a82cb90,0.0,0.0,327.0,237.0,1.0,1.0,2.0,2.0,2.0,2.0,2.0,1.0,0.4807,2018.6441,2.0,0.0836,32.0,5,2.0
5e8a69c836bc63718a82cb90,0.0,0.0,363.0,238.0,2.0,1.0,3.0,1.0,2.0,2.0,2.0,1.0,1.1453,2020.8498,2.0,0.0291,122.0,14,2.0
5e8a69c836bc63718a82cb90,0.0,0.0,142.0,239.0,3.0,2.0,3.0,3.0,3.0,1.0,1.0,1.0,0.8761,2023.6662,1.0,0.2415,410.0,41,410.0
5e8a69c836bc63718a82cb90,0.0,0.0,299.0,240.0,4.0,3.0,4.0,4.0,4.0,1.0,1.0,1.0,0.7306,2026.4328,1.0,0.2411,4100.0,50,4000.0
5e8a69c836bc63718a82cb90,0.0,0.0,549.0,241.0,2.0,2.0,3.0,2.0,2.0,2.0,2.0,1.0,1.042,2029.05,2.0,0.3071,140.0,14,140.0
5e8a69c836bc63718a82cb90,0.0,0.0,244.0,242.0,4.0,3.0,3.0,3.0,3.0,1.0,1.0,0.0,0.66,2032.0503,2.0,0.2477,1400.0,50,1000.0
5e8a69c836bc63718a82cb90,0.0,0.0,537.0,243.0,2.0,2.0,3.0,2.0,2.0,2.0,2.0,1.0,0.7113,2034.666,2.0,0.134,140.0,14,140.0
5e8a69c836bc63718a82cb90,0.0,0.0,300.0,244.0,4.0,3.0,4.0,4.0,4.0,1.0,1.0,1.0,0.8427,2037.1995,1.0,0.094,4100.0,50,4000.0
5e8a69c836bc63718a82cb90,0.0,0.0,24.0,245.0,2.0,3.0,1.0,3.0,3.0,1.0,1.0,1.0,1.2263,2039.7829,1.0,0.2975,311.0,32,1.0
5e8a69c836bc63718a82cb90,0.0,0.0,231.0,246.0,3.0,3.0,3.0,3.0,3.0,1.0,1.0,1.0,0.8151,2042.9495,1.0,0.358,500.0,50,500.0
5e8a69c836bc63718a82cb90,0.0,0.0,27.0,247.0,2.0,3.0,1.0,3.0,3.0,1.0,1.0,1.0,0.883,2045.7714,1.0,0.0169,311.0,32,1.0
5e8a69c836bc63718a82cb90,0.0,0.0,252.0,248.0,4.0,3.0,3.0,3.0,3.0,1.0,1.0,1.0,0.9482,2051.1002,1.0,0.1845,1400.0,50,1000.0
5e8a69c836bc63718a82cb90,0.0,0.0,287.0,249.0,4.0,4.0,3.0,3.0,3.0,1.0,1.0,1.0,0.56,2053.9335,1.0,0.3006,2300.0,50,2000.0
5e8a69c836bc63718a82cb90,0.0,0.0,438.0,250.0,1.0,2.0,2.0,3.0,2.0,2.0,2.0,1.0,0.5927,2056.4337,2.0,0.0158,131.0,14,1.0
5e8a69c836bc63718a82cb90,0.0,0.0,94.0,251.0,2.0,3.0,3.0,2.0,3.0,1.0,1.0,1.0,0.6211,2058.683,1.0,0.2227,320.0,32,320.0
5e8a69c836bc63718a82cb90,0.0,0.0,229.0,252.0,3.0,3.0,3.0,3.0,3.0,1.0,1.0,1.0,0.5442,2061.1835,1.0,0.2427,500.0,50,500.0
5e8a69c836bc63718a82cb90,0.0,0.0,461.0,253.0,2.0,4.0,2.0,2.0,1.0,2.0,2.0,1.0,0.4401,2063.6162,2.0,0.2588,1031.0,14,1001.0
5e8a69c836bc63718a82cb90,0.0,0.0,263.0,254.0,4.0,3.0,3.0,3.0,3.0,1.0,1.0,1.0,1.6762,2065.967,1.0,0.2025,1400.0,50,1000.0
5e8a69c836bc63718a82cb90,0.0,0.0,333.0,255.0,1.0,1.0,2.0,2.0,2.0,2.0,2.0,0.0,1.7564,2069.4834,1.0,0.2751,32.0,5,2.0
5e8a69c836bc63718a82cb90,0.0,0.0,334.0,256.0,1.0,1.0,2.0,2.0,2.0,2.0,2.0,1.0,1.063,2073.2331,2.0,0.1652,32.0,5,2.0
5e8a69c836bc63718a82cb90,0.0,0.0,393.0,257.0,1.0,3.0,4.0,2.0,1.0,2.0,2.0,1.0,0.4774,2076.1665,2.0,0.2561,1112.0,23,1002.0
5e8a69c836bc63718a82cb90,0.0,0.0,130.0,258.0,4.0,3.0,2.0,2.0,4.0,1.0,1.0,1.0,0.5916,2078.5494,1.0,0.2937,2120.0,32,2000.0
5e8a69c836bc63718a82cb90,0.0,0.0,139.0,259.0,3.0,2.0,3.0,3.0,3.0,1.0,1.0,1.0,0.5276,2081.0834,1.0,0.1649,410.0,41,410.0
5e8a69c836bc63718a82cb90,0.0,0.0,521.0,260.0,2.0,2.0,2.0,2.0,2.0,2.0,2.0,1.0,1.6444,2083.4165,2.0,0.0506,50.0,5,50.0
5e8a69c836bc63718a82cb90,0.0,0.0,377.0,261.0,1.0,1.0,4.0,2.0,2.0,2.0,2.0,1.0,0.8256,2086.75,2.0,0.3753,1022.0,14,1002.0
5e8a69c836bc63718a82cb90,0.0,0.0,92.0,262.0,4.0,2.0,2.0,2.0,3.0,1.0,2.0,0.0,1.4947,2089.6006,2.0,0.2817,1130.0,23,1000.0
5e8a69c836bc63718a82cb90,0.0,0.0,569.0,263.0,2.0,3.0,2.0,2.0,3.0,2.0,2.0,1.0,1.1645,2093.0841,2.0,0.1737,230.0,23,230.0
5e8a69c836bc63718a82cb90,0.0,0.0,76.0,264.0,3.0,4.0,1.0,3.0,4.0,1.0,1.0,0.0,0.7156,2096.1285,2.0,0.2433,2201.0,41,2001.0
5e8a69c836bc63718a82cb90,0.0,0.0,177.0,265.0,4.0,3.0,3.0,2.0,3.0,1.0,1.0,1.0,0.9156,2101.5501,1.0,0.2526,1310.0,41,1000.0
5e8a69c836bc63718a82cb90,0.0,0.0,529.0,266.0,2.0,2.0,2.0,2.0,2.0,2.0,2.0,1.0,1.5254,2104.417,2.0,0.0516,50.0,5,50.0
5e8a69c836bc63718a82cb90,0.0,0.0,385.0,267.0,3.0,1.0,2.0,3.0,1.0,2.0,2.0,0.0,0.5831,2107.6344,1.0,0.4315,212.0,23,2.0
5e8a69c836bc63718a82cb90,0.0,0.0,323.0,268.0,1.0,1.0,1.0,3.0,3.0,2.0,2.0,1.0,1.6659,2110.3441,2.0,0.4455,203.0,23,3.0
5e8a69c836bc63718a82cb90,0.0,0.0,347.0,269.0,1.0,1.0,2.0,2.0,2.0,2.0,2.0,1.0,6.1925,2114.1504,2.0,0.2422,32.0,5,2.0
5e8a69c836bc63718a82cb90,0.0,0.0,528.0,270.0,2.0,2.0,2.0,2.0,2.0,2.0,2.0,1.0,0.6932,2122.2343,2.0,0.2585,50.0,5,50.0
5e8a69c836bc63718a82cb90,0.0,0.0,178.0,271.0,4.0,3.0,3.0,2.0,3.0,1.0,1.0,0.0,0.6035,2124.8336,2.0,0.128,1310.0,41,1000.0
5e8a69c836bc63718a82cb90,0.0,0.0,545.0,272.0,2.0,2.0,3.0,2.0,2.0,2.0,2.0,1.0,0.5522,2127.2784,2.0,0.2693,140.0,14,140.0
5e8a69c836bc63718a82cb90,0.0,0.0,348.0,273.0,2.0,1.0,3.0,1.0,2.0,2.0,2.0,1.0,1.4594,2129.7856,2.0,0.2594,122.0,14,2.0
5e8a69c836bc63718a82cb90,0.0,0.0,372.0,274.0,1.0,1.0,4.0,2.0,2.0,2.0,2.0,1.0,1.0271,2133.1514,2.0,0.0989,1022.0,14,1002.0
5e8a69c836bc63718a82cb90,0.0,0.0,517.0,275.0,3.0,4.0,4.0,2.0,1.0,2.0,1.0,0.0,0.729,2138.6681,1.0,0.3686,2111.0,32,2001.0
5e8a69c836bc63718a82cb90,0.0,0.0,570.0,276.0,2.0,3.0,2.0,2.0,3.0,2.0,2.0,1.0,30.5457,2141.4674,2.0,0.0321,230.0,23,230.0
5e8a69c836bc63718a82cb90,0.0,0.0,559.0,277.0,2.0,3.0,2.0,2.0,3.0,2.0,2.0,0.0,0.4743,2173.7527,1.0,0.2449,230.0,23,230.0
5e8a69c836bc63718a82cb90,0.0,0.0,235.0,278.0,3.0,3.0,3.0,3.0,3.0,1.0,1.0,1.0,0.5173,2176.1848,1.0,0.1409,500.0,50,500.0
5e8a69c836bc63718a82cb90,0.0,0.0,201.0,279.0,3.0,3.0,4.0,4.0,2.0,1.0,1.0,1.0,0.4935,2178.5469,1.0,0.1884,2210.0,41,2000.0
5e8a69c836bc63718a82cb90,0.0,0.0,120.0,280.0,2.0,4.0,3.0,2.0,3.0,1.0,1.0,1.0,0.606,2183.6857,1.0,0.0528,1220.0,32,1000.0
5e8a69c836bc63718a82cb90,0.0,0.0,245.0,281.0,4.0,3.0,3.0,3.0,3.0,1.0,1.0,1.0,0.7257,2186.035,1.0,0.4248,1400.0,50,1000.0
5e8a69c836bc63718a82cb90,0.0,0.0,255.0,282.0,4.0,3.0,3.0,3.0,3.0,1.0,1.0,1.0,0.6435,2188.835,1.0,0.2141,1400.0,50,1000.0
5e8a69c836bc63718a82cb90,0.0,0.0,493.0,283.0,2.0,3.0,4.0,2.0,1.0,2.0,2.0,0.0,0.5995,2191.3178,1.0,0.0827,1121.0,23,1001.0
5e8a69c836bc63718a82cb90,0.0,0.0,508.0,284.0,1.0,3.0,3.0,3.0,2.0,2.0,1.0,1.0,1.5824,2193.7014,2.0,0.2344,311.0,32,1.0
5e8a69c836bc63718a82cb90,0.0,0.0,243.0,285.0,4.0,3.0,3.0,3.0,3.0,1.0,1.0,1.0,1.2259,2197.2025,1.0,0.3086,1400.0,50,1000.0
5e8a69c836bc63718a82cb90,0.0,0.0,2.0,286.0,3.0,2.0,1.0,1.0,3.0,1.0,2.0,1.0,0.6091,2200.3852,1.0,0.343,212.0,23,2.0
5e8a69c836bc63718a82cb90,0.0,0.0,350.0,287.0,2.0,1.0,3.0,1.0,2.0,2.0,2.0,1.0,0.9135,2202.9859,2.0,0.2842,122.0,14,2.0
5e8a69c836bc63718a82cb90,0.0,0.0,455.0,288.0,1.0,2.0,2.0,3.0,2.0,2.0,2.0,1.0,0.4093,2205.8284,2.0,0.2062,131.0,14,1.0
5e8a69c836bc63718a82cb90,0.0,0.0,110.0,289.0,2.0,4.0,3.0,2.0,3.0,1.0,1.0,0.0,0.6669,2208.0849,2.0,0.3717,1220.0,32,1000.0
5e8a69c836bc63718a82cb90,0.0,0.0,578.0,290.0,2.0,3.0,2.0,2.0,4.0,2.0,2.0,1.0,0.5175,2210.8183,2.0,0.3409,1130.0,23,1000.0
5e8a69c836bc63718a82cb90,0.0,0.0,386.0,291.0,3.0,1.0,2.0,3.0,1.0,2.0,2.0,0.0,0.5849,2213.3861,1.0,0.2633,212.0,23,2.0
5e8a69c836bc63718a82cb90,0.0,0.0,335.0,292.0,1.0,1.0,2.0,2.0,2.0,2.0,2.0,1.0,1.2757,2215.9299,2.0,0.107,32.0,5,2.0
5e8a69c836bc63718a82cb90,0.0,0.0,491.0,293.0,2.0,1.0,3.0,2.0,3.0,2.0,2.0,1.0,0.6913,2219.0182,2.0,0.3942,221.0,23,1.0
5e8a69c836bc63718a82cb90,0.0,0.0,494.0,294.0,2.0,3.0,4.0,2.0,1.0,2.0,2.0,1.0,0.4759,2224.6685,2.0,0.3026,1121.0,23,1001.0
5e8a69c836bc63718a82cb90,0.0,0.0,65.0,295.0,4.0,3.0,3.0,1.0,3.0,1.0,1.0,1.0,0.8586,2227.1349,1.0,0.2573,1301.0,41,1001.0
5e8a69c836bc63718a82cb90,0.0,0.0,57.0,296.0,3.0,3.0,3.0,3.0,1.0,1.0,1.0,1.0,0.5767,2229.9018,1.0,0.193,401.0,41,1.0
5e8a69c836bc63718a82cb90,0.0,0.0,126.0,297.0,2.0,4.0,3.0,2.0,3.0,1.0,1.0,1.0,0.5249,2232.3189,1.0,0.0951,1220.0,32,1000.0
5e8a69c836bc63718a82cb90,0.0,0.0,35.0,298.0,3.0,2.0,4.0,3.0,1.0,1.0,1.0,1.0,0.5252,2234.5854,1.0,0.1083,1211.0,32,1001.0
5e8a69c836bc63718a82cb90,0.0,0.0,396.0,299.0,1.0,3.0,3.0,3.0,1.0,2.0,1.0,0.0,0.6923,2242.5642,1.0,0.4362,302.0,32,2.0
5e8a69c836bc63718a82cb90,0.0,0.0,77.0,300.0,3.0,4.0,1.0,3.0,4.0,1.0,1.0,1.0,0.5614,2245.386,1.0,0.0653,2201.0,41,2001.0
5e8a69c836bc63718a82cb90,0.0,0.0,182.0,301.0,4.0,3.0,3.0,2.0,3.0,1.0,1.0,1.0,0.8257,2247.7026,1.0,0.2686,1310.0,41,1000.0
5e8a69c836bc63718a82cb90,0.0,0.0,72.0,302.0,3.0,4.0,1.0,3.0,4.0,1.0,1.0,1.0,0.9434,2250.4354,1.0,0.2656,2201.0,41,2001.0
5e8a69c836bc63718a82cb90,0.0,0.0,322.0,303.0,2.0,1.0,4.0,1.0,1.0,2.0,2.0,1.0,1.2423,2253.2863,2.0,0.3442,1013.0,14,1003.0
5e8a69c836bc63718a82cb90,0.0,0.0,551.0,304.0,2.0,2.0,3.0,2.0,2.0,2.0,2.0,1.0,0.5933,2256.5193,2.0,0.3477,140.0,14,140.0
5e8a69c836bc63718a82cb90,0.0,0.0,276.0,305.0,4.0,4.0,3.0,3.0,3.0,1.0,1.0,1.0,0.6268,2262.0854,1.0,0.223,2300.0,50,2000.0
5e8a69c836bc63718a82cb90,0.0,0.0,85.0,306.0,2.0,2.0,3.0,3.0,2.0,1.0,2.0,0.0,0.8082,2264.6362,2.0,0.2025,230.0,23,230.0
5e8a69c836bc63718a82cb90,0.0,0.0,568.0,307.0,2.0,3.0,2.0,2.0,3.0,2.0,2.0,1.0,0.5791,2267.3362,2.0,0.348,230.0,23,230.0
5e8a69c836bc63718a82cb90,0.0,0.0,316.0,308.0,1.0,1.0,3.0,1.0,2.0,2.0,2.0,1.0,0.6095,2269.9523,2.0,0.322,113.0,14,3.0
5e8a69c836bc63718a82cb90,0.0,0.0,230.0,309.0,3.0,3.0,3.0,3.0,3.0,1.0,1.0,1.0,2.5424,2279.1477,1.0,0.3346,500.0,50,500.0
5e8a69c836bc63718a82cb90,0.0,0.0,523.0,310.0,2.0,2.0,2.0,2.0,2.0,2.0,2.0,0.0,0.6757,2283.7359,1.0,0.1412,50.0,5,50.0
5e8a69c836bc63718a82cb90,0.0,0.0,183.0,311.0,4.0,3.0,3.0,2.0,3.0,1.0,1.0,0.0,1.246,2286.2691,2.0,0.047,1310.0,41,1000.0
5e8a69c836bc63718a82cb90,0.0,0.0,464.0,312.0,2.0,4.0,2.0,2.0,1.0,2.0,2.0,1.0,1.498,2309.3195,2.0,0.4525,1031.0,14,1001.0
5e8a69c836bc63718a82cb90,0.0,0.0,509.0,313.0,1.0,3.0,3.0,3.0,2.0,2.0,1.0,0.0,0.615,2312.9807,1.0,0.2091,311.0,32,1.0
5e8a69c836bc63718a82cb90,0.0,0.0,194.0,314.0,4.0,3.0,3.0,2.0,3.0,1.0,1.0,1.0,0.4747,2315.497,1.0,0.0169,1310.0,41,1000.0
5e8a69c836bc63718a82cb90,0.0,0.0,165.0,315.0,4.0,3.0,3.0,2.0,3.0,1.0,1.0,1.0,0.5655,2317.6861,1.0,0.0028,1310.0,41,1000.0
5e8a69c836bc63718a82cb90,0.0,0.0,155.0,316.0,3.0,2.0,3.0,3.0,3.0,1.0,1.0,1.0,0.4916,2319.9031,1.0,0.2585,410.0,41,410.0
5e8a69c836bc63718a82cb90,0.0,0.0,467.0,317.0,2.0,4.0,2.0,2.0,1.0,2.0,2.0,0.0,0.4473,2322.3033,1.0,0.3336,1031.0,14,1001.0
5e8a69c836bc63718a82cb90,0.0,0.0,69.0,318.0,4.0,3.0,3.0,1.0,3.0,1.0,1.0,1.0,0.5342,2324.7866,1.0,0.3916,1301.0,41,1001.0
5e8a69c836bc63718a82cb90,0.0,0.0,453.0,319.0,1.0,2.0,2.0,3.0,2.0,2.0,2.0,1.0,0.4343,2330.17,2.0,0.0861,131.0,14,1.0
5e8a69c836bc63718a82cb90,0.0,0.0,78.0,320.0,3.0,4.0,1.0,3.0,4.0,1.0,1.0,1.0,0.4258,2332.3819,1.0,0.2424,2201.0,41,2001.0
5e8a69c836bc63718a82cb90,0.0,0.0,364.0,321.0,2.0,1.0,3.0,1.0,2.0,2.0,2.0,1.0,1.06,2334.7033,2.0,0.4605,122.0,14,2.0
5e8a69c836bc63718a82cb90,0.0,0.0,214.0,322.0,3.0,3.0,4.0,4.0,2.0,1.0,1.0,1.0,0.6644,2340.7807,1.0,0.3007,2210.0,41,2000.0
5e8a69c836bc63718a82cb90,0.0,0.0,404.0,323.0,2.0,2.0,1.0,2.0,2.0,2.0,2.0,1.0,0.4906,2343.4531,2.0,0.2593,41.0,5,1.0
5e8a69c836bc63718a82cb90,0.0,0.0,419.0,324.0,2.0,2.0,1.0,2.0,2.0,2.0,2.0,1.0,1.5482,2349.1701,2.0,0.402,41.0,5,1.0
5e8a69c836bc63718a82cb90,0.0,0.0,581.0,325.0,2.0,3.0,2.0,2.0,4.0,2.0,2.0,1.0,0.9767,2352.8201,2.0,0.2282,1130.0,23,1000.0
5e8a69c836bc63718a82cb90,0.0,0.0,381.0,326.0,3.0,1.0,2.0,3.0,1.0,2.0,2.0,1.0,12.0428,2355.6702,2.0,0.3323,212.0,23,2.0
5e8a69c836bc63718a82cb90,0.0,0.0,1.0,327.0,1.0,2.0,3.0,2.0,1.0,1.0,2.0,0.0,0.7174,2369.687,2.0,0.2643,122.0,14,2.0
5e8a69c836bc63718a82cb90,0.0,0.0,356.0,328.0,2.0,1.0,3.0,1.0,2.0,2.0,2.0,1.0,0.5265,2372.3816,2.0,0.3823,122.0,14,2.0
5e8a69c836bc63718a82cb90,0.0,0.0,271.0,329.0,4.0,4.0,3.0,3.0,3.0,1.0,1.0,1.0,0.9418,2375.0034,1.0,0.1492,2300.0,50,2000.0
5e8a69c836bc63718a82cb90,0.0,0.0,187.0,330.0,4.0,3.0,3.0,2.0,3.0,1.0,1.0,1.0,0.6262,2377.737,1.0,0.4579,1310.0,41,1000.0
5e8a69c836bc63718a82cb90,0.0,0.0,539.0,331.0,2.0,2.0,3.0,2.0,2.0,2.0,2.0,1.0,0.5454,2385.8536,2.0,0.2023,140.0,14,140.0
5e8a69c836bc63718a82cb90,0.0,0.0,29.0,332.0,2.0,3.0,1.0,3.0,3.0,1.0,1.0,0.0,0.531,2388.3037,2.0,0.249,311.0,32,1.0
5e8a69c836bc63718a82cb90,0.0,0.0,308.0,333.0,1.0,1.0,2.0,1.0,2.0,2.0,2.0,0.0,4.4104,2390.7868,1.0,0.2663,23.0,5,3.0
5e8a69c836bc63718a82cb90,0.0,0.0,447.0,334.0,1.0,2.0,2.0,3.0,2.0,2.0,2.0,1.0,1.603,2397.1046,2.0,0.0297,131.0,14,1.0
5e8a69c836bc63718a82cb90,0.0,0.0,430.0,335.0,1.0,2.0,2.0,3.0,2.0,2.0,2.0,1.0,1.11,2403.8714,2.0,0.0521,131.0,14,1.0
5e8a69c836bc63718a82cb90,0.0,0.0,484.0,336.0,2.0,1.0,3.0,2.0,3.0,2.0,2.0,0.0,0.6936,2406.7372,1.0,0.3787,221.0,23,1.0
5e8a69c836bc63718a82cb90,0.0,0.0,405.0,337.0,2.0,2.0,1.0,2.0,2.0,2.0,2.0,1.0,1.1957,2409.5206,2.0,0.2251,41.0,5,1.0
5e8a69c836bc63718a82cb90,0.0,0.0,478.0,338.0,2.0,1.0,3.0,2.0,3.0,2.0,2.0,1.0,0.5427,2412.6371,2.0,0.3089,221.0,23,1.0
5e8a69c836bc63718a82cb90,0.0,0.0,113.0,339.0,2.0,4.0,3.0,2.0,3.0,1.0,1.0,1.0,0.5774,2415.138,1.0,0.1668,1220.0,32,1000.0
5e8a69c836bc63718a82cb90,0.0,0.0,469.0,340.0,2.0,4.0,2.0,2.0,1.0,2.0,2.0,1.0,1.3363,2417.5211,2.0,0.0032,1031.0,14,1001.0
5e8a69c836bc63718a82cb90,0.0,0.0,169.0,341.0,4.0,3.0,3.0,2.0,3.0,1.0,1.0,1.0,0.5211,2423.4893,1.0,0.2193,1310.0,41,1000.0
5e8a69c836bc63718a82cb90,0.0,0.0,121.0,342.0,2.0,4.0,3.0,2.0,3.0,1.0,1.0,1.0,0.6286,2425.9212,1.0,0.2412,1220.0,32,1000.0
5e8a69c836bc63718a82cb90,0.0,0.0,228.0,343.0,3.0,3.0,3.0,3.0,3.0,1.0,1.0,1.0,0.494,2428.4384,1.0,0.161,500.0,50,500.0
5e8a69c836bc63718a82cb90,0.0,0.0,241.0,344.0,4.0,3.0,3.0,3.0,3.0,1.0,1.0,1.0,0.4595,2430.7372,1.0,0.0484,1400.0,50,1000.0
5e8a69c836bc63718a82cb90,0.0,0.0,88.0,345.0,4.0,2.0,2.0,2.0,3.0,1.0,2.0,0.0,0.6734,2432.8879,2.0,0.444,1130.0,23,1000.0
5e8a69c836bc63718a82cb90,0.0,0.0,307.0,346.0,1.0,1.0,2.0,1.0,2.0,2.0,2.0,1.0,1.3154,2438.6377,2.0,0.22,23.0,5,3.0
5e8a69c836bc63718a82cb90,0.0,0.0,195.0,347.0,4.0,3.0,3.0,2.0,3.0,1.0,1.0,1.0,0.7762,2441.8713,1.0,0.2014,1310.0,41,1000.0
5e8a69c836bc63718a82cb90,0.0,0.0,399.0,348.0,2.0,2.0,1.0,2.0,2.0,2.0,2.0,1.0,0.6266,2444.4877,2.0,0.4017,41.0,5,1.0
5e8a69c836bc63718a82cb90,0.0,0.0,203.0,349.0,3.0,3.0,4.0,4.0,2.0,1.0,1.0,1.0,0.5758,2447.1552,1.0,0.2875,2210.0,41,2000.0
5e8a69c836bc63718a82cb90,0.0,0.0,411.0,350.0,2.0,2.0,1.0,2.0,2.0,2.0,2.0,1.0,1.6584,2449.6544,2.0,0.2497,41.0,5,1.0
5e8a69c836bc63718a82cb90,0.0,0.0,206.0,351.0,3.0,3.0,4.0,4.0,2.0,1.0,1.0,1.0,0.6138,2453.2049,1.0,0.3115,2210.0,41,2000.0
5e8a69c836bc63718a82cb90,0.0,0.0,151.0,352.0,3.0,2.0,3.0,3.0,3.0,1.0,1.0,1.0,0.5407,2455.7719,1.0,0.1603,410.0,41,410.0
5e8a69c836bc63718a82cb90,0.0,0.0,264.0,353.0,4.0,3.0,3.0,3.0,3.0,1.0,1.0,1.0,1.1139,2458.1214,1.0,0.0292,1400.0,50,1000.0
5e8a69c836bc63718a82cb90,0.0,0.0,70.0,354.0,4.0,3.0,3.0,1.0,3.0,1.0,1.0,1.0,0.4943,2460.9049,1.0,0.3093,1301.0,41,1001.0
5e8a69c836bc63718a82cb90,0.0,0.0,173.0,355.0,4.0,3.0,3.0,2.0,3.0,1.0,1.0,1.0,0.5592,2463.355,1.0,0.0161,1310.0,41,1000.0
5e8a69c836bc63718a82cb90,0.0,0.0,185.0,356.0,4.0,3.0,3.0,2.0,3.0,1.0,1.0,1.0,0.4011,2469.3887,1.0,0.254,1310.0,41,1000.0
5e8a69c836bc63718a82cb90,0.0,0.0,90.0,357.0,4.0,2.0,2.0,2.0,3.0,1.0,2.0,0.0,0.7303,2471.7384,2.0,0.0159,1130.0,23,1000.0
5e8a69c836bc63718a82cb90,0.0,0.0,221.0,358.0,3.0,4.0,4.0,4.0,2.0,1.0,1.0,1.0,0.5427,2474.1829,1.0,0.0807,3110.0,41,3000.0
5e8a69c836bc63718a82cb90,0.0,0.0,408.0,359.0,2.0,2.0,1.0,2.0,2.0,2.0,2.0,1.0,2.0938,2476.5053,2.0,0.0305,41.0,5,1.0
5e8a69c836bc63718a82cb90,0.0,0.0,112.0,360.0,2.0,4.0,3.0,2.0,3.0,1.0,1.0,1.0,0.5434,2480.272,1.0,0.2589,1220.0,32,1000.0
5e8a69c836bc63718a82cb90,0.0,0.0,99.0,361.0,2.0,3.0,3.0,2.0,3.0,1.0,1.0,0.0,0.4864,2482.7216,2.0,0.4265,320.0,32,320.0
5e8a69c836bc63718a82cb90,0.0,0.0,571.0,362.0,2.0,3.0,2.0,2.0,3.0,2.0,2.0,1.0,0.4124,2485.338,2.0,0.2652,230.0,23,230.0
5e8a69c836bc63718a82cb90,0.0,0.0,488.0,363.0,2.0,1.0,3.0,2.0,3.0,2.0,2.0,1.0,0.4756,2487.7055,2.0,0.2615,221.0,23,1.0
5e8a69c836bc63718a82cb90,0.0,0.0,74.0,364.0,3.0,4.0,1.0,3.0,4.0,1.0,1.0,1.0,0.5096,2490.0888,1.0,0.3415,2201.0,41,2001.0
5e8a69c836bc63718a82cb90,0.0,0.0,215.0,365.0,3.0,3.0,4.0,4.0,2.0,1.0,1.0,1.0,0.4439,2492.5882,1.0,0.2674,2210.0,41,2000.0
5e8a69c836bc63718a82cb90,0.0,0.0,400.0,366.0,2.0,2.0,1.0,2.0,2.0,2.0,2.0,1.0,0.5749,2494.9385,2.0,0.3821,41.0,5,1.0
5e8a69c836bc63718a82cb90,0.0,0.0,330.0,367.0,1.0,1.0,2.0,2.0,2.0,2.0,2.0,1.0,0.4809,2497.5384,2.0,0.3224,32.0,5,2.0
5e8a69c836bc63718a82cb90,0.0,0.0,345.0,368.0,1.0,1.0,2.0,2.0,2.0,2.0,2.0,1.0,0.4321,2499.9831,2.0,0.2421,32.0,5,2.0
5e8a69c836bc63718a82cb90,0.0,0.0,482.0,369.0,2.0,1.0,3.0,2.0,3.0,2.0,2.0,1.0,0.4439,2502.2913,2.0,0.3108,221.0,23,1.0
5e8a69c836bc63718a82cb90,0.0,0.0,359.0,370.0,2.0,1.0,3.0,1.0,2.0,2.0,2.0,1.0,0.4085,2504.6886,2.0,0.2681,122.0,14,2.0
5e8a69c836bc63718a82cb90,0.0,0.0,315.0,371.0,1.0,1.0,3.0,1.0,2.0,2.0,2.0,1.0,1.8771,2507.0059,2.0,0.2307,113.0,14,3.0
5e8a69c836bc63718a82cb90,0.0,0.0,196.0,372.0,3.0,3.0,4.0,4.0,2.0,1.0,1.0,1.0,0.6274,2510.7552,1.0,0.129,2210.0,41,2000.0
5e8a69c836bc63718a82cb90,0.0,0.0,114.0,373.0,2.0,4.0,3.0,2.0,3.0,1.0,1.0,0.0,0.621,2513.155,2.0,0.3424,1220.0,32,1000.0
5e8a69c836bc63718a82cb90,0.0,0.0,425.0,374.0,1.0,2.0,2.0,3.0,2.0,2.0,2.0,1.0,0.4666,2515.8347,2.0,0.2831,131.0,14,1.0
5e8a69c836bc63718a82cb90,0.0,0.0,116.0,375.0,2.0,4.0,3.0,2.0,3.0,1.0,1.0,1.0,0.4429,2518.2839,1.0,0.2626,1220.0,32,1000.0
5e8a69c836bc63718a82cb90,0.0,0.0,145.0,376.0,3.0,2.0,3.0,3.0,3.0,1.0,1.0,1.0,1.2934,2520.6389,1.0,0.29,410.0,41,410.0
5e8a69c836bc63718a82cb90,0.0,0.0,45.0,377.0,3.0,2.0,4.0,3.0,1.0,1.0,1.0,1.0,0.5096,2523.8718,1.0,0.2572,1211.0,32,1001.0
5e8a69c836bc63718a82cb90,0.0,0.0,258.0,378.0,4.0,3.0,3.0,3.0,3.0,1.0,1.0,1.0,0.4752,2526.2888,1.0,0.1637,1400.0,50,1000.0
5e8a69c836bc63718a82cb90,0.0,0.0,468.0,379.0,2.0,4.0,2.0,2.0,1.0,2.0,2.0,1.0,0.5188,2528.5724,2.0,0.0027,1031.0,14,1001.0
5e8a69c836bc63718a82cb90,0.0,0.0,31.0,380.0,2.0,3.0,1.0,3.0,3.0,1.0,1.0,0.0,0.5551,2530.7226,2.0,0.0499,311.0,32,1.0
5e8a69c836bc63718a82cb90,0.0,0.0,414.0,381.0,2.0,2.0,1.0,2.0,2.0,2.0,2.0,1.0,2.2809,2535.6556,2.0,0.3523,41.0,5,1.0
5e8a69c836bc63718a82cb90,0.0,0.0,270.0,382.0,4.0,4.0,3.0,3.0,3.0,1.0,1.0,1.0,0.5934,2539.9896,1.0,0.3756,2300.0,50,2000.0
5e8a69c836bc63718a82cb90,0.0,0.0,118.0,383.0,2.0,4.0,3.0,2.0,3.0,1.0,1.0,1.0,0.659,2542.6059,1.0,0.345,1220.0,32,1000.0
5e8a69c836bc63718a82cb90,0.0,0.0,391.0,384.0,1.0,3.0,4.0,2.0,1.0,2.0,2.0,1.0,1.8924,2545.2558,2.0,0.2673,1112.0,23,1002.0
5e8a69c836bc63718a82cb90,0.0,0.0,286.0,385.0,4.0,4.0,3.0,3.0,3.0,1.0,1.0,1.0,0.5318,2549.0561,1.0,0.2405,2300.0,50,2000.0
5e8a69c836bc63718a82cb90,0.0,0.0,10.0,386.0,1.0,3.0,2.0,2.0,2.0,1.0,2.0,0.0,0.6976,2551.4733,2.0,0.2397,131.0,14,1.0
5e8a69c836bc63718a82cb90,0.0,0.0,382.0,387.0,3.0,1.0,2.0,3.0,1.0,2.0,2.0,1.0,0.548,2554.1173,2.0,0.1594,212.0,23,2.0
5e8a69c836bc63718a82cb90,0.0,0.0,465.0,388.0,2.0,4.0,2.0,2.0,1.0,2.0,2.0,1.0,0.6441,2556.5338,2.0,0.2424,1031.0,14,1001.0
5e8a69c836bc63718a82cb90,0.0,0.0,586.0,389.0,2.0,2.0,3.0,3.0,3.0,2.0,1.0,0.0,0.5911,2559.0562,1.0,0.1588,320.0,32,320.0
5e8a69c836bc63718a82cb90,0.0,0.0,403.0,390.0,2.0,2.0,1.0,2.0,2.0,2.0,2.0,1.0,36.5658,2561.5056,2.0,0.2424,41.0,5,1.0
5e8a69c836bc63718a82cb90,0.0,0.0,574.0,391.0,2.0,3.0,2.0,2.0,4.0,2.0,2.0,0.0,0.5325,2600.0242,1.0,0.4655,1130.0,23,1000.0
5e8a69c836bc63718a82cb90,0.0,0.0,60.0,392.0,4.0,3.0,3.0,1.0,3.0,1.0,1.0,1.0,0.4931,2602.7015,1.0,0.1913,1301.0,41,1001.0
5e8a69c836bc63718a82cb90,0.0,0.0,519.0,393.0,2.0,2.0,2.0,2.0,2.0,2.0,2.0,1.0,0.4255,2605.0898,2.0,0.2595,50.0,5,50.0
5e8a69c836bc63718a82cb90,0.0,0.0,441.0,394.0,1.0,2.0,2.0,3.0,2.0,2.0,2.0,1.0,0.4105,2607.4236,2.0,0.1742,131.0,14,1.0
5e8a69c836bc63718a82cb90,0.0,0.0,525.0,395.0,2.0,2.0,2.0,2.0,2.0,2.0,2.0,1.0,0.8267,2609.6563,2.0,0.2935,50.0,5,50.0
5e8a69c836bc63718a82cb90,0.0,0.0,30.0,396.0,2.0,3.0,1.0,3.0,3.0,1.0,1.0,1.0,0.5726,2615.0232,1.0,0.3522,311.0,32,1.0
5e8a69c836bc63718a82cb90,0.0,0.0,298.0,397.0,4.0,4.0,4.0,3.0,3.0,1.0,1.0,1.0,2.0081,2617.6406,1.0,0.2619,3200.0,50,3000.0
5e8a69c836bc63718a82cb90,0.0,0.0,498.0,398.0,2.0,3.0,4.0,2.0,1.0,2.0,2.0,1.0,0.9886,2624.2237,2.0,0.2682,1121.0,23,1001.0
5e8a69c836bc63718a82cb90,0.0,0.0,42.0,399.0,3.0,2.0,4.0,3.0,1.0,1.0,1.0,1.0,16.6608,2627.1739,1.0,0.2754,1211.0,32,1001.0
5e8a69c836bc63718a82cb90,0.0,0.0,596.0,400.0,2.0,2.0,3.0,4.0,4.0,2.0,1.0,0.0,0.4501,2648.5363,1.0,0.1187,2120.0,32,2000.0
5e8a69c836bc63718a82cb90,0.0,0.0,239.0,401.0,3.0,3.0,3.0,3.0,3.0,1.0,1.0,1.0,0.5161,2650.8069,1.0,0.306,500.0,50,500.0
5e8a69c836bc63718a82cb90,0.0,0.0,166.0,402.0,4.0,3.0,3.0,2.0,3.0,1.0,1.0,1.0,0.4761,2653.3363,1.0,0.0483,1310.0,41,1000.0
5e8a69c836bc63718a82cb90,0.0,0.0,564.0,403.0,2.0,3.0,2.0,2.0,3.0,2.0,2.0,1.0,0.3766,2655.5072,2.0,0.275,230.0,23,230.0
5e8a69c836bc63718a82cb90,0.0,0.0,434.0,404.0,1.0,2.0,2.0,3.0,2.0,2.0,2.0,1.0,0.3759,2657.8072,2.0,0.2649,131.0,14,1.0
5e8a69c836bc63718a82cb90,0.0,0.0,373.0,405.0,1.0,1.0,4.0,2.0,2.0,2.0,2.0,1.0,0.4977,2660.0904,2.0,0.0024,1022.0,14,1002.0
5e8a69c836bc63718a82cb90,0.0,0.0,292.0,406.0,4.0,4.0,4.0,3.0,3.0,1.0,1.0,1.0,0.4919,2662.2245,1.0,0.1973,3200.0,50,3000.0
5e8a69c836bc63718a82cb90,0.0,0.0,584.0,407.0,2.0,2.0,4.0,4.0,2.0,2.0,2.0,1.0,0.7881,2664.5577,2.0,0.2133,2030.0,23,2000.0
5e8a69c836bc63718a82cb90,0.0,0.0,83.0,408.0,2.0,2.0,3.0,3.0,2.0,1.0,2.0,0.0,0.5169,2667.2021,2.0,0.2646,230.0,23,230.0
5e8a69c836bc63718a82cb90,0.0,0.0,353.0,409.0,2.0,1.0,3.0,1.0,2.0,2.0,2.0,1.0,0.4744,2669.6684,2.0,0.2828,122.0,14,2.0
5e8a69c836bc63718a82cb90,0.0,0.0,288.0,410.0,4.0,4.0,3.0,3.0,3.0,1.0,1.0,1.0,0.4746,2672.1244,1.0,0.1151,2300.0,50,2000.0
5e8a69c836bc63718a82cb90,0.0,0.0,289.0,411.0,4.0,4.0,4.0,3.0,3.0,1.0,1.0,1.0,6.8423,2674.3574,1.0,0.1565,3200.0,50,3000.0
5e8a69c836bc63718a82cb90,0.0,0.0,448.0,412.0,1.0,2.0,2.0,3.0,2.0,2.0,2.0,1.0,1.3433,2683.0077,2.0,0.2232,131.0,14,1.0
5e8a69c836bc63718a82cb90,0.0,0.0,593.0,413.0,2.0,4.0,3.0,3.0,2.0,2.0,1.0,1.0,0.8773,2686.2244,2.0,0.3158,1220.0,32,1000.0
5e8a69c836bc63718a82cb90,0.0,0.0,580.0,414.0,2.0,3.0,2.0,2.0,4.0,2.0,2.0,1.0,0.8815,2691.8575,2.0,0.035,1130.0,23,1000.0
5e8a69c836bc63718a82cb90,0.0,0.0,325.0,415.0,1.0,1.0,2.0,2.0,2.0,2.0,2.0,1.0,0.5439,2694.4747,2.0,0.281,32.0,5,2.0
5e8a69c836bc63718a82cb90,0.0,0.0,544.0,416.0,2.0,2.0,3.0,2.0,2.0,2.0,2.0,1.0,0.7581,2696.941,2.0,0.4069,140.0,14,140.0
5e8a69c836bc63718a82cb90,0.0,0.0,216.0,417.0,3.0,3.0,4.0,4.0,2.0,1.0,1.0,1.0,1.1921,2699.7578,1.0,0.2991,2210.0,41,2000.0
5e8a69c836bc63718a82cb90,0.0,0.0,84.0,418.0,2.0,2.0,3.0,3.0,2.0,1.0,2.0,0.0,0.9061,2702.8912,2.0,0.2498,230.0,23,230.0
5e8a69c836bc63718a82cb90,0.0,0.0,63.0,419.0,4.0,3.0,3.0,1.0,3.0,1.0,1.0,1.0,0.6155,2705.7578,1.0,0.4606,1301.0,41,1001.0
5e8a69c836bc63718a82cb90,0.0,0.0,566.0,420.0,2.0,3.0,2.0,2.0,3.0,2.0,2.0,1.0,0.825,2708.5361,2.0,0.2411,230.0,23,230.0
5e8a69c836bc63718a82cb90,0.0,0.0,543.0,421.0,2.0,2.0,3.0,2.0,2.0,2.0,2.0,1.0,0.5091,2711.2589,2.0,0.2464,140.0,14,140.0
5e8a69c836bc63718a82cb90,0.0,0.0,55.0,422.0,3.0,3.0,3.0,3.0,1.0,1.0,1.0,1.0,0.6254,2716.525,1.0,0.1189,401.0,41,1.0
5e8a69c836bc63718a82cb90,0.0,0.0,420.0,423.0,2.0,2.0,1.0,2.0,2.0,2.0,2.0,1.0,1.468,2718.958,2.0,0.108,41.0,5,1.0
5e8a69c836bc63718a82cb90,0.0,0.0,277.0,424.0,4.0,4.0,3.0,3.0,3.0,1.0,1.0,1.0,0.5681,2724.9584,1.0,0.3867,2300.0,50,2000.0
5e8a69c836bc63718a82cb90,0.0,0.0,588.0,425.0,2.0,2.0,3.0,3.0,3.0,2.0,1.0,0.0,0.4667,2727.6082,1.0,0.1103,320.0,32,320.0
5e8a69c836bc63718a82cb90,0.0,0.0,500.0,426.0,2.0,3.0,4.0,2.0,1.0,2.0,2.0,0.0,0.7429,2729.8867,1.0,0.2358,1121.0,23,1001.0
5e8a69c836bc63718a82cb90,0.0,0.0,541.0,427.0,2.0,2.0,3.0,2.0,2.0,2.0,2.0,1.0,0.5323,2732.5083,2.0,0.3771,140.0,14,140.0
5e8a69c836bc63718a82cb90,0.0,0.0,446.0,428.0,1.0,2.0,2.0,3.0,2.0,2.0,2.0,1.0,0.4752,2735.125,2.0,0.2751,131.0,14,1.0
5e8a69c836bc63718a82cb90,0.0,0.0,552.0,429.0,2.0,2.0,4.0,2.0,2.0,2.0,2.0,1.0,0.4895,2737.5255,2.0,0.2852,1040.0,14,1000.0
5e8a69c836bc63718a82cb90,0.0,0.0,390.0,430.0,1.0,3.0,4.0,2.0,1.0,2.0,2.0,0.0,0.5995,2739.9408,1.0,0.2638,1112.0,23,1002.0
5e8a69c836bc63718a82cb90,0.0,0.0,495.0,431.0,2.0,3.0,4.0,2.0,1.0,2.0,2.0,1.0,44.4002,2742.5197,2.0,0.2256,1121.0,23,1001.0
5e8a69c836bc63718a82cb90,0.0,0.0,340.0,432.0,1.0,1.0,2.0,2.0,2.0,2.0,2.0,1.0,1.0649,2788.8587,2.0,0.003,32.0,5,2.0
5e8a69c836bc63718a82cb90,0.0,0.0,407.0,433.0,2.0,2.0,1.0,2.0,2.0,2.0,2.0,1.0,0.8089,2791.5755,2.0,0.2254,41.0,5,1.0
5e8a69c836bc63718a82cb90,0.0,0.0,516.0,434.0,3.0,2.0,3.0,1.0,4.0,2.0,1.0,1.0,0.5936,2794.2589,2.0,0.3177,1211.0,32,1001.0
5e8a69c836bc63718a82cb90,0.0,0.0,59.0,435.0,3.0,3.0,3.0,3.0,1.0,1.0,1.0,1.0,0.5755,2796.809,1.0,0.292,401.0,41,1.0
5e8a69c836bc63718a82cb90,0.0,0.0,127.0,436.0,2.0,4.0,3.0,2.0,3.0,1.0,1.0,1.0,0.8751,2799.3261,1.0,0.3093,1220.0,32,1000.0
5e8a69c836bc63718a82cb90,0.0,0.0,93.0,437.0,2.0,2.0,4.0,2.0,4.0,1.0,2.0,0.0,0.4987,2802.16,2.0,0.0164,2030.0,23,2000.0
5e8a69c836bc63718a82cb90,0.0,0.0,105.0,438.0,2.0,3.0,3.0,2.0,3.0,1.0,1.0,1.0,0.583,2804.3707,1.0,0.0025,320.0,32,320.0
5e8a69c836bc63718a82cb90,0.0,0.0,246.0,439.0,4.0,3.0,3.0,3.0,3.0,1.0,1.0,1.0,1.0432,2806.6533,1.0,0.4159,1400.0,50,1000.0
5e8a69c836bc63718a82cb90,0.0,0.0,538.0,440.0,2.0,2.0,3.0,2.0,2.0,2.0,2.0,1.0,2.3402,2813.4098,2.0,0.0519,140.0,14,140.0
5e8a69c836bc63718a82cb90,0.0,0.0,422.0,441.0,2.0,2.0,1.0,2.0,2.0,2.0,2.0,1.0,0.5256,2817.4926,2.0,0.3309,41.0,5,1.0
5e8a69c836bc63718a82cb90,0.0,0.0,556.0,442.0,2.0,2.0,4.0,2.0,2.0,2.0,2.0,1.0,0.5423,2819.9928,2.0,0.2988,1040.0,14,1000.0
5e8a69c836bc63718a82cb90,0.0,0.0,168.0,443.0,4.0,3.0,3.0,2.0,3.0,1.0,1.0,1.0,0.9926,2822.4758,1.0,0.2806,1310.0,41,1000.0
5e8a69c836bc63718a82cb90,0.0,0.0,9.0,444.0,1.0,3.0,4.0,1.0,4.0,1.0,1.0,1.0,0.6584,2825.3921,1.0,0.3908,2102.0,32,2002.0
5e8a69c836bc63718a82cb90,0.0,0.0,592.0,445.0,2.0,4.0,3.0,3.0,2.0,2.0,1.0,1.0,0.8931,2828.0928,2.0,0.1415,1220.0,32,1000.0
5e8a69c836bc63718a82cb90,0.0,0.0,444.0,446.0,1.0,2.0,2.0,3.0,2.0,2.0,2.0,1.0,0.4938,2830.7763,2.0,0.3414,131.0,14,1.0
5e8a69c836bc63718a82cb90,0.0,0.0,39.0,447.0,3.0,2.0,4.0,3.0,1.0,1.0,1.0,1.0,0.4754,2833.2594,1.0,0.2752,1211.0,32,1001.0
5e8a69c836bc63718a82cb90,0.0,0.0,599.0,448.0,2.0,4.0,3.0,3.0,3.0,2.0,1.0,0.0,1.0102,2835.6595,1.0,0.1159,1310.0,41,1000.0
5e8a69c836bc63718a82cb90,0.0,0.0,260.0,449.0,4.0,3.0,3.0,3.0,3.0,1.0,1.0,1.0,0.6961,2841.386,1.0,0.2857,1400.0,50,1000.0
5e8a69c836bc63718a82cb90,0.0,0.0,133.0,450.0,4.0,3.0,2.0,2.0,4.0,1.0,1.0,1.0,0.6963,2844.0759,1.0,0.1071,2120.0,32,2000.0
5e8a69c836bc63718a82cb90,0.0,0.0,471.0,451.0,2.0,4.0,2.0,2.0,1.0,2.0,2.0,1.0,1.2086,2846.5269,2.0,0.0751,1031.0,14,1001.0
5e8a69c836bc63718a82cb90,0.0,0.0,582.0,452.0,2.0,3.0,2.0,2.0,4.0,2.0,2.0,1.0,1.8919,2849.4597,2.0,0.3105,1130.0,23,1000.0
5e8a69c836bc63718a82cb90,0.0,0.0,111.0,453.0,2.0,4.0,3.0,2.0,3.0,1.0,1.0,0.0,0.7585,2853.3098,2.0,0.1914,1220.0,32,1000.0
5e8a69c836bc63718a82cb90,0.0,0.0,376.0,454.0,1.0,1.0,4.0,2.0,2.0,2.0,2.0,1.0,0.481,2855.9764,2.0,0.164,1022.0,14,1002.0
5e8a69c836bc63718a82cb90,0.0,0.0,497.0,455.0,2.0,3.0,4.0,2.0,1.0,2.0,2.0,1.0,0.7988,2858.3208,2.0,0.0026,1121.0,23,1001.0
5e8a69c836bc63718a82cb90,0.0,0.0,147.0,456.0,3.0,2.0,3.0,3.0,3.0,1.0,1.0,1.0,0.5904,2860.7599,1.0,0.2798,410.0,41,410.0
5e8a69c836bc63718a82cb90,0.0,0.0,141.0,457.0,3.0,2.0,3.0,3.0,3.0,1.0,1.0,1.0,0.5914,2865.8767,1.0,0.1176,410.0,41,410.0
5e8a69c836bc63718a82cb90,0.0,0.0,296.0,458.0,4.0,4.0,4.0,3.0,3.0,1.0,1.0,1.0,0.642,2868.2937,1.0,0.257,3200.0,50,3000.0
5e8a69c836bc63718a82cb90,0.0,0.0,534.0,459.0,2.0,2.0,3.0,2.0,2.0,2.0,2.0,1.0,0.5077,2870.8433,2.0,0.0932,140.0,14,140.0
5e8a69c836bc63718a82cb90,0.0,0.0,354.0,460.0,2.0,1.0,3.0,1.0,2.0,2.0,2.0,1.0,2.5591,2873.0943,2.0,0.2092,122.0,14,2.0
5e8a69c836bc63718a82cb90,0.0,0.0,95.0,461.0,2.0,3.0,3.0,2.0,3.0,1.0,1.0,0.0,0.5933,2877.5097,2.0,0.1483,320.0,32,320.0
5e8a69c836bc63718a82cb90,0.0,0.0,432.0,462.0,1.0,2.0,2.0,3.0,2.0,2.0,2.0,1.0,0.881,2879.9598,2.0,0.3312,131.0,14,1.0
5e8a69c836bc63718a82cb90,0.0,0.0,190.0,463.0,4.0,3.0,3.0,2.0,3.0,1.0,1.0,1.0,1.1459,2882.871,1.0,0.1941,1310.0,41,1000.0
5e8a69c836bc63718a82cb90,0.0,0.0,56.0,464.0,3.0,3.0,3.0,3.0,1.0,1.0,1.0,1.0,0.514,2888.7769,1.0,0.0333,401.0,41,1.0
5e8a69c836bc63718a82cb90,0.0,0.0,518.0,465.0,1.0,3.0,4.0,3.0,3.0,2.0,1.0,0.0,0.6142,2891.027,1.0,0.0029,1301.0,41,1001.0
5e8a69c836bc63718a82cb90,0.0,0.0,273.0,466.0,4.0,4.0,3.0,3.0,3.0,1.0,1.0,1.0,0.4951,2893.3376,1.0,0.2906,2300.0,50,2000.0
5e8a69c836bc63718a82cb90,0.0,0.0,189.0,467.0,4.0,3.0,3.0,2.0,3.0,1.0,1.0,1.0,0.5441,2895.8102,1.0,0.2118,1310.0,41,1000.0
5e8a69c836bc63718a82cb90,0.0,0.0,336.0,468.0,1.0,1.0,2.0,2.0,2.0,2.0,2.0,1.0,0.6587,2898.2102,2.0,0.1811,32.0,5,2.0
5e8a69c836bc63718a82cb90,0.0,0.0,156.0,469.0,3.0,2.0,3.0,3.0,3.0,1.0,1.0,1.0,0.5256,2900.6935,1.0,0.2008,410.0,41,410.0
5e8a69c836bc63718a82cb90,0.0,0.0,66.0,470.0,4.0,3.0,3.0,1.0,3.0,1.0,1.0,1.0,0.5102,2903.0603,1.0,0.0763,1301.0,41,1001.0
5e8a69c836bc63718a82cb90,0.0,0.0,146.0,471.0,3.0,2.0,3.0,3.0,3.0,1.0,1.0,1.0,0.4815,2905.2936,1.0,0.0023,410.0,41,410.0
5e8a69c836bc63718a82cb90,0.0,0.0,585.0,472.0,2.0,2.0,4.0,4.0,2.0,2.0,2.0,1.0,0.4954,2907.4268,2.0,0.3488,2030.0,23,2000.0
5e8a69c836bc63718a82cb90,0.0,0.0,590.0,473.0,2.0,2.0,3.0,3.0,3.0,2.0,1.0,0.0,0.562,2909.9102,1.0,0.3423,320.0,32,320.0
5e8a69c836bc63718a82cb90,0.0,0.0,11.0,474.0,4.0,2.0,2.0,1.0,2.0,1.0,2.0,0.0,0.7333,2915.2104,2.0,0.2356,1031.0,14,1001.0
5e8a69c836bc63718a82cb90,0.0,0.0,192.0,475.0,4.0,3.0,3.0,2.0,3.0,1.0,1.0,1.0,13.5116,2917.8719,1.0,0.2757,1310.0,41,1000.0
5e8a69c836bc63718a82cb90,0.0,0.0,5.0,476.0,1.0,3.0,3.0,1.0,3.0,1.0,1.0,1.0,0.6363,2933.3813,1.0,0.1613,302.0,32,2.0
5e8a69c836bc63718a82cb90,0.0,0.0,279.0,477.0,4.0,4.0,3.0,3.0,3.0,1.0,1.0,1.0,0.4767,2935.8218,1.0,0.2264,2300.0,50,2000.0
5e8a69c836bc63718a82cb90,0.0,0.0,563.0,478.0,2.0,3.0,2.0,2.0,3.0,2.0,2.0,1.0,0.543,2938.1771,2.0,0.2888,230.0,23,230.0
5e8a69c836bc63718a82cb90,0.0,0.0,237.0,479.0,3.0,3.0,3.0,3.0,3.0,1.0,1.0,1.0,0.577,2940.6613,1.0,0.2586,500.0,50,500.0
5e8a69c836bc63718a82cb90,0.0,0.0,181.0,480.0,4.0,3.0,3.0,2.0,3.0,1.0,1.0,1.0,0.4925,2943.1441,1.0,0.3105,1310.0,41,1000.0
5e8a69c836bc63718a82cb90,0.0,0.0,304.0,481.0,1.0,1.0,2.0,1.0,2.0,2.0,2.0,1.0,0.6311,2945.5946,2.0,0.107,23.0,5,3.0
5e8a69c836bc63718a82cb90,0.0,0.0,463.0,482.0,2.0,4.0,2.0,2.0,1.0,2.0,2.0,1.0,0.5096,2947.9778,2.0,0.297,1031.0,14,1001.0
5e8a69c836bc63718a82cb90,0.0,0.0,64.0,483.0,4.0,3.0,3.0,1.0,3.0,1.0,1.0,1.0,0.6432,2950.4285,1.0,0.11,1301.0,41,1001.0
5e8a69c836bc63718a82cb90,0.0,0.0,392.0,484.0,1.0,3.0,4.0,2.0,1.0,2.0,2.0,1.0,1.6563,2952.8274,2.0,0.3141,1112.0,23,1002.0
5e8a69c836bc63718a82cb90,0.0,0.0,269.0,485.0,4.0,4.0,3.0,3.0,3.0,1.0,1.0,1.0,0.4256,2956.4456,1.0,0.1927,2300.0,50,2000.0
5e8a69c836bc63718a82cb90,0.0,0.0,204.0,486.0,3.0,3.0,4.0,4.0,2.0,1.0,1.0,0.0,0.6419,2958.7111,2.0,0.4503,2210.0,41,2000.0
5e8a69c836bc63718a82cb90,0.0,0.0,68.0,487.0,4.0,3.0,3.0,1.0,3.0,1.0,1.0,1.0,0.6825,2964.5785,1.0,0.0342,1301.0,41,1001.0
5e8a69c836bc63718a82cb90,0.0,0.0,456.0,488.0,1.0,2.0,2.0,3.0,2.0,2.0,2.0,1.0,0.6416,2966.9888,2.0,0.1612,131.0,14,1.0
5e8a69c836bc63718a82cb90,0.0,0.0,343.0,489.0,1.0,1.0,2.0,2.0,2.0,2.0,2.0,1.0,0.476,2969.4445,2.0,0.3084,32.0,5,2.0
5e8a69c836bc63718a82cb90,0.0,0.0,510.0,490.0,1.0,3.0,3.0,3.0,2.0,2.0,1.0,0.0,0.6822,2971.8778,1.0,0.2494,311.0,32,1.0
5e8a69c836bc63718a82cb90,0.0,0.0,342.0,491.0,1.0,1.0,2.0,2.0,2.0,2.0,2.0,1.0,1.2837,2974.5113,2.0,0.1599,32.0,5,2.0
5e8a69c836bc63718a82cb90,0.0,0.0,595.0,492.0,2.0,4.0,3.0,3.0,2.0,2.0,1.0,1.0,0.543,2977.6613,2.0,0.2485,1220.0,32,1000.0
5e8a69c836bc63718a82cb90,0.0,0.0,268.0,493.0,4.0,4.0,3.0,3.0,3.0,1.0,1.0,1.0,0.5423,2980.0948,1.0,0.0923,2300.0,50,2000.0
5e8a69c836bc63718a82cb90,0.0,0.0,454.0,494.0,1.0,2.0,2.0,3.0,2.0,2.0,2.0,1.0,0.5915,2982.378,2.0,0.2085,131.0,14,1.0
5e8a69c836bc63718a82cb90,0.0,0.0,213.0,495.0,3.0,3.0,4.0,4.0,2.0,1.0,1.0,1.0,0.4439,2984.8281,1.0,0.064,2210.0,41,2000.0
5e8a69c836bc63718a82cb90,0.0,0.0,423.0,496.0,2.0,2.0,1.0,2.0,2.0,2.0,2.0,1.0,1.3912,2986.9778,2.0,0.3125,41.0,5,1.0
5e8a69c836bc63718a82cb90,0.0,0.0,144.0,497.0,3.0,2.0,3.0,3.0,3.0,1.0,1.0,0.0,0.5601,2990.3282,2.0,0.0641,410.0,41,410.0
5e8a69c836bc63718a82cb90,0.0,0.0,589.0,498.0,2.0,2.0,3.0,3.0,3.0,2.0,1.0,0.0,0.5769,2992.6608,1.0,0.1136,320.0,32,320.0
5e8a69c836bc63718a82cb90,0.0,0.0,199.0,499.0,3.0,3.0,4.0,4.0,2.0,1.0,1.0,1.0,0.4996,2994.9946,1.0,0.0162,2210.0,41,2000.0
5e8a69c836bc63718a82cb90,0.0,0.0,41.0,500.0,3.0,2.0,4.0,3.0,1.0,1.0,1.0,1.0,0.5118,2997.2116,1.0,0.3739,1211.0,32,1001.0
5e8a69c836bc63718a82cb90,0.0,0.0,473.0,501.0,2.0,1.0,3.0,2.0,3.0,2.0,2.0,1.0,0.4597,2999.7447,2.0,0.1267,221.0,23,1.0
5e8a69c836bc63718a82cb90,0.0,0.0,337.0,502.0,1.0,1.0,2.0,2.0,2.0,2.0,2.0,1.0,0.4593,3001.9782,2.0,0.2918,32.0,5,2.0
5e8a69c836bc63718a82cb90,0.0,0.0,8.0,503.0,4.0,3.0,1.0,3.0,1.0,1.0,1.0,0.0,0.5167,3004.3787,2.0,0.1334,1202.0,32,1002.0
5e8a69c836bc63718a82cb90,0.0,0.0,416.0,504.0,2.0,2.0,1.0,2.0,2.0,2.0,2.0,1.0,0.7331,3006.723,2.0,0.2748,41.0,5,1.0
5e8a69c836bc63718a82cb90,0.0,0.0,238.0,505.0,3.0,3.0,3.0,3.0,3.0,1.0,1.0,0.0,0.4332,3009.4396,2.0,0.2326,500.0,50,500.0
5e8a69c836bc63718a82cb90,0.0,0.0,426.0,506.0,1.0,2.0,2.0,3.0,2.0,2.0,2.0,1.0,0.7321,3015.0781,2.0,0.269,131.0,14,1.0
5e8a69c836bc63718a82cb90,0.0,0.0,329.0,507.0,1.0,1.0,2.0,2.0,2.0,2.0,2.0,1.0,0.4759,3017.7784,2.0,0.3599,32.0,5,2.0
5e8a69c836bc63718a82cb90,0.0,0.0,505.0,508.0,1.0,2.0,4.0,4.0,2.0,2.0,2.0,0.0,1.2161,3020.2615,1.0,0.4068,2021.0,23,2001.0
5e8a69c836bc63718a82cb90,0.0,0.0,328.0,509.0,1.0,1.0,2.0,2.0,2.0,2.0,2.0,1.0,0.3824,3023.5955,2.0,0.3235,32.0,5,2.0
5e8a69c836bc63718a82cb90,0.0,0.0,479.0,510.0,2.0,1.0,3.0,2.0,3.0,2.0,2.0,1.0,0.5601,3026.0064,2.0,0.3254,221.0,23,1.0
5e8a69c836bc63718a82cb90,0.0,0.0,374.0,511.0,1.0,1.0,4.0,2.0,2.0,2.0,2.0,1.0,0.4751,3028.5456,2.0,0.3919,1022.0,14,1002.0
5e8a69c836bc63718a82cb90,0.0,0.0,548.0,512.0,2.0,2.0,3.0,2.0,2.0,2.0,2.0,1.0,0.6608,3031.062,2.0,0.292,140.0,14,140.0
5e8a69c836bc63718a82cb90,0.0,0.0,248.0,513.0,4.0,3.0,3.0,3.0,3.0,1.0,1.0,1.0,0.3747,3033.6618,1.0,0.0987,1400.0,50,1000.0
5e8a69c836bc63718a82cb90,0.0,0.0,164.0,514.0,4.0,3.0,3.0,2.0,3.0,1.0,1.0,1.0,0.426,3035.7787,1.0,0.2489,1310.0,41,1000.0
5e8a69c836bc63718a82cb90,0.0,0.0,526.0,515.0,2.0,2.0,2.0,2.0,2.0,2.0,2.0,1.0,1.0589,3038.0955,2.0,0.0738,50.0,5,50.0
5e8a69c836bc63718a82cb90,0.0,0.0,222.0,516.0,3.0,4.0,4.0,4.0,2.0,1.0,1.0,1.0,0.4898,3040.879,1.0,0.0613,3110.0,41,3000.0
5e8a69c836bc63718a82cb90,0.0,0.0,174.0,517.0,4.0,3.0,3.0,2.0,3.0,1.0,1.0,1.0,0.5595,3043.0798,1.0,0.1594,1310.0,41,1000.0
5e8a69c836bc63718a82cb90,0.0,0.0,87.0,518.0,2.0,2.0,3.0,3.0,2.0,1.0,2.0,0.0,1.0515,3045.4454,2.0,0.075,230.0,23,230.0
5e8a69c836bc63718a82cb90,0.0,0.0,152.0,519.0,3.0,2.0,3.0,3.0,3.0,1.0,1.0,1.0,0.5005,3048.2907,1.0,0.2325,410.0,41,410.0
5e8a69c836bc63718a82cb90,0.0,0.0,362.0,520.0,2.0,1.0,3.0,1.0,2.0,2.0,2.0,1.0,0.4926,3050.7239,2.0,0.2728,122.0,14,2.0
5e8a69c836bc63718a82cb90,0.0,0.0,53.0,521.0,3.0,3.0,3.0,3.0,1.0,1.0,1.0,1.0,0.4122,3055.7289,1.0,0.1865,401.0,41,1.0
5e8a69c836bc63718a82cb90,0.0,0.0,445.0,522.0,1.0,2.0,2.0,3.0,2.0,2.0,2.0,1.0,0.6914,3058.0294,2.0,0.2522,131.0,14,1.0
5e8a69c836bc63718a82cb90,0.0,0.0,128.0,523.0,2.0,4.0,3.0,2.0,3.0,1.0,1.0,1.0,0.6788,3066.6451,1.0,0.1185,1220.0,32,1000.0
5e8a69c836bc63718a82cb90,0.0,0.0,188.0,524.0,4.0,3.0,3.0,2.0,3.0,1.0,1.0,1.0,0.6066,3069.1458,1.0,0.2532,1310.0,41,1000.0
5e8a69c836bc63718a82cb90,0.0,0.0,542.0,525.0,2.0,2.0,3.0,2.0,2.0,2.0,2.0,1.0,2.4627,3071.6454,2.0,0.2845,140.0,14,140.0
5e8a69c836bc63718a82cb90,0.0,0.0,306.0,526.0,1.0,1.0,2.0,1.0,2.0,2.0,2.0,1.0,0.4426,3076.029,2.0,0.1827,23.0,5,3.0
5e8a69c836bc63718a82cb90,0.0,0.0,499.0,527.0,2.0,3.0,4.0,2.0,1.0,2.0,2.0,1.0,0.5099,3078.2958,2.0,0.326,1121.0,23,1001.0
5e8a69c836bc63718a82cb90,0.0,0.0,265.0,528.0,4.0,3.0,3.0,3.0,3.0,1.0,1.0,1.0,0.5424,3080.7791,1.0,0.0166,1400.0,50,1000.0
5e8a69c836bc63718a82cb90,0.0,0.0,267.0,529.0,4.0,4.0,3.0,3.0,3.0,1.0,1.0,1.0,1.3919,3082.9791,1.0,0.0806,2300.0,50,2000.0
5e8a69c836bc63718a82cb90,0.0,0.0,138.0,530.0,2.0,4.0,2.0,4.0,4.0,1.0,1.0,1.0,0.6934,3086.0961,1.0,0.2129,3020.0,32,3000.0
5e8a69c836bc63718a82cb90,0.0,0.0,162.0,531.0,4.0,3.0,3.0,2.0,3.0,1.0,1.0,1.0,1.2268,3088.6461,1.0,0.2752,1310.0,41,1000.0
5e8a69c836bc63718a82cb90,0.0,0.0,531.0,532.0,2.0,2.0,3.0,2.0,2.0,2.0,2.0,1.0,0.7149,3091.7964,2.0,0.0032,140.0,14,140.0
5e8a69c836bc63718a82cb90,0.0,0.0,224.0,533.0,3.0,4.0,4.0,4.0,2.0,1.0,1.0,1.0,7.3085,3094.1494,1.0,0.1831,3110.0,41,3000.0
5e8a69c836bc63718a82cb90,0.0,0.0,207.0,534.0,3.0,3.0,4.0,4.0,2.0,1.0,1.0,1.0,0.495,3103.3546,1.0,0.2164,2210.0,41,2000.0
5e8a69c836bc63718a82cb90,0.0,0.0,44.0,535.0,3.0,2.0,4.0,3.0,1.0,1.0,1.0,0.0,0.5533,3108.3629,2.0,0.2678,1211.0,32,1001.0
5e8a69c836bc63718a82cb90,0.0,0.0,115.0,536.0,2.0,4.0,3.0,2.0,3.0,1.0,1.0,1.0,0.4941,3110.876,1.0,0.3627,1220.0,32,1000.0
5e8a69c836bc63718a82cb90,0.0,0.0,167.0,537.0,4.0,3.0,3.0,2.0,3.0,1.0,1.0,1.0,1.7116,3113.4464,1.0,0.226,1310.0,41,1000.0
5e8a69c836bc63718a82cb90,0.0,0.0,301.0,538.0,2.0,1.0,1.0,1.0,1.0,2.0,2.0,1.0,0.5927,3117.0302,2.0,0.1093,14.0,5,4.0
5e8a69c836bc63718a82cb90,0.0,0.0,50.0,539.0,2.0,4.0,3.0,4.0,1.0,1.0,1.0,0.0,0.4147,3119.3799,2.0,0.2077,2111.0,32,2001.0
5e8a69c836bc63718a82cb90,0.0,0.0,160.0,540.0,4.0,3.0,3.0,2.0,3.0,1.0,1.0,1.0,0.8182,3128.024,1.0,0.3365,1310.0,41,1000.0
5e8a69c836bc63718a82cb90,0.0,0.0,290.0,541.0,4.0,4.0,4.0,3.0,3.0,1.0,1.0,1.0,0.8596,3130.8757,1.0,0.3069,3200.0,50,3000.0
5e8a69c836bc63718a82cb90,0.0,0.0,378.0,542.0,1.0,1.0,4.0,2.0,2.0,2.0,2.0,1.0,1.209,3133.6965,2.0,0.315,1022.0,14,1002.0
5e8a69c836bc63718a82cb90,0.0,0.0,561.0,543.0,2.0,3.0,2.0,2.0,3.0,2.0,2.0,1.0,0.4414,3136.8635,2.0,0.1824,230.0,23,230.0
5e8a69c836bc63718a82cb90,0.0,0.0,427.0,544.0,1.0,2.0,2.0,3.0,2.0,2.0,2.0,1.0,0.4752,3139.1298,2.0,0.1591,131.0,14,1.0
5e8a69c836bc63718a82cb90,0.0,0.0,34.0,545.0,3.0,2.0,4.0,3.0,1.0,1.0,1.0,1.0,1.6427,3141.4136,1.0,0.2321,1211.0,32,1001.0
5e8a69c836bc63718a82cb90,0.0,0.0,22.0,546.0,2.0,2.0,1.0,4.0,4.0,1.0,2.0,1.0,0.6102,3144.93,1.0,0.2766,2021.0,23,2001.0
5e8a69c836bc63718a82cb90,0.0,0.0,124.0,547.0,2.0,4.0,3.0,2.0,3.0,1.0,1.0,1.0,1.0075,3147.4629,1.0,0.0915,1220.0,32,1000.0
5e8a69c836bc63718a82cb90,0.0,0.0,346.0,548.0,1.0,1.0,2.0,2.0,2.0,2.0,2.0,1.0,0.6665,3150.2138,2.0,0.35,32.0,5,2.0
5e8a69c836bc63718a82cb90,0.0,0.0,506.0,549.0,1.0,2.0,4.0,4.0,2.0,2.0,2.0,0.0,0.6113,3152.8658,1.0,0.1982,2021.0,23,2001.0
5e8a69c836bc63718a82cb90,0.0,0.0,33.0,550.0,3.0,2.0,4.0,3.0,1.0,1.0,1.0,1.0,1.1813,3155.3797,1.0,0.2599,1211.0,32,1001.0
5e8a69c836bc63718a82cb90,0.0,0.0,242.0,551.0,4.0,3.0,3.0,3.0,3.0,1.0,1.0,1.0,0.7268,3158.5302,1.0,0.0516,1400.0,50,1000.0
5e8a69c836bc63718a82cb90,0.0,0.0,388.0,552.0,3.0,1.0,2.0,3.0,1.0,2.0,2.0,1.0,0.8433,3160.9466,2.0,0.1018,212.0,23,2.0
5e8a69c836bc63718a82cb90,0.0,0.0,490.0,553.0,2.0,1.0,3.0,2.0,3.0,2.0,2.0,1.0,1.2256,3163.53,2.0,0.0167,221.0,23,1.0
5e8a69c836bc63718a82cb90,0.0,0.0,278.0,554.0,4.0,4.0,3.0,3.0,3.0,1.0,1.0,0.0,0.6572,3166.4143,2.0,0.2584,2300.0,50,2000.0
5e8a69c836bc63718a82cb90,0.0,0.0,15.0,555.0,2.0,2.0,1.0,3.0,3.0,1.0,2.0,0.0,0.4478,3169.0464,2.0,0.0028,221.0,23,1.0
5e8a69c836bc63718a82cb90,0.0,0.0,175.0,556.0,4.0,3.0,3.0,2.0,3.0,1.0,1.0,1.0,1.1478,3171.1468,1.0,0.3325,1310.0,41,1000.0
5e8a69c836bc63718a82cb90,0.0,0.0,148.0,557.0,3.0,2.0,3.0,3.0,3.0,1.0,1.0,1.0,0.768,3177.098,1.0,0.3361,410.0,41,410.0
5e8a69c836bc63718a82cb90,0.0,0.0,502.0,558.0,2.0,3.0,4.0,2.0,1.0,2.0,2.0,1.0,0.4259,3179.8922,2.0,0.4246,1121.0,23,1001.0
5e8a69c836bc63718a82cb90,0.0,0.0,492.0,559.0,2.0,3.0,4.0,2.0,1.0,2.0,2.0,1.0,0.6924,3182.3969,2.0,0.2769,1121.0,23,1001.0
5e8a69c836bc63718a82cb90,0.0,0.0,360.0,560.0,2.0,1.0,3.0,1.0,2.0,2.0,2.0,1.0,0.4772,3185.0147,2.0,0.2654,122.0,14,2.0
5e8a69c836bc63718a82cb90,0.0,0.0,351.0,561.0,2.0,1.0,3.0,1.0,2.0,2.0,2.0,1.0,0.6082,3187.3971,2.0,0.0032,122.0,14,2.0
5e8a69c836bc63718a82cb90,0.0,0.0,43.0,562.0,3.0,2.0,4.0,3.0,1.0,1.0,1.0,1.0,5.1843,3192.3808,1.0,0.1186,1211.0,32,1001.0
5e8a69c836bc63718a82cb90,0.0,0.0,349.0,563.0,2.0,1.0,3.0,1.0,2.0,2.0,2.0,0.0,0.4614,3199.3758,1.0,0.1992,122.0,14,2.0
5e8a69c836bc63718a82cb90,0.0,0.0,157.0,564.0,3.0,2.0,3.0,3.0,3.0,1.0,1.0,1.0,0.4664,3201.7473,1.0,0.084,410.0,41,410.0
5e8a69c836bc63718a82cb90,0.0,0.0,129.0,565.0,4.0,3.0,2.0,2.0,4.0,1.0,1.0,1.0,1.7245,3203.9808,1.0,0.2415,2120.0,32,2000.0
5e8a69c836bc63718a82cb90,0.0,0.0,251.0,566.0,4.0,3.0,3.0,3.0,3.0,1.0,1.0,1.0,0.4591,3207.5971,1.0,0.0153,1400.0,50,1000.0
5e8a69c836bc63718a82cb90,0.0,0.0,4.0,567.0,2.0,3.0,4.0,1.0,1.0,1.0,2.0,0.0,0.6896,3217.7262,2.0,0.0849,1112.0,23,1002.0
5e8a69c836bc63718a82cb90,0.0,0.0,431.0,568.0,1.0,2.0,2.0,3.0,2.0,2.0,2.0,1.0,0.4599,3220.2144,2.0,0.1905,131.0,14,1.0
5e8a69c836bc63718a82cb90,0.0,0.0,472.0,569.0,2.0,1.0,3.0,2.0,3.0,2.0,2.0,1.0,0.51,3222.5643,2.0,0.2366,221.0,23,1.0
5e8a69c836bc63718a82cb90,0.0,0.0,487.0,570.0,2.0,1.0,3.0,2.0,3.0,2.0,2.0,1.0,0.5419,3224.9641,2.0,0.3409,221.0,23,1.0
5e8a69c836bc63718a82cb90,0.0,0.0,474.0,571.0,2.0,1.0,3.0,2.0,3.0,2.0,2.0,1.0,0.4583,3227.4975,2.0,0.057,221.0,23,1.0
5e8a69c836bc63718a82cb90,0.0,0.0,317.0,572.0,1.0,1.0,3.0,1.0,2.0,2.0,2.0,1.0,0.5093,3229.6641,2.0,0.3757,113.0,14,3.0
5e8a69c836bc63718a82cb90,0.0,0.0,250.0,573.0,4.0,3.0,3.0,3.0,3.0,1.0,1.0,1.0,0.4397,3232.1976,1.0,0.1461,1400.0,50,1000.0
5e8a69c836bc63718a82cb90,0.0,0.0,397.0,574.0,3.0,4.0,1.0,3.0,1.0,2.0,1.0,0.0,0.5564,3234.4306,1.0,0.444,1202.0,32,1002.0
5e8a69c836bc63718a82cb90,0.0,0.0,459.0,575.0,1.0,2.0,2.0,3.0,2.0,2.0,2.0,1.0,0.4414,3237.1467,2.0,0.1018,131.0,14,1.0
5e8a69c836bc63718a82cb90,0.0,0.0,311.0,576.0,1.0,1.0,2.0,1.0,2.0,2.0,2.0,1.0,0.443,3239.3818,2.0,0.3417,23.0,5,3.0
5e8a69c836bc63718a82cb90,0.0,0.0,170.0,577.0,4.0,3.0,3.0,2.0,3.0,1.0,1.0,0.0,0.609,3241.8157,2.0,0.2789,1310.0,41,1000.0
5e8a69c836bc63718a82cb90,0.0,0.0,291.0,578.0,4.0,4.0,4.0,3.0,3.0,1.0,1.0,1.0,0.7592,3244.398,1.0,0.1141,3200.0,50,3000.0
5e8a69c836bc63718a82cb90,0.0,0.0,253.0,579.0,4.0,3.0,3.0,3.0,3.0,1.0,1.0,1.0,1.2247,3246.9649,1.0,0.2739,1400.0,50,1000.0
5e8a69c836bc63718a82cb90,0.0,0.0,75.0,580.0,3.0,4.0,1.0,3.0,4.0,1.0,1.0,1.0,0.6596,3250.1149,1.0,0.2581,2201.0,41,2001.0
5e8a69c836bc63718a82cb90,0.0,0.0,51.0,581.0,2.0,4.0,3.0,4.0,1.0,1.0,1.0,1.0,0.5092,3252.6811,1.0,0.35,2111.0,32,2001.0
5e8a69c836bc63718a82cb90,0.0,0.0,417.0,582.0,2.0,2.0,1.0,2.0,2.0,2.0,2.0,1.0,0.5585,3255.1817,2.0,0.2635,41.0,5,1.0
5e8a69c836bc63718a82cb90,0.0,0.0,309.0,583.0,1.0,1.0,2.0,1.0,2.0,2.0,2.0,1.0,0.7738,3257.6479,2.0,0.0794,23.0,5,3.0
5e8a69c836bc63718a82cb90,0.0,0.0,412.0,584.0,2.0,2.0,1.0,2.0,2.0,2.0,2.0,1.0,0.4812,3263.2264,2.0,0.3179,41.0,5,1.0
5e8a69c836bc63718a82cb90,0.0,0.0,47.0,585.0,2.0,4.0,3.0,4.0,1.0,1.0,1.0,1.0,0.5112,3265.7268,1.0,0.2916,2111.0,32,2001.0
5e8a69c836bc63718a82cb90,0.0,0.0,163.0,586.0,4.0,3.0,3.0,2.0,3.0,1.0,1.0,1.0,0.4711,3268.1819,1.0,0.2688,1310.0,41,1000.0
5e8a69c836bc63718a82cb90,0.0,0.0,395.0,587.0,1.0,4.0,4.0,2.0,1.0,2.0,2.0,0.0,0.5337,3270.5642,1.0,0.3643,2012.0,23,2002.0
5e8a69c836bc63718a82cb90,0.0,0.0,210.0,588.0,3.0,3.0,4.0,4.0,2.0,1.0,1.0,1.0,0.3827,3273.1736,1.0,0.2929,2210.0,41,2000.0
5e8a69c836bc63718a82cb90,0.0,0.0,433.0,589.0,1.0,2.0,2.0,3.0,2.0,2.0,2.0,1.0,0.5102,3275.5434,2.0,0.0473,131.0,14,1.0
5e8a69c836bc63718a82cb90,0.0,0.0,123.0,590.0,2.0,4.0,3.0,2.0,3.0,1.0,1.0,0.0,0.5011,3277.7321,2.0,0.2337,1220.0,32,1000.0
5e8a69c836bc63718a82cb90,0.0,0.0,512.0,591.0,3.0,2.0,3.0,1.0,4.0,2.0,1.0,0.0,0.6282,3280.2229,1.0,0.0505,1211.0,32,1001.0
5e8a69c836bc63718a82cb90,0.0,0.0,496.0,592.0,2.0,3.0,4.0,2.0,1.0,2.0,2.0,0.0,0.4918,3285.2332,1.0,0.1027,1121.0,23,1001.0
5e8a69c836bc63718a82cb90,0.0,0.0,527.0,593.0,2.0,2.0,2.0,2.0,2.0,2.0,2.0,1.0,0.569,3287.5321,2.0,0.226,50.0,5,50.0
5e8a69c836bc63718a82cb90,0.0,0.0,476.0,594.0,2.0,1.0,3.0,2.0,3.0,2.0,2.0,1.0,0.5307,3290.034,2.0,0.0748,221.0,23,1.0
5e8a69c836bc63718a82cb90,0.0,0.0,410.0,595.0,2.0,2.0,1.0,2.0,2.0,2.0,2.0,1.0,0.8595,3292.2853,2.0,0.3309,41.0,5,1.0
5e8a69c836bc63718a82cb90,0.0,0.0,489.0,596.0,2.0,1.0,3.0,2.0,3.0,2.0,2.0,1.0,0.5102,3295.1153,2.0,0.2601,221.0,23,1.0
5e8a69c836bc63718a82cb90,0.0,0.0,339.0,597.0,1.0,1.0,2.0,2.0,2.0,2.0,2.0,1.0,0.578,3297.532,2.0,0.3257,32.0,5,2.0
5e8a69c836bc63718a82cb90,0.0,0.0,387.0,598.0,3.0,1.0,2.0,3.0,1.0,2.0,2.0,1.0,0.4757,3300.0819,2.0,0.2609,212.0,23,2.0
5e8a69c836bc63718a82cb90,0.0,0.0,153.0,599.0,3.0,2.0,3.0,3.0,3.0,1.0,1.0,0.0,0.5195,3302.5305,2.0,0.3656,410.0,41,410.0
671322ae5b5def60f8528351,1.0,0.0,466.0,-1.0,2.0,4.0,2.0,2.0,1.0,2.0,2.0,0.0,0.3843,1659.3931,1.0,0.0015,1031.0,14,1001.0
671322ae5b5def60f8528351,1.0,0.0,373.0,0.0,1.0,1.0,4.0,2.0,2.0,2.0,2.0,1.0,0.7306,1662.6533,2.0,0.2965,1022.0,14,1002.0
671322ae5b5def60f8528351,1.0,0.0,173.0,1.0,4.0,3.0,3.0,2.0,3.0,1.0,1.0,1.0,0.7298,1665.3651,1.0,0.3142,1310.0,41,1000.0
671322ae5b5def60f8528351,1.0,0.0,536.0,2.0,2.0,2.0,3.0,2.0,2.0,2.0,2.0,1.0,0.66,1670.9489,2.0,0.3006,140.0,14,140.0
671322ae5b5def60f8528351,1.0,0.0,325.0,3.0,1.0,1.0,2.0,2.0,2.0,2.0,2.0,0.0,0.8734,1673.6019,1.0,0.0022,32.0,5,2.0
671322ae5b5def60f8528351,1.0,0.0,31.0,4.0,2.0,3.0,1.0,3.0,3.0,1.0,1.0,1.0,0.823,1676.1975,1.0,0.0306,311.0,32,1.0
671322ae5b5def60f8528351,1.0,0.0,32.0,5.0,2.0,3.0,1.0,3.0,3.0,1.0,1.0,0.0,0.6934,1678.7525,2.0,0.0212,311.0,32,1.0
671322ae5b5def60f8528351,1.0,0.0,9.0,6.0,1.0,3.0,4.0,1.0,4.0,1.0,1.0,0.0,0.7685,1681.1896,2.0,0.1525,2102.0,32,2002.0
671322ae5b5def60f8528351,1.0,0.0,590.0,7.0,2.0,2.0,3.0,3.0,3.0,2.0,1.0,1.0,0.6912,1686.4735,2.0,0.2517,320.0,32,320.0
671322ae5b5def60f8528351,1.0,0.0,470.0,8.0,2.0,4.0,2.0,2.0,1.0,2.0,2.0,1.0,0.7525,1689.1264,2.0,0.2699,1031.0,14,1001.0
671322ae5b5def60f8528351,1.0,0.0,271.0,9.0,4.0,4.0,3.0,3.0,3.0,1.0,1.0,1.0,0.947,1691.8055,1.0,0.1834,2300.0,50,2000.0
671322ae5b5def60f8528351,1.0,0.0,248.0,10.0,4.0,3.0,3.0,3.0,3.0,1.0,1.0,0.0,0.6951,1694.5779,2.0,0.0372,1400.0,50,1000.0
671322ae5b5def60f8528351,1.0,0.0,84.0,11.0,2.0,2.0,3.0,3.0,2.0,1.0,2.0,0.0,0.5947,1699.6757,2.0,0.3837,230.0,23,230.0
671322ae5b5def60f8528351,1.0,0.0,186.0,12.0,4.0,3.0,3.0,2.0,3.0,1.0,1.0,1.0,0.5908,1702.3716,1.0,0.3861,1310.0,41,1000.0
671322ae5b5def60f8528351,1.0,0.0,468.0,13.0,2.0,4.0,2.0,2.0,1.0,2.0,2.0,1.0,0.7786,1707.8793,2.0,0.0384,1031.0,14,1001.0
671322ae5b5def60f8528351,1.0,0.0,323.0,14.0,1.0,1.0,1.0,3.0,3.0,2.0,2.0,1.0,0.6383,1710.3913,2.0,0.011,203.0,23,3.0
671322ae5b5def60f8528351,1.0,0.0,574.0,15.0,2.0,3.0,2.0,2.0,4.0,2.0,2.0,0.0,0.4871,1712.6972,1.0,0.002,1130.0,23,1000.0
671322ae5b5def60f8528351,1.0,0.0,491.0,16.0,2.0,1.0,3.0,2.0,3.0,2.0,2.0,1.0,0.721,1714.8844,2.0,0.1004,221.0,23,1.0
671322ae5b5def60f8528351,1.0,0.0,584.0,17.0,2.0,2.0,4.0,4.0,2.0,2.0,2.0,0.0,0.5572,1717.415,1.0,0.1353,2030.0,23,2000.0
671322ae5b5def60f8528351,1.0,0.0,348.0,18.0,2.0,1.0,3.0,1.0,2.0,2.0,2.0,1.0,0.8308,1719.7932,2.0,0.1479,122.0,14,2.0
671322ae5b5def60f8528351,1.0,0.0,495.0,19.0,2.0,3.0,4.0,2.0,1.0,2.0,2.0,1.0,0.8297,1722.4553,2.0,0.3292,1121.0,23,1001.0
671322ae5b5def60f8528351,1.0,0.0,483.0,20.0,2.0,1.0,3.0,2.0,3.0,2.0,2.0,1.0,0.4694,1725.2628,2.0,0.2364,221.0,23,1.0
671322ae5b5def60f8528351,1.0,0.0,541.0,21.0,2.0,2.0,3.0,2.0,2.0,2.0,2.0,0.0,0.7433,1727.6301,1.0,0.1905,140.0,14,140.0
671322ae5b5def60f8528351,1.0,0.0,437.0,22.0,1.0,2.0,2.0,3.0,2.0,2.0,2.0,1.0,0.5709,1730.2427,2.0,0.0641,131.0,14,1.0
671322ae5b5def60f8528351,1.0,0.0,263.0,23.0,4.0,3.0,3.0,3.0,3.0,1.0,1.0,1.0,0.6937,1732.5648,1.0,0.0856,1400.0,50,1000.0
671322ae5b5def60f8528351,1.0,0.0,225.0,24.0,3.0,4.0,4.0,4.0,2.0,1.0,1.0,1.0,0.5698,1734.9847,1.0,0.2367,3110.0,41,3000.0
671322ae5b5def60f8528351,1.0,0.0,474.0,25.0,2.0,1.0,3.0,2.0,3.0,2.0,2.0,0.0,0.4821,1737.4476,1.0,0.2032,221.0,23,1.0
671322ae5b5def60f8528351,1.0,0.0,311.0,26.0,1.0,1.0,2.0,1.0,2.0,2.0,2.0,1.0,0.5941,1739.8436,2.0,0.2371,23.0,5,3.0
671322ae5b5def60f8528351,1.0,0.0,178.0,27.0,4.0,3.0,3.0,2.0,3.0,1.0,1.0,1.0,0.5463,1742.3728,1.0,0.2472,1310.0,41,1000.0
671322ae5b5def60f8528351,1.0,0.0,286.0,28.0,4.0,4.0,3.0,3.0,3.0,1.0,1.0,1.0,0.8295,1744.8119,1.0,0.0165,2300.0,50,2000.0
671322ae5b5def60f8528351,1.0,0.0,529.0,29.0,2.0,2.0,2.0,2.0,2.0,2.0,2.0,1.0,0.3698,1747.2982,2.0,0.2697,50.0,5,50.0
671322ae5b5def60f8528351,1.0,0.0,237.0,30.0,3.0,3.0,3.0,3.0,3.0,1.0,1.0,1.0,0.4862,1749.5946,1.0,0.2532,500.0,50,500.0
671322ae5b5def60f8528351,1.0,0.0,147.0,31.0,3.0,2.0,3.0,3.0,3.0,1.0,1.0,0.0,0.4971,1751.9902,2.0,0.1868,410.0,41,410.0
671322ae5b5def60f8528351,1.0,0.0,344.0,32.0,1.0,1.0,2.0,2.0,2.0,2.0,2.0,1.0,0.4435,1754.3695,2.0,0.2719,32.0,5,2.0
671322ae5b5def60f8528351,1.0,0.0,270.0,33.0,4.0,4.0,3.0,3.0,3.0,1.0,1.0,1.0,0.6357,1756.7927,1.0,0.0351,2300.0,50,2000.0
671322ae5b5def60f8528351,1.0,0.0,519.0,34.0,2.0,2.0,2.0,2.0,2.0,2.0,2.0,1.0,0.5175,1759.1289,2.0,0.1863,50.0,5,50.0
671322ae5b5def60f8528351,1.0,0.0,272.0,35.0,4.0,4.0,3.0,3.0,3.0,1.0,1.0,1.0,0.5022,1761.4916,1.0,0.1534,2300.0,50,2000.0
671322ae5b5def60f8528351,1.0,0.0,121.0,36.0,2.0,4.0,3.0,2.0,3.0,1.0,1.0,0.0,0.6364,1763.8044,2.0,0.0022,1220.0,32,1000.0
671322ae5b5def60f8528351,1.0,0.0,142.0,37.0,3.0,2.0,3.0,3.0,3.0,1.0,1.0,0.0,0.4712,1766.134,2.0,0.1855,410.0,41,410.0
671322ae5b5def60f8528351,1.0,0.0,514.0,38.0,3.0,2.0,3.0,1.0,4.0,2.0,1.0,0.0,0.6228,1768.4467,1.0,0.0111,1211.0,32,1001.0
671322ae5b5def60f8528351,1.0,0.0,34.0,39.0,3.0,2.0,4.0,3.0,1.0,1.0,1.0,0.0,0.6253,1770.7355,2.0,0.0019,1211.0,32,1001.0
671322ae5b5def60f8528351,1.0,0.0,13.0,40.0,2.0,2.0,1.0,3.0,3.0,1.0,2.0,0.0,0.4693,1773.0237,2.0,0.2365,221.0,23,1.0
671322ae5b5def60f8528351,1.0,0.0,110.0,41.0,2.0,4.0,3.0,2.0,3.0,1.0,1.0,1.0,0.4828,1775.3853,1.0,0.3531,1220.0,32,1000.0
671322ae5b5def60f8528351,1.0,0.0,478.0,42.0,2.0,1.0,3.0,2.0,3.0,2.0,2.0,0.0,0.6684,1777.9146,1.0,0.2645,221.0,23,1.0
671322ae5b5def60f8528351,1.0,0.0,141.0,43.0,3.0,2.0,3.0,3.0,3.0,1.0,1.0,1.0,0.5277,1780.5272,1.0,0.1343,410.0,41,410.0
671322ae5b5def60f8528351,1.0,0.0,508.0,44.0,1.0,3.0,3.0,3.0,2.0,2.0,1.0,0.0,0.7026,1782.8993,1.0,0.17,311.0,32,1.0
671322ae5b5def60f8528351,1.0,0.0,417.0,45.0,2.0,2.0,1.0,2.0,2.0,2.0,2.0,1.0,0.3903,1785.4691,2.0,0.2472,41.0,5,1.0
671322ae5b5def60f8528351,1.0,0.0,156.0,46.0,3.0,2.0,3.0,3.0,3.0,1.0,1.0,1.0,0.598,1787.7985,1.0,0.1454,410.0,41,410.0
671322ae5b5def60f8528351,1.0,0.0,190.0,47.0,4.0,3.0,3.0,2.0,3.0,1.0,1.0,1.0,0.5057,1790.1781,1.0,0.2078,1310.0,41,1000.0
671322ae5b5def60f8528351,1.0,0.0,459.0,48.0,1.0,2.0,2.0,3.0,2.0,2.0,2.0,1.0,0.4024,1792.5407,2.0,0.1714,131.0,14,1.0
671322ae5b5def60f8528351,1.0,0.0,526.0,49.0,2.0,2.0,2.0,2.0,2.0,2.0,2.0,1.0,0.5407,1794.7796,2.0,0.203,50.0,5,50.0
671322ae5b5def60f8528351,1.0,0.0,463.0,50.0,2.0,4.0,2.0,2.0,1.0,2.0,2.0,1.0,0.3861,1797.1829,2.0,0.1712,1031.0,14,1001.0
671322ae5b5def60f8528351,1.0,0.0,329.0,51.0,1.0,1.0,2.0,2.0,2.0,2.0,2.0,1.0,0.4859,1799.3963,2.0,0.1232,32.0,5,2.0
671322ae5b5def60f8528351,1.0,0.0,455.0,52.0,1.0,2.0,2.0,3.0,2.0,2.0,2.0,1.0,0.4365,1801.6593,2.0,0.2204,131.0,14,1.0
671322ae5b5def60f8528351,1.0,0.0,523.0,53.0,2.0,2.0,2.0,2.0,2.0,2.0,2.0,1.0,0.3867,1803.9719,2.0,0.2362,50.0,5,50.0
671322ae5b5def60f8528351,1.0,0.0,233.0,54.0,3.0,3.0,3.0,3.0,3.0,1.0,1.0,1.0,0.4696,1806.2519,1.0,0.2395,500.0,50,500.0
671322ae5b5def60f8528351,1.0,0.0,296.0,55.0,4.0,4.0,4.0,3.0,3.0,1.0,1.0,1.0,0.458,1808.6144,1.0,0.0535,3200.0,50,3000.0
671322ae5b5def60f8528351,1.0,0.0,399.0,56.0,2.0,2.0,1.0,2.0,2.0,2.0,2.0,1.0,0.4042,1810.7872,2.0,0.29,41.0,5,1.0
671322ae5b5def60f8528351,1.0,0.0,361.0,57.0,2.0,1.0,3.0,1.0,2.0,2.0,2.0,0.0,0.6227,1813.1406,1.0,0.0533,122.0,14,2.0
671322ae5b5def60f8528351,1.0,0.0,384.0,58.0,3.0,1.0,2.0,3.0,1.0,2.0,2.0,1.0,0.4125,1815.5199,2.0,0.2205,212.0,23,2.0
671322ae5b5def60f8528351,1.0,0.0,114.0,59.0,2.0,4.0,3.0,2.0,3.0,1.0,1.0,1.0,0.4194,1817.8496,1.0,0.2491,1220.0,32,1000.0
671322ae5b5def60f8528351,1.0,0.0,400.0,60.0,2.0,2.0,1.0,2.0,2.0,2.0,2.0,1.0,0.4214,1820.179,2.0,0.1531,41.0,5,1.0
671322ae5b5def60f8528351,1.0,0.0,448.0,61.0,1.0,2.0,2.0,3.0,2.0,2.0,2.0,0.0,0.4147,1822.4087,1.0,0.1194,131.0,14,1.0
671322ae5b5def60f8528351,1.0,0.0,244.0,62.0,4.0,3.0,3.0,3.0,3.0,1.0,1.0,0.0,0.7529,1824.6382,2.0,0.137,1400.0,50,1000.0
671322ae5b5def60f8528351,1.0,0.0,234.0,63.0,3.0,3.0,3.0,3.0,3.0,1.0,1.0,1.0,0.4061,1827.1935,1.0,0.0976,500.0,50,500.0
671322ae5b5def60f8528351,1.0,0.0,375.0,64.0,1.0,1.0,4.0,2.0,2.0,2.0,2.0,0.0,0.4105,1829.3806,1.0,0.1311,1022.0,14,1002.0
671322ae5b5def60f8528351,1.0,0.0,481.0,65.0,2.0,1.0,3.0,2.0,3.0,2.0,2.0,1.0,0.4725,1831.6103,2.0,0.1147,221.0,23,1.0
671322ae5b5def60f8528351,1.0,0.0,273.0,66.0,4.0,4.0,3.0,3.0,3.0,1.0,1.0,0.0,0.4565,1833.8899,2.0,0.2361,2300.0,50,2000.0
671322ae5b5def60f8528351,1.0,0.0,61.0,67.0,4.0,3.0,3.0,1.0,3.0,1.0,1.0,1.0,0.4277,1836.2695,1.0,0.1522,1301.0,41,1001.0
671322ae5b5def60f8528351,1.0,0.0,506.0,68.0,1.0,2.0,4.0,4.0,2.0,2.0,2.0,0.0,0.5885,1838.549,1.0,0.0024,2021.0,23,2001.0
671322ae5b5def60f8528351,1.0,0.0,269.0,69.0,4.0,4.0,3.0,3.0,3.0,1.0,1.0,0.0,0.4698,1840.8127,2.0,0.0385,2300.0,50,2000.0
671322ae5b5def60f8528351,1.0,0.0,560.0,70.0,2.0,3.0,2.0,2.0,3.0,2.0,2.0,1.0,0.4749,1845.4053,2.0,0.4003,230.0,23,230.0
671322ae5b5def60f8528351,1.0,0.0,515.0,71.0,3.0,2.0,3.0,1.0,4.0,2.0,1.0,1.0,0.5039,1847.9834,2.0,0.0698,1211.0,32,1001.0
671322ae5b5def60f8528351,1.0,0.0,264.0,72.0,4.0,3.0,3.0,3.0,3.0,1.0,1.0,0.0,0.2581,1850.2139,2.0,0.2327,1400.0,50,1000.0
671322ae5b5def60f8528351,1.0,0.0,309.0,73.0,1.0,1.0,2.0,1.0,2.0,2.0,2.0,0.0,0.0864,1852.4097,1.0,0.036,23.0,5,3.0
671322ae5b5def60f8528351,1.0,0.0,170.0,74.0,4.0,3.0,3.0,2.0,3.0,1.0,1.0,0.0,0.7985,1854.19,2.0,0.0133,1310.0,41,1000.0
671322ae5b5def60f8528351,1.0,0.0,561.0,75.0,2.0,3.0,2.0,2.0,3.0,2.0,2.0,1.0,0.1051,1856.6363,2.0,0.1365,230.0,23,230.0
671322ae5b5def60f8528351,1.0,0.0,403.0,76.0,2.0,2.0,1.0,2.0,2.0,2.0,2.0,1.0,0.2463,1858.5829,2.0,0.1974,41.0,5,1.0
671322ae5b5def60f8528351,1.0,0.0,572.0,77.0,2.0,3.0,2.0,2.0,3.0,2.0,2.0,1.0,0.4385,1860.6629,2.0,0.023,230.0,23,230.0
671322ae5b5def60f8528351,1.0,0.0,21.0,78.0,2.0,1.0,2.0,3.0,4.0,1.0,2.0,0.0,0.3881,1862.7759,2.0,0.2036,1121.0,23,1001.0
671322ae5b5def60f8528351,1.0,0.0,423.0,79.0,2.0,2.0,1.0,2.0,2.0,2.0,2.0,1.0,0.4062,1865.0653,2.0,0.0372,41.0,5,1.0
671322ae5b5def60f8528351,1.0,0.0,16.0,80.0,2.0,2.0,1.0,3.0,3.0,1.0,2.0,1.0,0.5026,1867.2186,1.0,0.1198,221.0,23,1.0
671322ae5b5def60f8528351,1.0,0.0,292.0,81.0,4.0,4.0,4.0,3.0,3.0,1.0,1.0,0.0,0.4614,1869.4985,2.0,0.0502,3200.0,50,3000.0
671322ae5b5def60f8528351,1.0,0.0,155.0,82.0,3.0,2.0,3.0,3.0,3.0,1.0,1.0,0.0,0.5028,1871.7115,2.0,0.0697,410.0,41,410.0
671322ae5b5def60f8528351,1.0,0.0,363.0,83.0,2.0,1.0,3.0,1.0,2.0,2.0,2.0,1.0,0.3074,1873.9414,2.0,0.1694,122.0,14,2.0
671322ae5b5def60f8528351,1.0,0.0,40.0,84.0,3.0,2.0,4.0,3.0,1.0,1.0,1.0,0.0,0.0469,1876.1209,2.0,0.1868,1211.0,32,1001.0
671322ae5b5def60f8528351,1.0,0.0,37.0,85.0,3.0,2.0,4.0,3.0,1.0,1.0,1.0,1.0,0.7615,1878.0513,1.0,0.0476,1211.0,32,1001.0
671322ae5b5def60f8528351,1.0,0.0,345.0,86.0,1.0,1.0,2.0,2.0,2.0,2.0,2.0,0.0,0.4128,1880.5471,1.0,0.2695,32.0,5,2.0
671322ae5b5def60f8528351,1.0,0.0,148.0,87.0,3.0,2.0,3.0,3.0,3.0,1.0,1.0,1.0,0.4481,1882.9267,1.0,0.013,410.0,41,410.0
671322ae5b5def60f8528351,1.0,0.0,218.0,88.0,3.0,3.0,4.0,4.0,2.0,1.0,1.0,0.0,0.5994,1885.082,2.0,0.0112,2210.0,41,2000.0
671322ae5b5def60f8528351,1.0,0.0,189.0,89.0,4.0,3.0,3.0,2.0,3.0,1.0,1.0,1.0,0.3516,1887.386,1.0,0.2702,1310.0,41,1000.0
671322ae5b5def60f8528351,1.0,0.0,428.0,90.0,1.0,2.0,2.0,3.0,2.0,2.0,2.0,1.0,0.47,1889.699,2.0,0.1864,131.0,14,1.0
671322ae5b5def60f8528351,1.0,0.0,493.0,91.0,2.0,3.0,4.0,2.0,1.0,2.0,2.0,1.0,0.4526,1892.0118,2.0,0.0377,1121.0,23,1001.0
671322ae5b5def60f8528351,1.0,0.0,562.0,92.0,2.0,3.0,2.0,2.0,3.0,2.0,2.0,1.0,0.4069,1894.1583,2.0,0.0364,230.0,23,230.0
671322ae5b5def60f8528351,1.0,0.0,198.0,93.0,3.0,3.0,4.0,4.0,2.0,1.0,1.0,1.0,0.4359,1896.2549,1.0,0.0521,2210.0,41,2000.0
671322ae5b5def60f8528351,1.0,0.0,46.0,94.0,2.0,4.0,3.0,4.0,1.0,1.0,1.0,1.0,0.4703,1898.4015,1.0,0.0112,2111.0,32,2001.0
671322ae5b5def60f8528351,1.0,0.0,23.0,95.0,2.0,3.0,1.0,3.0,3.0,1.0,1.0,0.0,0.4158,1900.5314,2.0,0.0389,311.0,32,1.0
671322ae5b5def60f8528351,1.0,0.0,158.0,96.0,3.0,2.0,3.0,3.0,3.0,1.0,1.0,1.0,0.4237,1902.6776,1.0,0.0845,410.0,41,410.0
671322ae5b5def60f8528351,1.0,0.0,175.0,97.0,4.0,3.0,3.0,2.0,3.0,1.0,1.0,1.0,0.4396,1904.8907,1.0,0.0832,1310.0,41,1000.0
671322ae5b5def60f8528351,1.0,0.0,382.0,98.0,3.0,1.0,2.0,3.0,1.0,2.0,2.0,1.0,0.5351,1907.0794,2.0,0.2017,212.0,23,2.0
671322ae5b5def60f8528351,1.0,0.0,274.0,99.0,4.0,4.0,3.0,3.0,3.0,1.0,1.0,1.0,0.3865,1909.4831,1.0,0.0356,2300.0,50,2000.0
671322ae5b5def60f8528351,1.0,0.0,308.0,100.0,1.0,1.0,2.0,1.0,2.0,2.0,2.0,1.0,0.3337,1911.5631,2.0,0.1042,23.0,5,3.0
671322ae5b5def60f8528351,1.0,0.0,407.0,101.0,2.0,2.0,1.0,2.0,2.0,2.0,2.0,1.0,0.5359,1913.6598,2.0,0.0022,41.0,5,1.0
671322ae5b5def60f8528351,1.0,0.0,347.0,102.0,1.0,1.0,2.0,2.0,2.0,2.0,2.0,1.0,0.3031,1915.856,2.0,0.1691,32.0,5,2.0
671322ae5b5def60f8528351,1.0,0.0,532.0,103.0,2.0,2.0,3.0,2.0,2.0,2.0,2.0,1.0,0.3031,1917.9859,2.0,0.1698,140.0,14,140.0
671322ae5b5def60f8528351,1.0,0.0,583.0,104.0,2.0,3.0,2.0,2.0,4.0,2.0,2.0,1.0,0.5203,1920.1158,2.0,0.0211,1130.0,23,1000.0
671322ae5b5def60f8528351,1.0,0.0,484.0,105.0,2.0,1.0,3.0,2.0,3.0,2.0,2.0,0.0,0.3702,1922.3123,1.0,0.168,221.0,23,1.0
671322ae5b5def60f8528351,1.0,0.0,539.0,106.0,2.0,2.0,3.0,2.0,2.0,2.0,2.0,1.0,0.3447,1924.5419,2.0,0.0019,140.0,14,140.0
671322ae5b5def60f8528351,1.0,0.0,257.0,107.0,4.0,3.0,3.0,3.0,3.0,1.0,1.0,0.0,0.4721,1926.5719,2.0,0.0863,1400.0,50,1000.0
671322ae5b5def60f8528351,1.0,0.0,557.0,108.0,2.0,2.0,4.0,2.0,2.0,2.0,2.0,0.0,0.4699,1928.8185,1.0,0.1188,1040.0,14,1000.0
671322ae5b5def60f8528351,1.0,0.0,116.0,109.0,2.0,4.0,3.0,2.0,3.0,1.0,1.0,0.0,0.4243,1931.0647,2.0,0.002,1220.0,32,1000.0
671322ae5b5def60f8528351,1.0,0.0,320.0,110.0,1.0,1.0,3.0,1.0,2.0,2.0,2.0,1.0,0.1178,1933.1374,2.0,0.2521,113.0,14,3.0
671322ae5b5def60f8528351,1.0,0.0,5.0,111.0,1.0,3.0,3.0,1.0,3.0,1.0,1.0,0.0,0.4373,1935.2077,2.0,0.0362,302.0,32,2.0
671322ae5b5def60f8528351,1.0,0.0,440.0,112.0,1.0,2.0,2.0,3.0,2.0,2.0,2.0,1.0,0.341,1937.3712,2.0,0.1526,131.0,14,1.0
671322ae5b5def60f8528351,1.0,0.0,335.0,113.0,1.0,1.0,2.0,2.0,2.0,2.0,2.0,1.0,0.3903,1939.5675,2.0,0.0362,32.0,5,2.0
671322ae5b5def60f8528351,1.0,0.0,544.0,114.0,2.0,2.0,3.0,2.0,2.0,2.0,2.0,1.0,0.4033,1941.6479,2.0,0.0021,140.0,14,140.0
671322ae5b5def60f8528351,1.0,0.0,486.0,115.0,2.0,1.0,3.0,2.0,3.0,2.0,2.0,1.0,0.3362,1943.694,2.0,0.0019,221.0,23,1.0
671322ae5b5def60f8528351,1.0,0.0,77.0,116.0,3.0,4.0,1.0,3.0,4.0,1.0,1.0,0.0,0.1692,1945.6909,2.0,0.2499,2201.0,41,2001.0
671322ae5b5def60f8528351,1.0,0.0,276.0,117.0,4.0,4.0,3.0,3.0,3.0,1.0,1.0,1.0,0.1686,1947.7872,1.0,0.3022,2300.0,50,2000.0
671322ae5b5def60f8528351,1.0,0.0,14.0,118.0,2.0,2.0,1.0,3.0,3.0,1.0,2.0,0.0,0.5764,1953.4894,2.0,0.4338,221.0,23,1.0
671322ae5b5def60f8528351,1.0,0.0,103.0,119.0,2.0,3.0,3.0,2.0,3.0,1.0,1.0,1.0,0.1436,1956.2068,1.0,0.2193,320.0,32,320.0
671322ae5b5def60f8528351,1.0,0.0,3.0,120.0,3.0,2.0,1.0,1.0,3.0,1.0,2.0,0.0,0.4239,1958.2702,2.0,0.0698,212.0,23,2.0
671322ae5b5def60f8528351,1.0,0.0,54.0,121.0,3.0,3.0,3.0,3.0,1.0,1.0,1.0,1.0,0.5921,1960.4666,1.0,0.1697,401.0,41,1.0
671322ae5b5def60f8528351,1.0,0.0,380.0,122.0,3.0,1.0,2.0,3.0,1.0,2.0,2.0,1.0,0.438,1962.9292,2.0,0.1364,212.0,23,2.0
671322ae5b5def60f8528351,1.0,0.0,442.0,123.0,1.0,2.0,2.0,3.0,2.0,2.0,2.0,0.0,0.3056,1965.159,1.0,0.2354,131.0,14,1.0
671322ae5b5def60f8528351,1.0,0.0,338.0,124.0,1.0,1.0,2.0,2.0,2.0,2.0,2.0,1.0,0.2594,1967.3979,2.0,0.3071,32.0,5,2.0
671322ae5b5def60f8528351,1.0,0.0,512.0,125.0,3.0,2.0,3.0,1.0,4.0,2.0,1.0,1.0,0.453,1969.6682,2.0,0.0535,1211.0,32,1001.0
671322ae5b5def60f8528351,1.0,0.0,42.0,126.0,3.0,2.0,4.0,3.0,1.0,1.0,1.0,0.0,0.4062,1971.8316,2.0,0.0532,1211.0,32,1001.0
671322ae5b5def60f8528351,1.0,0.0,171.0,127.0,4.0,3.0,3.0,2.0,3.0,1.0,1.0,1.0,0.9252,1973.978,1.0,0.0024,1310.0,41,1000.0
671322ae5b5def60f8528351,1.0,0.0,593.0,128.0,2.0,4.0,3.0,3.0,2.0,2.0,1.0,1.0,0.164,1976.6071,2.0,0.3306,1220.0,32,1000.0
671322ae5b5def60f8528351,1.0,0.0,391.0,129.0,1.0,3.0,4.0,2.0,1.0,2.0,2.0,1.0,0.4612,1978.7371,2.0,0.0694,1112.0,23,1002.0
671322ae5b5def60f8528351,1.0,0.0,167.0,130.0,4.0,3.0,3.0,2.0,3.0,1.0,1.0,0.0,0.2014,1980.9004,2.0,0.3313,1310.0,41,1000.0
671322ae5b5def60f8528351,1.0,0.0,197.0,131.0,3.0,3.0,4.0,4.0,2.0,1.0,1.0,1.0,0.4732,1983.1134,1.0,0.1025,2210.0,41,2000.0
671322ae5b5def60f8528351,1.0,0.0,314.0,132.0,1.0,1.0,3.0,1.0,2.0,2.0,2.0,1.0,0.403,1985.3851,2.0,0.002,113.0,14,3.0
671322ae5b5def60f8528351,1.0,0.0,162.0,133.0,4.0,3.0,3.0,2.0,3.0,1.0,1.0,0.0,0.3488,1987.4394,2.0,0.0362,1310.0,41,1000.0
671322ae5b5def60f8528351,1.0,0.0,87.0,134.0,2.0,2.0,3.0,3.0,2.0,1.0,2.0,0.0,0.336,1989.5192,2.0,0.0861,230.0,23,230.0
671322ae5b5def60f8528351,1.0,0.0,265.0,135.0,4.0,3.0,3.0,3.0,3.0,1.0,1.0,1.0,0.0794,1991.599,1.0,0.2868,1400.0,50,1000.0
671322ae5b5def60f8528351,1.0,0.0,7.0,136.0,4.0,3.0,1.0,3.0,1.0,1.0,1.0,0.0,0.3692,1993.6627,2.0,0.2231,1202.0,32,1002.0
671322ae5b5def60f8528351,1.0,0.0,138.0,137.0,2.0,4.0,2.0,4.0,4.0,1.0,1.0,1.0,0.5488,1995.9419,1.0,0.2039,3020.0,32,3000.0
671322ae5b5def60f8528351,1.0,0.0,149.0,138.0,3.0,2.0,3.0,3.0,3.0,1.0,1.0,1.0,0.552,1998.388,1.0,0.014,410.0,41,410.0
671322ae5b5def60f8528351,1.0,0.0,328.0,139.0,1.0,1.0,2.0,2.0,2.0,2.0,2.0,1.0,0.0208,2000.6011,2.0,0.2357,32.0,5,2.0
671322ae5b5def60f8528351,1.0,0.0,217.0,140.0,3.0,3.0,4.0,4.0,2.0,1.0,1.0,1.0,0.4673,2002.5149,1.0,0.0983,2210.0,41,2000.0
671322ae5b5def60f8528351,1.0,0.0,226.0,141.0,3.0,4.0,4.0,4.0,2.0,1.0,1.0,1.0,0.3862,2004.7108,1.0,0.0693,3110.0,41,3000.0
671322ae5b5def60f8528351,1.0,0.0,41.0,142.0,3.0,2.0,4.0,3.0,1.0,1.0,1.0,0.0,0.3883,2006.8243,2.0,0.2183,1211.0,32,1001.0
671322ae5b5def60f8528351,1.0,0.0,547.0,143.0,2.0,2.0,3.0,2.0,2.0,2.0,2.0,1.0,0.4599,2009.1204,2.0,0.1729,140.0,14,140.0
671322ae5b5def60f8528351,1.0,0.0,293.0,144.0,4.0,4.0,4.0,3.0,3.0,1.0,1.0,1.0,0.4363,2011.4611,1.0,0.1532,3200.0,50,3000.0
671322ae5b5def60f8528351,1.0,0.0,408.0,145.0,2.0,2.0,1.0,2.0,2.0,2.0,2.0,1.0,0.3728,2013.7133,2.0,0.154,41.0,5,1.0
671322ae5b5def60f8528351,1.0,0.0,551.0,146.0,2.0,2.0,3.0,2.0,2.0,2.0,2.0,1.0,0.1377,2015.8927,2.0,0.2536,140.0,14,140.0
671322ae5b5def60f8528351,1.0,0.0,527.0,147.0,2.0,2.0,2.0,2.0,2.0,2.0,2.0,1.0,0.1208,2017.9396,2.0,0.2359,50.0,5,50.0
671322ae5b5def60f8528351,1.0,0.0,267.0,148.0,4.0,4.0,3.0,3.0,3.0,1.0,1.0,1.0,0.4998,2019.9529,1.0,0.0026,2300.0,50,2000.0
671322ae5b5def60f8528351,1.0,0.0,88.0,149.0,4.0,2.0,2.0,2.0,3.0,1.0,2.0,0.0,0.3937,2022.0993,2.0,0.2545,1130.0,23,1000.0
671322ae5b5def60f8528351,1.0,0.0,251.0,150.0,4.0,3.0,3.0,3.0,3.0,1.0,1.0,1.0,0.3622,2024.4456,1.0,0.036,1400.0,50,1000.0
671322ae5b5def60f8528351,1.0,0.0,39.0,151.0,3.0,2.0,4.0,3.0,1.0,1.0,1.0,1.0,0.4355,2026.542,1.0,0.1195,1211.0,32,1001.0
671322ae5b5def60f8528351,1.0,0.0,222.0,152.0,3.0,4.0,4.0,4.0,2.0,1.0,1.0,1.0,0.387,2028.755,1.0,0.0539,3110.0,41,3000.0
671322ae5b5def60f8528351,1.0,0.0,295.0,153.0,4.0,4.0,4.0,3.0,3.0,1.0,1.0,1.0,0.4682,2030.8517,1.0,0.0112,3200.0,50,3000.0
671322ae5b5def60f8528351,1.0,0.0,136.0,154.0,4.0,3.0,2.0,2.0,4.0,1.0,1.0,1.0,0.1371,2032.9816,1.0,0.2351,2120.0,32,2000.0
671322ae5b5def60f8528351,1.0,0.0,460.0,155.0,2.0,4.0,2.0,2.0,1.0,2.0,2.0,1.0,0.4027,2035.0114,2.0,0.0532,1031.0,14,1001.0
671322ae5b5def60f8528351,1.0,0.0,97.0,156.0,2.0,3.0,3.0,2.0,3.0,1.0,1.0,1.0,0.2039,2037.1248,1.0,0.3065,320.0,32,320.0
671322ae5b5def60f8528351,1.0,0.0,19.0,157.0,2.0,1.0,2.0,3.0,4.0,1.0,2.0,1.0,0.4199,2039.288,1.0,0.069,1121.0,23,1001.0
671322ae5b5def60f8528351,1.0,0.0,205.0,158.0,3.0,3.0,4.0,4.0,2.0,1.0,1.0,1.0,0.3535,2041.4345,1.0,0.0229,2210.0,41,2000.0
671322ae5b5def60f8528351,1.0,0.0,249.0,159.0,4.0,3.0,3.0,3.0,3.0,1.0,1.0,1.0,0.3697,2043.4649,1.0,0.023,1400.0,50,1000.0
671322ae5b5def60f8528351,1.0,0.0,58.0,160.0,3.0,3.0,3.0,3.0,1.0,1.0,1.0,1.0,0.0869,2045.5214,1.0,0.2202,401.0,41,1.0
671322ae5b5def60f8528351,1.0,0.0,303.0,161.0,1.0,1.0,1.0,1.0,3.0,2.0,2.0,1.0,0.5637,2047.4912,2.0,0.2309,104.0,14,4.0
671322ae5b5def60f8528351,1.0,0.0,487.0,162.0,2.0,1.0,3.0,2.0,3.0,2.0,2.0,1.0,0.3696,2049.9299,2.0,0.0537,221.0,23,1.0
671322ae5b5def60f8528351,1.0,0.0,232.0,163.0,3.0,3.0,3.0,3.0,3.0,1.0,1.0,1.0,0.6079,2052.0171,1.0,0.0023,500.0,50,500.0
671322ae5b5def60f8528351,1.0,0.0,585.0,164.0,2.0,2.0,4.0,4.0,2.0,2.0,2.0,1.0,0.6861,2054.2808,2.0,0.0702,2030.0,23,2000.0
671322ae5b5def60f8528351,1.0,0.0,446.0,165.0,1.0,2.0,2.0,3.0,2.0,2.0,2.0,1.0,0.1371,2056.6927,2.0,0.2689,131.0,14,1.0
671322ae5b5def60f8528351,1.0,0.0,475.0,166.0,2.0,1.0,3.0,2.0,3.0,2.0,2.0,1.0,0.0572,2058.756,2.0,0.2661,221.0,23,1.0
671322ae5b5def60f8528351,1.0,0.0,450.0,167.0,1.0,2.0,2.0,3.0,2.0,2.0,2.0,1.0,0.3623,2060.7361,2.0,0.0022,131.0,14,1.0
671322ae5b5def60f8528351,1.0,0.0,524.0,168.0,2.0,2.0,2.0,2.0,2.0,2.0,2.0,1.0,0.3622,2062.7334,2.0,0.2972,50.0,5,50.0
671322ae5b5def60f8528351,1.0,0.0,56.0,169.0,3.0,3.0,3.0,3.0,1.0,1.0,1.0,1.0,0.237,2065.0292,1.0,0.2231,401.0,41,1.0
671322ae5b5def60f8528351,1.0,0.0,44.0,170.0,3.0,2.0,4.0,3.0,1.0,1.0,1.0,0.0,0.3484,2067.1428,2.0,0.0529,1211.0,32,1001.0
671322ae5b5def60f8528351,1.0,0.0,107.0,171.0,2.0,3.0,3.0,2.0,3.0,1.0,1.0,1.0,0.3879,2069.2388,1.0,0.1545,320.0,32,320.0
671322ae5b5def60f8528351,1.0,0.0,52.0,172.0,2.0,4.0,4.0,1.0,4.0,1.0,1.0,1.0,0.3359,2071.4695,1.0,0.0232,3011.0,32,3001.0
671322ae5b5def60f8528351,1.0,0.0,414.0,173.0,2.0,2.0,1.0,2.0,2.0,2.0,2.0,1.0,0.3876,2073.4822,2.0,0.0018,41.0,5,1.0
671322ae5b5def60f8528351,1.0,0.0,385.0,174.0,3.0,1.0,2.0,3.0,1.0,2.0,2.0,1.0,0.054,2075.5288,2.0,0.2724,212.0,23,2.0
671322ae5b5def60f8528351,1.0,0.0,29.0,175.0,2.0,3.0,1.0,3.0,3.0,1.0,1.0,0.0,0.0326,2077.5088,2.0,0.2652,311.0,32,1.0
671322ae5b5def60f8528351,1.0,0.0,453.0,176.0,1.0,2.0,2.0,3.0,2.0,2.0,2.0,1.0,0.3366,2079.489,2.0,0.2009,131.0,14,1.0
671322ae5b5def60f8528351,1.0,0.0,282.0,177.0,4.0,4.0,3.0,3.0,3.0,1.0,1.0,1.0,0.3037,2081.711,1.0,0.2696,2300.0,50,2000.0
671322ae5b5def60f8528351,1.0,0.0,11.0,178.0,4.0,2.0,2.0,1.0,2.0,1.0,2.0,0.0,0.3198,2083.9487,2.0,0.2741,1031.0,14,1001.0
671322ae5b5def60f8528351,1.0,0.0,241.0,179.0,4.0,3.0,3.0,3.0,3.0,1.0,1.0,1.0,0.3329,2086.2286,1.0,0.1863,1400.0,50,1000.0
671322ae5b5def60f8528351,1.0,0.0,214.0,180.0,3.0,3.0,4.0,4.0,2.0,1.0,1.0,1.0,0.4025,2088.4408,1.0,0.003,2210.0,41,2000.0
671322ae5b5def60f8528351,1.0,0.0,305.0,181.0,1.0,1.0,2.0,1.0,2.0,2.0,2.0,1.0,0.2072,2090.5046,2.0,0.1524,23.0,5,3.0
671322ae5b5def60f8528351,1.0,0.0,195.0,182.0,4.0,3.0,3.0,2.0,3.0,1.0,1.0,0.0,0.3395,2092.5178,2.0,0.0551,1310.0,41,1000.0
671322ae5b5def60f8528351,1.0,0.0,259.0,183.0,4.0,3.0,3.0,3.0,3.0,1.0,1.0,1.0,0.5172,2094.6141,1.0,0.0019,1400.0,50,1000.0
671322ae5b5def60f8528351,1.0,0.0,49.0,184.0,2.0,4.0,3.0,4.0,1.0,1.0,1.0,0.0,0.3607,2096.8107,2.0,0.1363,2111.0,32,2001.0
671322ae5b5def60f8528351,1.0,0.0,537.0,185.0,2.0,2.0,3.0,2.0,2.0,2.0,2.0,1.0,0.4396,2099.007,2.0,0.2546,140.0,14,140.0
671322ae5b5def60f8528351,1.0,0.0,452.0,186.0,1.0,2.0,2.0,3.0,2.0,2.0,2.0,1.0,0.3535,2101.3867,2.0,0.0512,131.0,14,1.0
671322ae5b5def60f8528351,1.0,0.0,542.0,187.0,2.0,2.0,3.0,2.0,2.0,2.0,2.0,1.0,0.0013,2103.4501,2.0,0.2497,140.0,14,140.0
671322ae5b5def60f8528351,1.0,0.0,213.0,188.0,3.0,3.0,4.0,4.0,2.0,1.0,1.0,0.0,0.0116,2105.3564,2.0,0.2801,2210.0,41,2000.0
671322ae5b5def60f8528351,1.0,0.0,545.0,189.0,2.0,2.0,3.0,2.0,2.0,2.0,2.0,0.0,0.3648,2107.3326,1.0,0.0808,140.0,14,140.0
671322ae5b5def60f8528351,1.0,0.0,145.0,190.0,3.0,2.0,3.0,3.0,3.0,1.0,1.0,1.0,0.3572,2109.4067,1.0,0.2305,410.0,41,410.0
671322ae5b5def60f8528351,1.0,0.0,160.0,191.0,4.0,3.0,3.0,2.0,3.0,1.0,1.0,0.0,0.3613,2111.6696,2.0,0.1859,1310.0,41,1000.0
671322ae5b5def60f8528351,1.0,0.0,55.0,192.0,3.0,3.0,3.0,3.0,1.0,1.0,1.0,1.0,0.44,2113.9257,1.0,0.0535,401.0,41,1.0
671322ae5b5def60f8528351,1.0,0.0,389.0,193.0,1.0,3.0,4.0,2.0,1.0,2.0,2.0,0.0,0.4043,2116.1291,1.0,0.0209,1112.0,23,1002.0
671322ae5b5def60f8528351,1.0,0.0,229.0,194.0,3.0,3.0,3.0,3.0,3.0,1.0,1.0,1.0,0.4849,2118.2423,1.0,0.2184,500.0,50,500.0
671322ae5b5def60f8528351,1.0,0.0,434.0,195.0,1.0,2.0,2.0,3.0,2.0,2.0,2.0,1.0,0.5525,2120.6566,2.0,0.0702,131.0,14,1.0
671322ae5b5def60f8528351,1.0,0.0,530.0,196.0,2.0,2.0,2.0,2.0,2.0,2.0,2.0,1.0,0.2696,2122.9348,2.0,0.3189,50.0,5,50.0
671322ae5b5def60f8528351,1.0,0.0,209.0,197.0,3.0,3.0,4.0,4.0,2.0,1.0,1.0,1.0,0.4687,2125.1812,1.0,0.0701,2210.0,41,2000.0
671322ae5b5def60f8528351,1.0,0.0,330.0,198.0,1.0,1.0,2.0,2.0,2.0,2.0,2.0,1.0,0.4358,2127.3774,2.0,0.2363,32.0,5,2.0
671322ae5b5def60f8528351,1.0,0.0,409.0,199.0,2.0,2.0,1.0,2.0,2.0,2.0,2.0,1.0,0.5197,2129.7071,2.0,0.0026,41.0,5,1.0
671322ae5b5def60f8528351,1.0,0.0,502.0,200.0,2.0,3.0,4.0,2.0,1.0,2.0,2.0,1.0,0.4529,2131.8962,2.0,0.251,1121.0,23,1001.0
671322ae5b5def60f8528351,1.0,0.0,322.0,201.0,2.0,1.0,4.0,1.0,1.0,2.0,2.0,1.0,0.2363,2134.2662,2.0,0.1867,1013.0,14,1003.0
671322ae5b5def60f8528351,1.0,0.0,67.0,202.0,4.0,3.0,3.0,1.0,3.0,1.0,1.0,0.0,1.9603,2136.3462,2.0,0.2532,1301.0,41,1001.0
671322ae5b5def60f8528351,1.0,0.0,306.0,203.0,1.0,1.0,2.0,1.0,2.0,2.0,2.0,1.0,0.3969,2142.6199,2.0,0.1336,23.0,5,3.0
671322ae5b5def60f8528351,1.0,0.0,243.0,204.0,4.0,3.0,3.0,3.0,3.0,1.0,1.0,1.0,0.4663,2144.8488,1.0,0.068,1400.0,50,1000.0
671322ae5b5def60f8528351,1.0,0.0,246.0,205.0,4.0,3.0,3.0,3.0,3.0,1.0,1.0,1.0,0.4017,2150.266,1.0,0.1528,1400.0,50,1000.0
671322ae5b5def60f8528351,1.0,0.0,464.0,206.0,2.0,4.0,2.0,2.0,1.0,2.0,2.0,1.0,0.4132,2157.1212,2.0,0.3679,1031.0,14,1001.0
671322ae5b5def60f8528351,1.0,0.0,396.0,207.0,1.0,3.0,3.0,3.0,1.0,2.0,1.0,1.0,0.1636,2159.5915,2.0,0.0479,302.0,32,2.0
671322ae5b5def60f8528351,1.0,0.0,122.0,208.0,2.0,4.0,3.0,2.0,3.0,1.0,1.0,0.0,0.0984,2161.4384,2.0,0.1303,1220.0,32,1000.0
671322ae5b5def60f8528351,1.0,0.0,521.0,209.0,2.0,2.0,2.0,2.0,2.0,2.0,2.0,1.0,0.3362,2163.3519,2.0,0.0813,50.0,5,50.0
671322ae5b5def60f8528351,1.0,0.0,504.0,210.0,2.0,3.0,4.0,2.0,1.0,2.0,2.0,1.0,0.114,2165.4486,2.0,0.1308,1121.0,23,1001.0
671322ae5b5def60f8528351,1.0,0.0,461.0,211.0,2.0,4.0,2.0,2.0,1.0,2.0,2.0,1.0,0.1314,2167.329,2.0,0.1355,1031.0,14,1001.0
671322ae5b5def60f8528351,1.0,0.0,307.0,212.0,1.0,1.0,2.0,1.0,2.0,2.0,2.0,1.0,0.13,2169.226,2.0,0.0154,23.0,5,3.0
671322ae5b5def60f8528351,1.0,0.0,26.0,213.0,2.0,3.0,1.0,3.0,3.0,1.0,1.0,0.0,0.3401,2173.9015,2.0,0.1005,311.0,32,1.0
671322ae5b5def60f8528351,1.0,0.0,397.0,214.0,3.0,4.0,1.0,3.0,1.0,2.0,1.0,1.0,0.3541,2176.0572,2.0,0.2001,1202.0,32,1002.0
671322ae5b5def60f8528351,1.0,0.0,146.0,215.0,3.0,2.0,3.0,3.0,3.0,1.0,1.0,0.0,0.2755,2178.2944,2.0,0.0021,410.0,41,410.0
671322ae5b5def60f8528351,1.0,0.0,215.0,216.0,3.0,3.0,4.0,4.0,2.0,1.0,1.0,1.0,0.1963,2180.2744,1.0,0.0028,2210.0,41,2000.0
671322ae5b5def60f8528351,1.0,0.0,66.0,217.0,4.0,3.0,3.0,1.0,3.0,1.0,1.0,1.0,0.3798,2182.1546,1.0,0.1788,1301.0,41,1001.0
671322ae5b5def60f8528351,1.0,0.0,331.0,218.0,1.0,1.0,2.0,2.0,2.0,2.0,2.0,1.0,0.2697,2184.3517,2.0,0.2029,32.0,5,2.0
671322ae5b5def60f8528351,1.0,0.0,477.0,219.0,2.0,1.0,3.0,2.0,3.0,2.0,2.0,1.0,0.3719,2186.4809,2.0,0.0018,221.0,23,1.0
671322ae5b5def60f8528351,1.0,0.0,48.0,220.0,2.0,4.0,3.0,4.0,1.0,1.0,1.0,0.0,0.101,2188.5109,2.0,0.054,2111.0,32,2001.0
671322ae5b5def60f8528351,1.0,0.0,98.0,221.0,2.0,3.0,3.0,2.0,3.0,1.0,1.0,0.0,0.0809,2190.3583,2.0,0.1477,320.0,32,320.0
671322ae5b5def60f8528351,1.0,0.0,109.0,222.0,2.0,4.0,3.0,2.0,3.0,1.0,1.0,1.0,0.3248,2192.2215,1.0,0.1154,1220.0,32,1000.0
671322ae5b5def60f8528351,1.0,0.0,575.0,223.0,2.0,3.0,2.0,2.0,4.0,2.0,2.0,0.0,0.3081,2194.3349,1.0,0.2145,1130.0,23,1000.0
671322ae5b5def60f8528351,1.0,0.0,432.0,224.0,1.0,2.0,2.0,3.0,2.0,2.0,2.0,1.0,0.326,2196.5311,2.0,0.1475,131.0,14,1.0
671322ae5b5def60f8528351,1.0,0.0,250.0,225.0,4.0,3.0,3.0,3.0,3.0,1.0,1.0,1.0,0.1203,2198.6778,1.0,0.2525,1400.0,50,1000.0
671322ae5b5def60f8528351,1.0,0.0,200.0,226.0,3.0,3.0,4.0,4.0,2.0,1.0,1.0,1.0,0.5358,2200.7077,1.0,0.3031,2210.0,41,2000.0
671322ae5b5def60f8528351,1.0,0.0,552.0,227.0,2.0,2.0,4.0,2.0,2.0,2.0,2.0,1.0,0.0802,2203.2037,2.0,0.2355,1040.0,14,1000.0
671322ae5b5def60f8528351,1.0,0.0,497.0,228.0,2.0,3.0,4.0,2.0,1.0,2.0,2.0,1.0,0.2031,2205.1504,2.0,0.2675,1121.0,23,1001.0
671322ae5b5def60f8528351,1.0,0.0,341.0,229.0,1.0,1.0,2.0,2.0,2.0,2.0,2.0,1.0,0.3195,2207.2802,2.0,0.1201,32.0,5,2.0
671322ae5b5def60f8528351,1.0,0.0,339.0,230.0,1.0,1.0,2.0,2.0,2.0,2.0,2.0,1.0,0.3234,2209.3768,2.0,0.1529,32.0,5,2.0
671322ae5b5def60f8528351,1.0,0.0,357.0,231.0,2.0,1.0,3.0,1.0,2.0,2.0,2.0,1.0,0.5552,2211.5067,2.0,0.4531,122.0,14,2.0
671322ae5b5def60f8528351,1.0,0.0,543.0,232.0,2.0,2.0,3.0,2.0,2.0,2.0,2.0,1.0,0.0146,2214.178,2.0,0.179,140.0,14,140.0
671322ae5b5def60f8528351,1.0,0.0,596.0,233.0,2.0,2.0,3.0,4.0,4.0,2.0,1.0,0.0,0.3018,2216.0159,1.0,0.1476,2120.0,32,2000.0
671322ae5b5def60f8528351,1.0,0.0,511.0,234.0,1.0,3.0,3.0,3.0,2.0,2.0,1.0,1.0,0.0418,2218.1554,2.0,0.1342,311.0,32,1.0
